time,seconds_elapsed,z,y,x
1781792836284810200,0.167810302734375,0,0,0
1781792836333333000,0.2163330078125,-0.02439403533935547,0.05581331253051758,-0.10068447887897491
1781792836381856000,0.26485595703125,-0.09493350982666016,0.058409690856933594,-0.05323348939418793
1781792836478902000,0.361902099609375,0.08488655090332031,0.03479504585266113,0.10440362989902496
1781792836527425000,0.410425048828125,0.17978858947753906,-0.19733309745788574,-0.026496469974517822
1781792836575948000,0.458947998046875,-0.6790800094604492,0.37807345390319824,-0.046288102865219116
1781792836624471000,0.507470947265625,0.2795886993408203,-0.052839040756225586,-0.24373000860214233
1781792836672994000,0.555994140625,0.18973445892333984,-0.05215263366699219,-0.003326922655105591
1781792836721517000,0.60451708984375,-0.05972099304199219,-0.08021020889282227,0.10530570149421692
1781792836770040000,0.6530400390625,-0.8161020278930664,-0.39267969131469727,0.13982993364334106
1781792836818563000,0.70156298828125,-1.0441370010375977,-0.04132223129272461,0.22973661124706268
1781792836867086000,0.750086181640625,0.7158136367797852,0.03154325485229492,0.5716441869735718
1781792836915609000,0.798609130859375,1.6070470809936523,0.4398818016052246,0.5978004336357117
1781792836964132000,0.847132080078125,0.8631162643432617,0.5045318603515625,0.21002817153930664
1781792837012655000,0.895655029296875,0.20220565795898438,0.10687971115112305,0.09197580814361572
1781792837061178000,0.94417822265625,-0.3200092315673828,-0.14208316802978516,0.1447339951992035
1781792837109701000,0.992701171875,0.14350318908691406,-0.2437591552734375,-0.21591150760650635
1781792837158224100,1.04122412109375,-0.2888460159301758,-0.3018922805786133,-0.26030945777893066
1781792837206747100,1.0897470703125,-0.7008156776428223,-0.27454233169555664,-0.25050246715545654
1781792837255270100,1.138270263671875,-0.16483211517333984,-0.31504249572753906,-0.18460839986801147
1781792837303793200,1.186793212890625,-0.4281892776489258,-0.22521018981933594,-0.1428443193435669
1781792837352316400,1.23531640625,-0.37189197540283203,-0.19319868087768555,-0.09041279554367065
1781792837400839400,1.28383935546875,-0.1404590606689453,-0.0006346702575683594,-0.10297554731369019
1781792837449362400,1.332362548828125,-0.14284133911132812,0.12355947494506836,-0.05865514278411865
1781792837497885400,1.380885498046875,0.059421539306640625,0.07806253433227539,0.08114242553710938
1781792837546408400,1.429408447265625,0.29171180725097656,0.05943584442138672,0.04918313026428223
1781792837594931500,1.477931396484375,0.09935760498046875,-0.0057163238525390625,-0.04077005386352539
1781792837643454500,1.526454345703125,0.05483818054199219,-0.18141555786132812,-0.012915611267089844
1781792837691977700,1.574977783203125,-0.0636453628540039,-0.09252023696899414,-0.0927312970161438
1781792837740500700,1.623500732421875,-0.1828784942626953,-0.1640019416809082,-0.005090236663818359
1781792837789023700,1.672023681640625,-0.12532711029052734,-0.22999095916748047,-0.0665661096572876
1781792837837546800,1.720546630859375,-0.1608572006225586,-0.19920587539672852,0.018839716911315918
1781792837886069800,1.76906982421875,-0.3692960739135742,0.0002536773681640625,-0.062012672424316406
1781792837934593000,1.817593017578125,-0.2327871322631836,0.2071084976196289,-0.10861825942993164
1781792837983116000,1.866115966796875,0.040050506591796875,0.11805438995361328,-0.01014256477355957
1781792838031639000,1.91463916015625,0.22236919403076172,0.008906364440917969,0.2562294006347656
1781792838080162000,1.963162109375,0.30803394317626953,-0.07198858261108398,0.36012959480285645
1781792838128685000,2.01168505859375,0.3543529510498047,-0.014034271240234375,0.3867758512496948
1781792838177208300,2.060208251953125,0.06777381896972656,0.10215282440185547,0.3078519105911255
1781792838225731300,2.1087314453125,-0.1311492919921875,0.08375263214111328,0.08188402652740479
1781792838274254300,2.15725439453125,-0.16567039489746094,-0.007135868072509766,0.047931551933288574
1781792838322777600,2.205777587890625,-0.27155494689941406,0.01145792007446289,-0.11727017164230347
1781792838371300600,2.254300537109375,-0.40869808197021484,0.14101552963256836,-0.31775516271591187
1781792838419823600,2.30282373046875,-0.37987756729125977,0.08804988861083984,-0.36949700117111206
1781792838468347000,2.351346923828125,-0.4180164337158203,0.012218475341796875,-0.3479425311088562
1781792838516870000,2.399869873046875,-0.2539205551147461,0.022096633911132812,-0.23651671409606934
1781792838565393000,2.448392822265625,0.15972328186035156,0.12368011474609375,0.013096213340759277
1781792838613916200,2.496916259765625,0.14698028564453125,0.11853599548339844,0.3650972545146942
1781792838662439200,2.545439208984375,0.5249290466308594,0.05660867691040039,0.45704954862594604
1781792838710962200,2.593962158203125,0.35283565521240234,0.005631923675537109,0.5249484777450562
1781792838759485400,2.6424853515625,0.06928062438964844,-0.14651203155517578,0.3964082598686218
1781792838808008400,2.691008544921875,-0.264404296875,-0.08240461349487305,0.13175499439239502
1781792838856531700,2.73953173828125,-0.5619039535522461,0.0372920036315918,0.25099265575408936
1781792838905054700,2.7880546875,0.7722740173339844,0.035198211669921875,-0.14376068115234375
1781792838953577700,2.83657763671875,0.4193000793457031,0.10289907455444336,-0.1968347430229187
1781792839002101000,2.88510107421875,0.5007858276367188,0.08812856674194336,-0.16192328929901123
1781792839050624000,2.9336240234375,0.1999063491821289,-0.06978368759155273,-0.4062540531158447
1781792839099147000,2.98214697265625,-0.2787637710571289,0.010729312896728516,-0.20484387874603271
1781792839147670300,3.030670166015625,-0.8642611503601074,0.20245075225830078,0.43673551082611084
1781792839196193300,3.079193359375,-0.267974853515625,0.4591073989868164,-0.05996578931808472
1781792839244716500,3.127716552734375,0.5723142623901367,0.025463104248046875,-0.11817020177841187
1781792839293239600,3.176239501953125,0.5151510238647461,-0.24094653129577637,-0.05666634440422058
1781792839341762800,3.2247626953125,0.3025989532470703,-0.17188000679016113,0.0033884048461914062
1781792839390285800,3.273285888671875,0.2365407943725586,-0.015871763229370117,-0.08555233478546143
1781792839438809000,3.32180908203125,0.09548664093017578,0.09435248374938965,-0.03221556544303894
1781792839487332400,3.370332275390625,0.2665519714355469,-0.07122945785522461,-0.04622414708137512
1781792839535855400,3.41885546875,0.17278194427490234,-0.09054231643676758,-0.06580784916877747
1781792839584378400,3.46737841796875,-0.1427440643310547,-0.01290130615234375,0.03176531195640564
1781792839632901600,3.515901611328125,-0.12018299102783203,0.014620304107666016,0.08598117530345917
1781792839681424600,3.564424560546875,0.0019474029541015625,-0.032817840576171875,0.03368479013442993
1781792839729948000,3.612947998046875,-0.007784843444824219,0.023804664611816406,-0.008730292320251465
1781792839778471200,3.66147119140625,0.06630611419677734,0.08626842498779297,-0.0373208224773407
1781792839826994200,3.709994140625,0.06824016571044922,0.07511663436889648,-0.05355942249298096
1781792839875517400,3.758517333984375,-0.06436920166015625,0.07075166702270508,0.0018934309482574463
1781792839924040400,3.80704052734375,-0.018939971923828125,0.0327763557434082,-0.0182497501373291
1781792839972563700,3.855563720703125,0.024819374084472656,-0.027802467346191406,-0.002578824758529663
1781792840021086700,3.904086669921875,-0.11925983428955078,-0.01453542709350586,0.018431395292282104
1781792840069610000,3.95260986328125,-0.05527305603027344,0.007597446441650391,0.0004744529724121094
1781792840118133200,4.00113330078125,0.08997535705566406,-0.026210784912109375,-0.08261236548423767
1781792840166656500,4.049656494140625,0.015563011169433594,-0.025850772857666016,-0.0944662094116211
1781792840215179500,4.098179443359375,0.4338111877441406,0.089111328125,-0.2647087872028351
1781792840263702800,4.146702880859375,0.29158496856689453,-0.008166790008544922,-0.35177552700042725
1781792840312225800,4.195225830078125,-0.6238746643066406,0.15623044967651367,-0.22168830037117004
1781792840360749000,4.2437490234375,-0.8007955551147461,-0.19716596603393555,-0.3127565383911133
1781792840409272300,4.292272216796875,-0.6412200927734375,-0.3601698875427246,0.5411550998687744
1781792840457795600,4.340795654296875,-0.30225086212158203,-0.35035037994384766,0.2604057490825653
1781792840506318600,4.389318603515625,-0.8984699249267578,0.7374296188354492,0.3462309241294861
1781792840554841900,4.437841796875,0.9437580108642578,0.2423710823059082,0.1902804970741272
1781792840603365000,4.486365234375,1.0553884506225586,0.0821988582611084,0.013876676559448242
1781792840651888000,4.53488818359375,1.1564626693725586,0.26653218269348145,0.04920351505279541
1781792840700411400,4.583411376953125,0.41921043395996094,0.2540922164916992,0.5132400989532471
1781792840748934700,4.6319345703125,0.5524377822875977,0.3669288158416748,0.27182191610336304
1781792840797457700,4.680457763671875,1.147578239440918,-0.0014836788177490234,-0.037059783935546875
1781792840845981000,4.72898095703125,0.048496246337890625,-0.16059589385986328,-0.09808045625686646
1781792840894504200,4.777504150390625,-0.07775020599365234,-0.28946781158447266,-0.014385402202606201
1781792840943027500,4.82602734375,0.0247955322265625,-0.06914281845092773,0.2961345314979553
1781792840991550500,4.874550537109375,-0.5605411529541016,-0.006967306137084961,0.47645992040634155
1781792841040073700,4.92307373046875,0.181793212890625,-0.20279240608215332,0.2804591655731201
1781792841088597000,4.971596923828125,0.8674545288085938,-0.2944793701171875,-0.11114299297332764
1781792841137120300,5.020120361328125,0.0633535385131836,0.019649505615234375,-0.13288497924804688
1781792841185643500,5.0686435546875,-1.4350743293762207,-0.27820682525634766,0.618660032749176
1781792841234166800,5.117166748046875,-0.6725177764892578,-0.1453108787536621,0.5919728875160217
1781792841282690000,5.16568994140625,1.644972801208496,0.43412208557128906,-0.054603397846221924
1781792841331213000,5.214213134765625,0.0341033935546875,0.1649641990661621,-0.7275121212005615
1781792841379746800,5.262746826171875,0.05132865905761719,-0.01476907730102539,-0.8257133960723877
1781792841428259600,5.311259521484375,-0.8858089447021484,-0.4494309425354004,0.3226320147514343
1781792841476782800,5.359782958984375,-0.0476531982421875,-0.3380589485168457,0.43582236766815186
1781792841525306000,5.40830615234375,-0.47501277923583984,0.026519775390625,0.17048342525959015
1781792841573829000,5.4568291015625,0.7421436309814453,0.012178421020507812,-0.12936320900917053
1781792841622352400,5.505352294921875,-0.3303365707397461,0.034646034240722656,-0.230762779712677
1781792841670875600,5.553875732421875,0.787017822265625,-0.21623611450195312,-2.2217071056365967
1781792841719399000,5.60239892578125,-1.3923053741455078,-0.5916376113891602,-1.092491865158081
1781792841767922000,5.650921875,0.43767356872558594,0.2528700828552246,0.908928394317627
1781792841816445200,5.699445068359375,0.8925609588623047,0.30478620529174805,-0.11489439010620117
1781792841864968400,5.747968505859375,0.20213985443115234,0.20504140853881836,0.011780261993408203
1781792841913491700,5.79649169921875,0.4166097640991211,0.2696847915649414,-0.024679183959960938
1781792841962015000,5.845014892578125,0.18369340896606445,0.0280914306640625,0.0772104263305664
1781792842010538200,5.893538330078125,0.822354793548584,-0.20328235626220703,-0.3257632255554199
1781792842059061500,5.9420615234375,-0.30758190155029297,-0.12770891189575195,-0.017133235931396484
1781792842107584500,5.99058447265625,0.744633674621582,0.0037584304809570312,-0.35767650604248047
1781792842156107800,6.039107666015625,0.3018641471862793,0.15987634658813477,-0.5277490615844727
1781792842204631000,6.087631103515625,0.5551180839538574,0.20326757431030273,-0.47211217880249023
1781792842253161500,6.136161376953125,0.38156747817993164,0.17595338821411133,-0.7991609573364258
1781792842301677600,6.184677490234375,1.2079131603240967,0.40131664276123047,-0.5768628120422363
1781792842350200800,6.233200927734375,1.2134909629821777,0.040421485900878906,-0.8535127639770508
1781792842398724000,6.28172412109375,0.16004085540771484,-0.14670181274414062,-0.1756916046142578
1781792842447247400,6.330247314453125,0.9018449783325195,-0.16477012634277344,0.10157966613769531
1781792842495770600,6.3787705078125,0.22574388980865479,0.12279081344604492,0.057804107666015625
1781792842544294000,6.4272939453125,1.6684317588806152,-0.6518046855926514,-0.1036529541015625
1781792842592817200,6.475817138671875,2.467439889907837,-0.6848218441009521,0.11879158020019531
1781792842641340200,6.524340087890625,-3.461528778076172,0.7531681060791016,-1.2752294540405273
1781792842738386700,6.62138671875,0.22265243530273438,0.024675369262695312,-0.7404985427856445
1781792842786910000,6.669909912109375,-0.13413047790527344,0.3673532009124756,-0.6456971168518066
1781792842835433200,6.71843310546875,-0.529954195022583,0.7970619201660156,-1.886033058166504
1781792842968790300,6.851790283203125,-2.528318405151367,-0.2398085594177246,-2.1818318367004395
1781792843017313500,6.9003134765625,-4.949793815612793,-2.480295181274414,0.44631099700927734
1781792843065836800,6.9488369140625,-2.6997597217559814,-2.6719002723693848,3.4922409057617188
1781792843114360000,6.997360107421875,-0.8610904216766357,-1.219651699066162,3.808741569519043
1781792843162883300,7.04588330078125,0.3825254440307617,-0.8925704956054688,3.0882606506347656
1781792843211406600,7.094406494140625,0.06594991683959961,-0.5106644630432129,1.9631938934326172
1781792843259929900,7.142929931640625,-1.8779990673065186,0.04918718338012695,1.827056884765625
1781792843308453000,7.191453125,-2.7731666564941406,-0.5688271522521973,0.5686588287353516
1781792843356976400,7.239976318359375,-2.5425281524658203,-1.1116676330566406,-0.34329867362976074
1781792843405499600,7.288499755859375,1.0485029220581055,-0.5095787048339844,0.1568695306777954
1781792843454023000,7.33702294921875,1.6627135276794434,-0.15594005584716797,0.684680700302124
1781792843502546200,7.385546142578125,0.9519004821777344,0.8492918014526367,1.8653253316879272
1781792843551069400,7.4340693359375,1.3076362609863281,1.0734038352966309,2.7471327781677246
1781792843648115700,7.53111572265625,-0.042217254638671875,1.1056017875671387,4.2632551193237305
1781792843696639000,7.579638916015625,0.627018928527832,3.5990376472473145,4.124474048614502
1781792843793685500,7.676685546875,2.653715133666992,6.349010467529297,1.1659623384475708
1781792843842209000,7.725208984375,4.164674758911133,1.7535831928253174,1.8671352863311768
1781792843939255300,7.82225537109375,3.192007064819336,-1.0463740825653076,0.08579301834106445
1781792844036301800,7.9193017578125,0.01786327362060547,0.02930915355682373,2.5319061279296875
1781792844133348600,8.0163486328125,-3.6476056575775146,-0.20065569877624512,0.9448127746582031
1781792844230395000,8.113394775390624,-0.8787882328033447,-0.24127507209777832,0.5972108840942383
1781792844327441400,8.21044140625,-0.9883222579956055,0.11339616775512695,0.020204544067382812
1781792844424488200,8.30748828125,0.02958536148071289,-0.14783108234405518,-1.396655559539795
1781792844521534700,8.40453466796875,4.399519443511963,-6.648839950561523,-10.686200141906738
1781792844618581200,8.501581298828125,8.054214477539062,-5.849228858947754,-9.321374893188477
1781792844715627800,8.598627685546875,-2.5741524696350098,-2.9470839500427246,0.11474084854125977
1781792844812674300,8.69567431640625,-3.6194138526916504,-3.3100452423095703,1.7322602272033691
1781792844909720600,8.792720458984375,-2.4924259185791016,-1.2155604362487793,-0.083648681640625
1781792844958244000,8.841244140625,-4.978377342224121,-1.506765365600586,-0.8623948097229004
1781792845006767400,8.889767333984375,-7.2396650314331055,1.2986111640930176,-2.0156450271606445
1781792845055290600,8.93829052734375,-2.8991355895996094,-0.32973623275756836,-1.8249459266662598
1781792845103814000,8.98681396484375,-1.9406814575195312,-3.1011083126068115,0.39385414123535156
1781792845152337200,9.035337158203125,-0.3334451913833618,-3.4533631801605225,0.83709716796875
1781792845201248800,9.084248779296875,-1.584234595298767,-2.4724180698394775,-0.7239184379577637
1781792845297907000,9.180906982421876,-0.07527238130569458,-3.709775924682617,-3.55190372467041
1781792845346430200,9.22943017578125,1.5096877813339233,-2.7715110778808594,-4.4317121505737305
1781792845394953500,9.277953369140626,3.3735098838806152,-0.33380329608917236,-2.386188507080078
1781792845443477000,9.32647705078125,2.972407341003418,1.3269915580749512,4.101751327514648
1781792845492000300,9.375000244140624,1.898579478263855,1.2536585330963135,6.828038215637207
1781792845540523500,9.4235234375,3.3622899055480957,-0.9777469635009766,7.066295146942139
1781792845589046800,9.472046875,3.646034002304077,-1.8526787757873535,7.314018249511719
1781792845637570000,9.520570068359374,1.5191847085952759,0.3213186264038086,6.599490165710449
1781792845686093300,9.56909326171875,-0.29667121171951294,1.1139731407165527,4.819511413574219
1781792845734616800,9.617616943359375,-0.4289768934249878,1.0191545486450195,3.981968402862549
1781792845783139800,9.666139892578125,-1.0215318202972412,0.4845314025878906,5.155294418334961
1781792845831663400,9.714663330078125,-0.10556602478027344,-0.780034065246582,4.533492088317871
1781792845880186600,9.7631865234375,-8.247389793395996,-0.7925209999084473,1.844834804534912
1781792845928710000,9.8117099609375,-3.7870850563049316,-0.1903214454650879,2.6985092163085938
1781792845977233200,9.860233154296875,-1.1293346881866455,-0.621243953704834,2.5592360496520996
1781792846074280000,9.957280029296875,2.9808168411254883,-2.1211156845092773,0.4933180809020996
1781792846122803200,10.00580322265625,1.3161373138427734,-1.10514497756958,-1.377619981765747
1781792846171326500,10.054326416015625,-0.3912177085876465,-0.019014358520507812,-0.33189964294433594
1781792846219849700,10.102849609375,-2.424359083175659,-0.8059525489807129,2.303109884262085
1781792846268373200,10.151373291015625,1.659379482269287,-1.9400949478149414,2.2221975326538086
1781792846316896500,10.199896484375,1.7511978149414062,-2.3173270225524902,1.594268798828125
1781792846365419800,10.248419677734375,-0.06452703475952148,-0.4913980960845947,-4.223494052886963
1781792846462466600,10.345466552734376,-9.097412109375,-0.3194746971130371,-1.4250786304473877
1781792846510989800,10.39398974609375,-0.2913551330566406,-4.615054607391357,5.606827735900879
1781792846559513300,10.442513427734376,4.132572174072266,-3.8733139038085938,4.199246406555176
1781792846608036600,10.49103662109375,4.923297882080078,-2.6711301803588867,3.8903555870056152
1781792846656559900,10.539559814453124,1.32124662399292,-1.7158231735229492,-1.3606376647949219
1781792846705083100,10.588083251953124,-6.2123894691467285,-1.0578683614730835,-8.342751502990723
1781792846753606400,10.6366064453125,-10.051017761230469,-1.260767936706543,-6.579816818237305
1781792846802130000,10.6851298828125,-7.603597164154053,0.18208014965057373,-2.7180681228637695
1781792846850653200,10.733653076171874,-2.9337806701660156,-1.6623084545135498,-3.999438762664795
1781792846899176400,10.782176513671875,0.5299689769744873,0.3065757751464844,-4.364777088165283
1781792846947700000,10.830699951171875,4.715834140777588,-2.287442684173584,-1.2366375923156738
1781792846996223500,10.879223388671875,7.477912425994873,-3.3375821113586426,1.8118619918823242
1781792847044746800,10.927746826171875,6.868220806121826,-1.7361655235290527,2.665705680847168
1781792847093270000,10.97627001953125,4.096182823181152,-3.1125259399414062,6.915858268737793
1781792847141793300,11.024793212890625,2.37331485748291,-3.2468910217285156,9.78325080871582
1781792847190316800,11.07331689453125,-0.6454114317893982,-0.888667106628418,7.636399269104004
1781792847238840000,11.121840087890625,-9.170424461364746,2.177320957183838,2.279721260070801
1781792847287363300,11.17036328125,-4.427121639251709,-0.6936898231506348,1.5551834106445312
1781792847335886800,11.218886962890625,-0.2121819257736206,0.06844043731689453,1.7835216522216797
1781792847384410400,11.267410400390625,3.516158103942871,-1.0511579513549805,-0.35265541076660156
1781792847432933600,11.31593359375,-2.454219102859497,0.497713565826416,-0.29403257369995117
1781792847481457000,11.364456787109376,-2.138237714767456,-1.2954521179199219,1.219677448272705
1781792847578503700,11.461503662109376,-2.227787971496582,1.1966614723205566,1.520240306854248
1781792847627027200,11.510027099609376,-0.9932365417480469,3.503575325012207,0.29163503646850586
1781792847675550500,11.558550537109374,-1.6259677410125732,4.003256320953369,-0.029085516929626465
1781792847724073700,11.60707373046875,1.5391225814819336,2.32265567779541,-1.2425291538238525
1781792847772597200,11.65559716796875,-0.516575813293457,-4.9360504150390625,3.1390159130096436
1781792847821120500,11.70412060546875,-0.8997864723205566,0.08148670196533203,1.0635044574737549
1781792847869644000,11.75264404296875,0.4510211944580078,-1.0265073776245117,-0.639826774597168
1781792847918167600,11.80116748046875,0.7936382293701172,-0.042359352111816406,0.6314167976379395
1781792847966690600,11.849690673828125,0.19940996170043945,-0.8108015060424805,-0.7548004388809204
1781792848015214000,11.898214111328125,-0.2110304832458496,0.6476030349731445,-1.2332425117492676
1781792848063737300,11.9467373046875,-1.4679577350616455,3.2448697090148926,-3.343473434448242
1781792848112260900,11.9952607421875,2.360635280609131,0.5285816192626953,2.4010276794433594
1781792848160784400,12.043784423828125,1.2543699741363525,-2.3522109985351562,3.058349847793579
1781792848209307600,12.0923076171875,0.01544046401977539,-1.5822715759277344,1.8517160415649414
1781792848257831200,12.1408310546875,-0.14256954193115234,-5.134655952453613,1.6928216218948364
1781792848306354700,12.189354736328125,0.8289551734924316,-3.284176826477051,1.0618464946746826
1781792848354878000,12.2378779296875,0.23828935623168945,-0.7428798675537109,0.0788314938545227
1781792848403401200,12.286401123046875,-4.055240631103516,5.960452556610107,-2.340498924255371
1781792848451924700,12.3349248046875,-1.9076430797576904,3.154788017272949,-0.6825319528579712
1781792848500448000,12.383447998046876,0.993464469909668,0.9403467178344727,-1.2167375087738037
1781792848548971500,12.431971435546876,-1.303099513053894,1.6355648040771484,0.26110267639160156
1781792848597495000,12.4804951171875,4.803998947143555,-3.8483734130859375,1.8301324844360352
1781792848646018300,12.529018310546874,5.935249328613281,-2.914189338684082,-0.5256118774414062
1781792848694541800,12.577541748046874,-0.7145804166793823,-0.7447590827941895,-2.5174927711486816
1781792848743065300,12.6260654296875,-5.445255756378174,0.8384604454040527,-1.1581521034240723
1781792848791588600,12.674588623046875,-1.8545019626617432,-1.121971607208252,0.3411540985107422
1781792848840112000,12.723112060546875,1.4733188152313232,-1.1228809356689453,1.4852104187011719
1781792848888635400,12.771635498046875,2.1761538982391357,0.04827547073364258,0.7960643768310547
1781792848937158700,12.82015869140625,1.540838360786438,0.6019349098205566,-1.148585319519043
1781792848985682200,12.86868212890625,0.02987229824066162,0.24939727783203125,-0.6211056709289551
1781792849082729200,12.965729248046875,0.47527390718460083,-1.4770293235778809,-0.36305904388427734
1781792849131252700,13.014252685546875,0.3149377703666687,-2.27874755859375,1.186234951019287
1781792849179775700,13.062775634765625,-2.045964479446411,-1.373673439025879,3.3286690711975098
1781792849228299300,13.11129931640625,-1.5961076021194458,-1.6382579803466797,3.7437238693237305
1781792849276822800,13.15982275390625,-1.9051847457885742,-1.6624670028686523,2.9647679328918457
1781792849325346000,13.208345947265625,-1.2558270692825317,-0.44484710693359375,0.9468088150024414
1781792849373869600,13.25686962890625,-2.3293683528900146,0.811741828918457,0.2295362949371338
1781792849422393000,13.30539306640625,0.5658512115478516,-0.7073259353637695,-1.3489344120025635
1781792849470916400,13.353916259765626,-3.050264835357666,2.8665289878845215,-1.0536208152770996
1781792849519440000,13.40243994140625,-1.7934486865997314,3.575892925262451,-0.6585307121276855
1781792849567963400,13.45096337890625,1.4205045700073242,1.5307154655456543,1.8851613998413086
1781792849616486700,13.499486572265624,1.6499123573303223,-1.1929826736450195,1.4836299419403076
1781792849665010200,13.54801025390625,-2.7093372344970703,-0.8669795989990234,1.5390650033950806
1781792849713533700,13.59653369140625,1.3757057189941406,3.314340591430664,0.15515387058258057
1781792849762057000,13.645056884765625,-0.24700427055358887,0.2509737014770508,-1.3076292276382446
1781792849810580500,13.69358056640625,2.3614449501037598,0.693354606628418,-1.0481133460998535
1781792849859104000,13.74210400390625,2.133066177368164,-1.2274456024169922,-0.7764487266540527
1781792849907627300,13.790627197265625,0.5262949466705322,-2.754058837890625,-0.062262535095214844
1781792849956150800,13.83915087890625,0.28355872631073,-0.7137260437011719,0.39682579040527344
1781792850053197800,13.93619775390625,-1.1513217687606812,0.44074058532714844,0.6213231086730957
1781792850150244600,14.03324462890625,0.15981370210647583,1.1041669845581055,-0.49907803535461426
1781792850247291400,14.13029150390625,0.4093492329120636,1.1565866470336914,1.293790578842163
1781792850344338400,14.22733837890625,0.43300414085388184,-1.5298242568969727,-0.6042362451553345
1781792850441385200,14.32438525390625,-0.6458793878555298,0.44519519805908203,4.987327575683594
1781792850538432000,14.421431884765624,-0.3000137209892273,-2.559372901916504,-1.3990659713745117
1781792850635478800,14.518478759765625,0.121562160551548,0.43915271759033203,0.1800382137298584
1781792850732525800,14.61552587890625,-0.22624965012073517,0.23800182342529297,-0.11520636081695557
1781792850829572600,14.712572509765625,1.7422702312469482,0.49480438232421875,0.5869463682174683
1781792850926619600,14.80961962890625,-0.44037508964538574,3.017251968383789,-0.04705876111984253
1781792851023666400,14.90666650390625,0.41288700699806213,-2.6003198623657227,0.10652793943881989
1781792851120713200,15.003713134765626,-0.40653640031814575,-1.7866973876953125,0.30697667598724365
1781792851217760300,15.10076025390625,-0.007377028465270996,-0.0851898193359375,0.05115199089050293
1781792851314807000,15.19780712890625,-0.26860877871513367,4.169344425201416,-0.08544672280550003
1781792851411854000,15.29485400390625,0.31827107071876526,-7.458317756652832,0.7477718591690063
1781792851508900900,15.39190087890625,0.7520315647125244,1.7101726531982422,-0.33083850145339966
1781792851605948000,15.488947998046875,0.08556234836578369,-0.4379997253417969,0.6407954692840576
1781792851702994700,15.58599462890625,0.0610823929309845,-0.19460773468017578,0.23105183243751526
1781792851800041700,15.683041748046875,-0.09667673707008362,-0.23392581939697266,-0.24466222524642944
1781792851897088500,15.780088623046876,0.2122827172279358,-0.10936355590820312,0.04916036128997803
1781792851994135600,15.877135498046876,0.16943049430847168,-0.11374568939208984,-0.048294663429260254
1781792852091182300,15.974182373046874,0.18535487353801727,-0.3061542510986328,-0.2992801070213318
1781792852188229400,16.0712294921875,0.07905740290880203,0.05457878112792969,-0.11747264862060547
1781792852285276200,16.168276123046876,-0.27169302105903625,-0.41013622283935547,0.4007643163204193
1781792852382323200,16.2653232421875,0.17975711822509766,0.1263132095336914,0.2723894417285919
1781792852479370000,16.362369873046877,0.5802984237670898,-0.10149002075195312,0.7676830291748047
1781792852576417000,16.4594169921875,0.3354562222957611,0.022904396057128906,0.2103983759880066
1781792852673464000,16.556464111328125,-0.11741707473993301,-0.08320808410644531,-0.36806604266166687
1781792852770510800,16.6535107421875,-0.13942134380340576,0.04116535186767578,-0.24702441692352295
1781792852867558000,16.750557861328126,-0.06698311120271683,-0.07861709594726562,-0.1320541799068451
1781792852964604700,16.847604736328126,0.025860123336315155,-0.04304790496826172,-0.06037983298301697
1781792853061651700,16.944651611328126,0.07014431059360504,-0.011803627014160156,0.00804126262664795
1781792853158698800,17.04169873046875,0.057276252657175064,-0.027283668518066406,0.021440774202346802
1781792853255745500,17.13874560546875,0.025313228368759155,-0.05394554138183594,0.041264116764068604
1781792853352792600,17.23579248046875,0.01846468448638916,-0.040968894958496094,-0.020845353603363037
1781792853401316000,17.284316162109373,0.042031899094581604,0.004992485046386719,-0.08453890681266785
1781792853449839400,17.33283935546875,0.04759810119867325,-0.02492237091064453,-0.08900105953216553
1781792853498363000,17.38136279296875,0.03969650715589523,-0.019287109375,-0.040486812591552734
1781792853546886400,17.429886474609376,0.04056002199649811,0.029294967651367188,-0.007961273193359375
1781792853595410000,17.478409912109374,0.006914146244525909,-0.0007200241088867188,-0.0016646981239318848
1781792853643933400,17.526933349609376,-0.022564545273780823,-0.007061004638671875,0.009625256061553955
1781792853692456700,17.575456787109374,-0.03699510917067528,-0.039203643798828125,0.0012505948543548584
1781792853740980500,17.62398046875,-0.037011727690696716,-0.005965232849121094,-0.04398268461227417
1781792853789504000,17.67250390625,-0.011775530874729156,-0.015438079833984375,-0.016716599464416504
1781792853838027500,17.721027587890624,-0.005349434912204742,-0.0021963119506835938,-0.024358689785003662
1781792853886550800,17.76955078125,0.05398574471473694,0.0262451171875,0.0633327066898346
1781792853935074300,17.81807421875,0.03790535777807236,-0.016965866088867188,0.05000591278076172
1781792853983597800,17.866597900390627,0.048080772161483765,0.02018451690673828,0.0443931519985199
1781792854080644900,17.963644775390627,0.006146907806396484,-0.013495445251464844,-0.013187110424041748
1781792854129168100,18.012168212890625,-0.005347266793251038,-0.025905609130859375,-0.008695840835571289
1781792854177691600,18.060691650390623,-0.00039198994636535645,-0.032952308654785156,0.009485781192779541
1781792854226215400,18.10921533203125,-0.006658390164375305,-0.005572319030761719,-0.014021426439285278
1781792854274738700,18.15773876953125,0.008517816662788391,0.015527725219726562,-0.004047602415084839
1781792854323262200,18.20626220703125,0.0217665433883667,0.011247634887695312,0.0004633963108062744
1781792854371785700,18.25478564453125,0.021387487649917603,-0.0304718017578125,-0.006373345851898193
1781792854420309000,18.30330908203125,0.010495632886886597,-0.021329879760742188,-0.05651748180389404
1781792854468832500,18.35183251953125,0.003083467483520508,0.006699562072753906,-0.00502505898475647
1781792854517356300,18.400356201171874,0.007104068994522095,0.010148048400878906,0.009378224611282349
1781792854565879600,18.448879638671876,0.022615090012550354,0.03081512451171875,0.005276799201965332
1781792854614403000,18.497403076171874,0.0029049813747406006,-0.008999824523925781,-0.040780067443847656
1781792854662926600,18.545926513671876,0.009018540382385254,-0.0063934326171875,-0.02055990695953369
1781792854711450000,18.5944501953125,0.02531321346759796,-0.0224609375,-0.02816849946975708
1781792854759973600,18.6429736328125,0.03747756779193878,-0.004349708557128906,-0.014661222696304321
1781792854808497000,18.691496826171875,0.027896717190742493,0.02454090118408203,0.022840648889541626
1781792854857020400,18.7400205078125,0.019874736666679382,-0.013471603393554688,-0.0014629960060119629
1781792854905544000,18.7885439453125,0.008603036403656006,0.010873794555664062,-0.00377732515335083
1781792854954067500,18.8370673828125,0.01188717782497406,-0.018115997314453125,-0.012026548385620117
1781792855002591000,18.885591064453124,0.004960730671882629,-0.015252113342285156,0.014039307832717896
1781792855051114500,18.934114501953125,0.02636396884918213,-0.004828453063964844,0.014986127614974976
1781792855099638000,18.982637939453124,0.02767948806285858,-0.009778022766113281,-0.008032470941543579
1781792855148161500,19.03116162109375,0.02153034508228302,0.004183769226074219,0.003212153911590576
1781792855196685000,19.07968505859375,-0.0023388415575027466,-0.0058498382568359375,-0.02009207010269165
1781792855245208300,19.128208251953126,0.007197484374046326,0.0055694580078125,-0.008635550737380981
1781792855293731800,19.17673193359375,0.002956777811050415,0.009531021118164062,-0.007395952939987183
1781792855342255400,19.22525537109375,0.003845512866973877,-0.007920265197753906,-0.00842776894569397
1781792855390779000,19.27377880859375,0.014290302991867065,0.001560211181640625,-0.01653081178665161
1781792855439302400,19.322302490234375,0.007962703704833984,-0.0020093917846679688,-0.021679222583770752
1781792855487826000,19.370825927734376,0.006436377763748169,0.01490020751953125,-0.015595942735671997
1781792855584873000,19.467873046875,0.012131094932556152,0.010477066040039062,-0.0003224313259124756
1781792855633396200,19.516396240234375,0.021594196557998657,0.000011444091796875,0.02834072709083557
1781792855681919700,19.564919677734373,0.008631989359855652,-0.0003337860107421875,-0.0035002529621124268
1781792855730443300,19.613443359375,0.04335010051727295,0.029584884643554688,0.023349523544311523
1781792855778966500,19.661966552734373,0.013981148600578308,-0.02065753936767578,0.02770024538040161
1781792855827490300,19.710490234375,0.016869500279426575,0.0052509307861328125,0.020290732383728027
1781792855876013800,19.759013916015626,-0.00677114725112915,0.00130462646484375,0.008755236864089966
1781792855924537000,19.807537109375,0.0015613734722137451,-0.017679214477539062,0.0013072490692138672
1781792855973060600,19.856060546875,0.0020615607500076294,0.009274482727050781,0.013193190097808838
1781792856021584100,19.904584228515624,0.009545177221298218,-0.006421089172363281,-0.002222210168838501
1781792856070107600,19.953107666015626,0.023783624172210693,0.013434410095214844,-0.01397523283958435
1781792856118631200,20.001631103515624,0.02662767469882965,0.0026388168334960938,-0.011474847793579102
1781792856167154700,20.05015478515625,0.017297953367233276,-0.00812530517578125,-0.003964483737945557
1781792856215678000,20.098677978515624,0.013222411274909973,0.007054328918457031,-0.012153655290603638
1781792856264201500,20.147201416015626,0.002012193202972412,-0.0001163482666015625,-0.011774450540542603
1781792856312725000,20.19572509765625,0.0057252198457717896,0.014810562133789062,-0.0173816978931427
1781792856361248500,20.24424853515625,-0.007028952240943909,-0.015801429748535156,-0.00013819336891174316
1781792856409772000,20.29277197265625,-0.015372782945632935,0.006171226501464844,-0.0035907328128814697
1781792856458295600,20.341295654296875,0.005563750863075256,0.006552696228027344,0.00918126106262207
1781792856506818800,20.38981884765625,-0.0015656650066375732,-0.005394935607910156,0.012385398149490356
1781792856555342300,20.43834228515625,-0.0037409067153930664,0.004343986511230469,0.01694580912590027
1781792856603866000,20.4868662109375,-0.004664316773414612,-0.0017004013061523438,0.003697127103805542
1781792856652389400,20.535389404296875,0.010233938694000244,-0.008545875549316406,-0.0015157461166381836
1781792856700913000,20.583912841796874,-0.004183635115623474,-0.012660026550292969,0.006140381097793579
1781792856749436400,20.6324365234375,0.022851750254631042,0.0077228546142578125,0.006220608949661255
1781792856797959700,20.680959716796874,0.006629005074501038,-0.0034170150756835938,0.0037954747676849365
1781792856846483200,20.729483154296876,0.017271339893341064,0.007409095764160156,-0.045563727617263794
1781792856895007000,20.778007080078126,0.010970473289489746,0.013843536376953125,-0.04031175374984741
1781792856943530200,20.8265302734375,0.006019338965415955,-0.01580524444580078,-0.007570385932922363
1781792856992053800,20.8750537109375,0.003907501697540283,-0.00046539306640625,-0.014722645282745361
1781792857040577300,20.923577392578125,-0.0070279985666275024,0.011365890502929688,0.027526497840881348
1781792857089100800,20.972100830078126,-0.006736278533935547,-0.008455276489257812,0.052100419998168945
1781792857137624000,21.0206240234375,-0.015905529260635376,-0.0068569183349609375,0.06336790323257446
1781792857186147600,21.069147705078127,0.030748993158340454,0.04408454895019531,0.17099660634994507
1781792857234671000,21.117671142578125,0.023469895124435425,0.0007791519165039062,0.07551205158233643
1781792857283194600,21.166194580078123,0.03663022816181183,-0.049820899963378906,-0.04489946365356445
1781792857331718100,21.21471826171875,0.015245571732521057,-0.011140823364257812,-0.16409733891487122
1781792857380241700,21.26324169921875,0.009828433394432068,0.03178882598876953,-0.12146863341331482
1781792857428765000,21.311764892578125,-0.012996301054954529,-0.0007696151733398438,-0.12680929899215698
1781792857477288400,21.360288330078124,0.013123780488967896,0.022228240966796875,-0.1286700963973999
1781792857525812000,21.40881201171875,-0.013100430369377136,-0.02071666717529297,-0.10233578085899353
1781792857574335500,21.45733544921875,0.01328575611114502,-0.02569866180419922,-0.05017983913421631
1781792857622859000,21.50585888671875,0.03286287188529968,0.04979515075683594,0.0009059309959411621
1781792857671382500,21.554382568359376,0.042658016085624695,0.0032491683959960938,0.12473979592323303
1781792857719905800,21.60290576171875,0.024136334657669067,-0.05508995056152344,0.11902523040771484
1781792857768429300,21.65142919921875,0.033957839012145996,0.000522613525390625,0.09042099118232727
1781792857816952800,21.699952880859374,0.03096376359462738,-0.010821342468261719,0.01648673415184021
1781792857865476000,21.74847607421875,0.03626023232936859,-0.0010557174682617188,0.035197168588638306
1781792857913999600,21.79699951171875,0.04024513065814972,0.009148597717285156,0.0444108247756958
1781792857962523400,21.8455234375,0.02854648232460022,0.002239227294921875,0.04699200391769409
1781792858011046700,21.894046630859375,0.0076955705881118774,-0.01675128936767578,0.019449830055236816
1781792858059570200,21.942570068359377,0.000026226043701171875,0.0122222900390625,-0.005377352237701416
1781792858108093700,21.99109375,0.0013972967863082886,0.015976905822753906,-0.0006186962127685547
1781792858156617000,22.039616943359373,-0.003758952021598816,0.0013675689697265625,0.01352018117904663
1781792858205140500,22.088140380859375,-0.018395036458969116,-0.01812744140625,-0.0013853609561920166
1781792858253664000,22.1366640625,-0.024670332670211792,-0.012839317321777344,-0.05111008882522583
1781792858302187500,22.1851875,-0.029590629041194916,-0.0005578994750976562,-0.05046156048774719
1781792858350710800,22.233710693359374,0.025777995586395264,-0.036075592041015625,0.029784590005874634
1781792858399234300,22.282234375,0.037084028124809265,0.036185264587402344,0.04428905248641968
1781792858447757800,22.3307578125,0.06471377611160278,0.008990287780761719,0.00008192658424377441
1781792858496281300,22.37928125,0.06363704800605774,0.025701522827148438,0.041596919298172
1781792858544804900,22.427804931640626,0.062037378549575806,0.033942222595214844,0.04577934741973877
1781792858593328400,22.476328369140624,-0.01000252366065979,-0.010584831237792969,0.04856756329536438
1781792858641851600,22.5248515625,-0.05628859996795654,-0.003177642822265625,-0.04813578724861145
1781792858690375200,22.573375244140625,-0.020397178828716278,-0.007904052734375,-0.04429280757904053
1781792858738898700,22.621898681640626,-0.04152173548936844,-0.0017824172973632812,-0.07450270652770996
1781792858787422000,22.670421875,-0.03444536030292511,-0.012239456176757812,-0.07572901248931885
1781792858835945500,22.718945556640627,-0.04237476736307144,0.014122962951660156,0.01785847544670105
1781792858884469000,22.767468994140625,-0.0015157535672187805,0.014667510986328125,0.01859620213508606
1781792858932992300,22.8159921875,0.04054204374551773,-0.045383453369140625,-0.06114625930786133
1781792858981515800,22.864515869140625,0.0404832661151886,-0.02752208709716797,-0.10989642143249512
1781792859030039300,22.913039306640623,0.07524437457323074,0.07221221923828125,-0.08363479375839233
1781792859078562600,22.9615625,0.07042807340621948,0.007526397705078125,0.04475858807563782
1781792859127086000,23.010086181640624,0.02861572802066803,0.017953872680664062,0.10969159007072449
1781792859175609600,23.058609619140626,-0.021517634391784668,-0.029923439025878906,0.08979067206382751
1781792859224132900,23.1071328125,-0.06125883758068085,-0.02910614013671875,-0.01973789930343628
1781792859272656400,23.155656494140626,-0.03971085697412491,0.027345657348632812,-0.11194729804992676
1781792859321180200,23.20418017578125,-0.016350746154785156,0.00145721435546875,-0.06757479906082153
1781792859369703400,23.252703369140626,0.011213399469852448,0.010670661926269531,0.009851008653640747
1781792859418227000,23.30122705078125,0.01960483193397522,0.016498565673828125,0.033801376819610596
1781792859466750500,23.34975048828125,0.03178267180919647,-0.009267807006835938,0.0510406494140625
1781792859515273700,23.398273681640624,0.038407906889915466,0.0000553131103515625,0.07014620304107666
1781792859563797200,23.44679736328125,0.030074343085289,-0.00995635986328125,0.03323140740394592
1781792859612320800,23.49532080078125,0.01795816421508789,-0.01611042022705078,-0.015278011560440063
1781792859660844300,23.54384423828125,-0.007096201181411743,-0.012140274047851562,-0.020633220672607422
1781792859709367600,23.592367431640625,0.014737606048583984,-0.018566131591796875,-0.019271552562713623
1781792859757891000,23.64089111328125,0.007349848747253418,0.015072822570800781,-0.017335206270217896
1781792859806414600,23.68941455078125,0.014944508671760559,-0.008060455322265625,-0.01834893226623535
1781792859854937900,23.737937744140623,0.024522677063941956,0.011945724487304688,-0.000564277172088623
1781792859903461400,23.78646142578125,0.020883560180664062,0.027146339416503906,0.08469140529632568
1781792859951984600,23.834984619140624,-0.0076918452978134155,-0.014248847961425781,0.08609652519226074
1781792860000508000,23.8835078125,-0.005968183279037476,-0.03237628936767578,-0.06247857213020325
1781792860049031400,23.932031494140624,-0.008627399802207947,-0.009038925170898438,-0.19815129041671753
1781792860097555000,23.980554931640626,0.02961692214012146,0.029059410095214844,-0.12842828035354614
1781792860146078200,24.029078125,0.06758403778076172,0.03418254852294922,0.08125942945480347
1781792860194601700,24.077601806640626,0.049939870834350586,0.014629364013671875,0.22775539755821228
1781792860243125200,24.126125244140624,0.008192956447601318,-0.057181358337402344,0.14134082198143005
1781792860291648500,24.1746484375,-0.03920627385377884,-0.0322418212890625,-0.16270294785499573
1781792860340172000,24.223172119140624,-0.03986046463251114,0.043689727783203125,-0.2122384011745453
1781792860388695600,24.271695556640626,-0.0008059889078140259,0.053740501403808594,-0.012511521577835083
1781792860437218800,24.32021875,0.05262807011604309,-0.009949684143066406,0.18874898552894592
1781792860485742300,24.368742431640626,0.02138286828994751,-0.055558204650878906,0.061778515577316284
1781792860534265900,24.417265869140625,-0.005848824977874756,0.022751808166503906,-0.11774691939353943
1781792860582789000,24.4657890625,-0.01936640590429306,0.012575149536132812,-0.12932288646697998
1781792860631312600,24.514312744140625,0.005896672606468201,0.019542694091796875,0.01885819435119629
1781792860679836200,24.562836181640623,0.02725599706172943,-0.0022268295288085938,0.09210219979286194
1781792860728359400,24.611359375,0.030162811279296875,-0.033577919006347656,0.040315598249435425
1781792860776882700,24.659882568359375,0.01719348132610321,0.0017042160034179688,-0.01246371865272522
1781792860825406200,24.70840625,0.01477903127670288,0.008157730102539062,-0.07026040554046631
1781792860873929500,24.756929443359375,0.02656516432762146,0.01802825927734375,-0.014992594718933105
1781792860922453000,24.805452880859374,0.04579171538352966,0.0034227371215820312,0.041142284870147705
1781792860970976500,24.8539765625,0.03903736174106598,0.010149002075195312,0.0984342098236084
1781792861019499800,24.902499755859374,0.02558264136314392,-0.0130462646484375,0.029853343963623047
1781792861068023300,24.951023193359376,0.010826155543327332,-0.0062713623046875,0.033853352069854736
1781792861116546800,24.999546875,-0.0046800971031188965,0.01570892333984375,-0.050001561641693115
1781792861165070000,25.048070068359376,0.003832399845123291,0.010851860046386719,-0.019642770290374756
1781792861213593300,25.09659326171875,-0.00750124454498291,-0.034374237060546875,-0.010088682174682617
1781792861262116900,25.145116943359376,-0.020158551633358,0.012357711791992188,-0.02675306797027588
1781792861310640400,25.193640380859375,-0.011688098311424255,-0.0031337738037109375,-0.051735371351242065
1781792861359163600,25.24216357421875,-0.006567537784576416,-0.003753662109375,-0.04585602879524231
1781792861407687200,25.290687255859375,0.01788562536239624,-0.004273414611816406,-0.005150645971298218
1781792861456210400,25.33921044921875,0.02583061158657074,-0.011776924133300781,0.0057981014251708984
1781792861504733700,25.387733642578127,0.03514927625656128,0.0093536376953125,0.013622492551803589
1781792861601780700,25.48478076171875,0.017729714512825012,0.0032835006713867188,0.019921034574508667
1781792861650304000,25.533303955078125,0.01118960976600647,-0.0035686492919921875,0.015009969472885132
1781792861698827500,25.58182763671875,0.000797078013420105,-0.02478790283203125,-0.018754392862319946
1781792861747350800,25.630350830078125,0.01677180826663971,0.025483131408691406,-0.013918012380599976
1781792861795874000,25.6788740234375,0.00762079656124115,-0.00162506103515625,0.004301100969314575
1781792861844397600,25.7273974609375,0.02218414843082428,0.0072422027587890625,0.023184657096862793
1781792861892921000,25.775921142578124,-0.015542536973953247,-0.0038928985595703125,-0.00936022400856018
1781792861941444000,25.824444091796874,-0.005884431302547455,-0.006222724914550781,-0.014264285564422607
1781792861989967600,25.872967529296876,-0.01727309823036194,0.005695343017578125,-0.014755427837371826
1781792862038491100,25.9214912109375,0.0005683302879333496,0.0043621063232421875,-0.014233022928237915
1781792862087014400,25.970014404296876,0.013792946934700012,-0.0029993057250976562,-0.007876217365264893
1781792862135538000,26.018537841796874,0.013497725129127502,0.012202262878417969,-0.01342618465423584
1781792862184061200,26.067061279296876,0.03379844129085541,-0.0019636154174804688,0.015716552734375
1781792862232584400,26.11558447265625,0.015739858150482178,-0.0075016021728515625,-0.001967787742614746
1781792862281108000,26.16410791015625,0.01053590327501297,-0.000263214111328125,0.015322089195251465
1781792862329631500,26.212631591796875,0.010629720985889435,-0.015600204467773438,-0.018102645874023438
1781792862378154800,26.26115478515625,0.00108414888381958,0.018205642700195312,-0.030834496021270752
1781792862426678000,26.309677978515627,0.02119430899620056,-0.009184837341308594,-0.007813453674316406
1781792862475201500,26.358201416015625,-0.0007632970809936523,0.010449409484863281,0.012213826179504395
1781792862523724800,26.406724853515627,-0.0022878795862197876,-0.012353897094726562,0.006885260343551636
1781792862572248000,26.455248046875,-0.007227689027786255,-0.001239776611328125,0.0030466020107269287
1781792862620771600,26.503771484375,0.009272687137126923,0.0036869049072265625,0.00719943642616272
1781792862669294800,26.552294921875,0.0028325095772743225,-0.009316444396972656,0.013248026371002197
1781792862717818000,26.600818115234375,0.028696253895759583,0.0028829574584960938,0.006851851940155029
1781792862766341600,26.649341552734374,0.022602617740631104,0.018456459045410156,-0.017143607139587402
1781792862814865000,26.697864990234375,0.02700638771057129,-0.0054492950439453125,-0.006569325923919678
1781792862863388200,26.74638818359375,0.031452879309654236,0.002040863037109375,-0.00027871131896972656
1781792862911911700,26.79491162109375,0.018602870404720306,0.0032072067260742188,0.00859406590461731
1781792862960435000,26.84343505859375,0.015073947608470917,-0.00359344482421875,0.00008279085159301758
1781792863008958200,26.891958251953124,0.006732121109962463,0.0006780624389648438,-0.03447514772415161
1781792863057481700,26.940481689453126,0.02265927940607071,0.012942314147949219,0.006287038326263428
1781792863106005000,26.9890048828125,0.019088037312030792,-0.0008268356323242188,-0.005387365818023682
1781792863154528300,27.0375283203125,0.0012179166078567505,0.0005779266357421875,-0.006838083267211914
1781792863203051800,27.0860517578125,0.013074599206447601,-0.010908126831054688,0.010406792163848877
1781792863251575000,27.134574951171874,0.008849769830703735,-0.0077972412109375,-0.008365988731384277
1781792863300098300,27.183098388671876,0.02111966162919998,0.010004997253417969,0.020511150360107422
1781792863348621800,27.231621826171875,0.02936989814043045,0.0008258819580078125,-0.017277956008911133
1781792863397145000,27.28014501953125,0.005406737327575684,0.007380485534667969,-0.02164781093597412
1781792863445668400,27.32866845703125,0.011184118688106537,-0.011677742004394531,-0.004671275615692139
1781792863494191900,27.37719189453125,0.017389215528964996,0.0033245086669921875,0.021069258451461792
1781792863542715100,27.425715087890627,0.010074928402900696,0.0026369094848632812,0.033523738384246826
1781792863591238400,27.47423828125,0.011436715722084045,-0.016877174377441406,0.0009860396385192871
1781792863639761700,27.52276171875,0.016544245183467865,0.03628349304199219,-0.012062013149261475
1781792863688285000,27.571284912109373,0.0033945664763450623,-0.016739845275878906,0.004202783107757568
1781792863736808400,27.619808349609375,0.005220256745815277,-0.010960578918457031,0.03703731298446655
1781792863785331700,27.668331787109373,0.00899970531463623,0.016687393188476562,0.011600732803344727
1781792863833855000,27.71685498046875,0.0017625689506530762,-0.008475303649902344,0.0111311674118042
1781792863882378200,27.765378173828125,-0.010011516511440277,-0.0025453567504882812,-0.029448628425598145
1781792863930901800,27.81390185546875,-0.005630061030387878,0.001590728759765625,-0.004102349281311035
1781792863979425000,27.862425048828126,0.004049219191074371,0.006270408630371094,-0.020161926746368408
1781792864027948300,27.9109482421875,0.010193198919296265,0.0048828125,-0.01677757501602173
1781792864076471800,27.959471923828126,0.022924721240997314,-0.01050567626953125,-0.008603513240814209
1781792864124995000,28.0079951171875,0.016501717269420624,-0.001308441162109375,0.0062441229820251465
1781792864173518300,28.056518310546874,0.025145813822746277,-0.021821022033691406,-0.0008155107498168945
1781792864222041600,28.10504150390625,0.012130051851272583,0.004971504211425781,-0.0231778621673584
1781792864270565000,28.153565185546874,0.02953460067510605,0.015079498291015625,-0.010823667049407959
1781792864319088000,28.202088134765624,0.0076810941100120544,-0.004157066345214844,0.0019174814224243164
1781792864367611600,28.250611572265626,0.004706583917140961,0.00844573974609375,0.010563254356384277
1781792864416135000,28.299135009765624,-0.00684741884469986,-0.02037811279296875,-0.01606309413909912
1781792864464658200,28.347658203125,-0.0035764798521995544,0.00321197509765625,0.0047765374183654785
1781792864513181400,28.396181396484376,0.015425756573677063,0.009074211120605469,0.009676158428192139
1781792864561705000,28.444705078125,0.02911815047264099,-0.011875152587890625,0.02254951000213623
1781792864610228000,28.49322802734375,0.023802414536476135,0.015848159790039062,-0.01165914535522461
1781792864658751500,28.54175146484375,0.00908391922712326,-0.0017213821411132812,-0.023802876472473145
1781792864707274800,28.590274658203125,0.001955762505531311,0.005405426025390625,-0.01092076301574707
1781792864755798000,28.638798095703127,-0.0015412867069244385,-0.00728607177734375,0.007969975471496582
1781792864804321300,28.6873212890625,-0.00550331175327301,-0.0075855255126953125,0.006349742412567139
1781792864852844500,28.735844482421875,0.012137852609157562,0.0013666152954101562,-0.026044249534606934
1781792864901367800,28.784367919921873,0.010697811841964722,0.00478363037109375,-0.004787743091583252
1781792864949891000,28.83289111328125,0.018336571753025055,-0.0048351287841796875,0.01964622735977173
1781792864998414600,28.88141455078125,0.0105389803647995,-0.0018014907836914062,0.007383584976196289
1781792865046937600,28.9299375,0.007986493408679962,0.006659507751464844,-0.002610504627227783
1781792865095461000,28.978461181640625,0.0017921552062034607,-0.0022220611572265625,-0.0009472370147705078
1781792865143984400,29.026984375,0.0017506852746009827,0.00589752197265625,-0.013652265071868896
1781792865192507400,29.07550732421875,0.017094872891902924,0.0014734268188476562,-0.008789479732513428
1781792865241031000,29.124031005859376,0.006811175495386124,0.005812644958496094,-0.020656049251556396
1781792865289554200,29.17255419921875,0.03997420519590378,0.0018281936645507812,-0.00842064619064331
1781792865338077400,29.221077392578124,0.011988356709480286,-0.0017881393432617188,-0.002237677574157715
1781792865386600700,29.2696005859375,0.017285529524087906,-0.010352134704589844,-0.006384909152984619
1781792865435124000,29.3181240234375,0.006882671266794205,-0.015633583068847656,-0.006354808807373047
1781792865483647200,29.366647216796874,0.0374726764857769,0.036617279052734375,-0.016346096992492676
1781792865532170500,29.41517041015625,0.018441662192344666,-0.012468338012695312,-0.0039054155349731445
1781792865580694000,29.463694091796874,0.012196894735097885,-0.0013151168823242188,0.029957503080368042
1781792865629217000,29.512217041015624,0.019538216292858124,-0.0007076263427734375,0.013900578022003174
1781792865677740300,29.560740234375,0.017505522817373276,-0.0032835006713867188,0.016817092895507812
1781792865726263800,29.609263916015625,0.00822913646697998,0.018079757690429688,-0.004001796245574951
1781792865774786800,29.657786865234375,0.001273181289434433,-0.004408836364746094,-0.009887158870697021
1781792865823310000,29.70631005859375,-0.0018884465098381042,0.012303352355957031,-0.006042778491973877
1781792865871833600,29.75483349609375,-0.008156489580869675,0.017858505249023438,-0.006867706775665283
1781792865920356600,29.803356689453125,0.003881417214870453,-0.02712249755859375,0.09733781218528748
1781792865968879900,29.8518798828125,0.016372360289096832,-0.015232086181640625,0.05864989757537842
1781792866017403400,29.9004033203125,0.027837179601192474,0.0020818710327148438,-0.02088075876235962
1781792866065926400,29.948926513671875,0.05745909363031387,-0.017559051513671875,-0.009556591510772705
1781792866114449700,29.99744970703125,0.053966790437698364,0.019881248474121094,0.011683404445648193
1781792866162973200,30.04597314453125,0.05131161957979202,0.032093048095703125,-0.024382293224334717
1781792866211496200,30.09449609375,0.033696241676807404,-0.02629375457763672,0.11381542682647705
1781792866260019500,30.14301953125,0.03960657864809036,-0.012882232666015625,0.09612759947776794
1781792866308542700,30.191542724609373,-0.044519826769828796,0.009882926940917969,-0.024627327919006348
1781792866357066000,30.24006591796875,-0.13296733796596527,0.019666671752929688,-0.16055697202682495
1781792866405589200,30.28858935546875,-0.14725762605667114,-0.015646934509277344,-0.28366661071777344
1781792866454112500,30.337112548828124,-0.05714024603366852,-0.012491226196289062,-0.1496228575706482
1781792866502635800,30.3856357421875,0.03259393572807312,-0.0007152557373046875,-0.00021857023239135742
1781792866551159000,30.434158935546876,0.05699412524700165,-0.0025568008422851562,0.08057278394699097
1781792866599682300,30.482682373046874,0.11129924654960632,0.01725006103515625,0.06166219711303711
1781792866648205300,30.531205322265624,0.08381765335798264,0.04418373107910156,0.01664835214614868
1781792866696728800,30.579728759765626,0.054184362292289734,0.019782066345214844,0.006887912750244141
1781792866745252000,30.628252197265624,0.025577686727046967,-0.025177001953125,-0.0006979107856750488
1781792866793775000,30.676775146484374,-0.024115122854709625,-0.016303062438964844,0.008051693439483643
1781792866842298400,30.72529833984375,-0.03781688213348389,-0.01876544952392578,-0.02970266342163086
1781792866890822000,30.77382177734375,-0.04045291244983673,-0.02545166015625,0.02500423789024353
1781792866939345000,30.822344970703124,0.008248887956142426,-0.05695533752441406,-0.0121079683303833
1781792866987868200,30.8708681640625,0.03988449275493622,0.037863731384277344,0.002892225980758667
1781792867036391400,30.919391357421876,0.044570595026016235,0.06297874450683594,0.040691524744033813
1781792867084914400,30.96791455078125,0.03054199367761612,0.0021581649780273438,-0.038874924182891846
1781792867133438000,31.01643798828125,-0.018636226654052734,-0.042624473571777344,-0.021472156047821045
1781792867181961200,31.064961181640626,-0.0010364800691604614,0.008502960205078125,0.03457978367805481
1781792867230484200,31.113484130859376,-0.03748369961977005,0.017171859741210938,-0.04952526092529297
1781792867279007500,31.162007568359375,-0.0033651068806648254,0.008799552917480469,-0.018220722675323486
1781792867327530800,31.21053076171875,0.03681126981973648,-0.047171592712402344,0.0742364227771759
1781792867376053800,31.2590537109375,0.06351669132709503,-0.01765155792236328,0.1105685830116272
1781792867424577300,31.307577392578125,0.057108402252197266,0.05662250518798828,0.057613909244537354
1781792867473100500,31.3561005859375,0.0617024302482605,-0.00257110595703125,0.01626524329185486
1781792867521623600,31.40462353515625,0.005050674080848694,0.017465591430664062,0.012669503688812256
1781792867570146800,31.453146728515627,-0.03348812460899353,-0.006327629089355469,-0.048008233308792114
1781792867618670000,31.501670166015625,-0.020976096391677856,-0.04052162170410156,-0.0757511556148529
1781792867667193000,31.550193115234375,0.02918551117181778,-0.017876625061035156,-0.0076570212841033936
1781792867715716600,31.598716552734373,0.023943446576595306,0.03547477722167969,-0.02017274498939514
1781792867764240000,31.647239990234375,0.04971778392791748,0.0729684829711914,-0.09051686525344849
1781792867812763000,31.695762939453125,0.014601081609725952,0.02361774444580078,-0.09914708137512207
1781792867861286100,31.7442861328125,-0.009559154510498047,-0.06229400634765625,-0.12436917424201965
1781792867909809400,31.792809326171874,-0.009569160640239716,-0.009816169738769531,0.027776479721069336
1781792867958332400,31.84133251953125,0.023326806724071503,-0.018256187438964844,0.06905022263526917
1781792868006855700,31.889855712890625,0.09693668782711029,-0.012314796447753906,0.14721152186393738
1781792868055379000,31.93837890625,0.06689512729644775,-0.007477760314941406,0.07764565944671631
1781792868103902000,31.98690185546875,0.07083475589752197,0.02074432373046875,0.0711890459060669
1781792868152425200,32.03542529296875,0.03474341332912445,0.0003108978271484375,0.14988267421722412
1781792868200948500,32.083948486328126,-0.021271444857120514,-0.05045890808105469,0.10119211673736572
1781792868249471700,32.1324716796875,-0.06740328669548035,-0.07421398162841797,0.014413118362426758
1781792868297995000,32.1809951171875,-0.029731333255767822,0.008510589599609375,-0.08167383074760437
1781792868346518300,32.22951831054687,0.07048904895782471,0.1176004409790039,0.017781972885131836
1781792868395041300,32.27804125976562,0.09066053479909897,0.09600257873535156,0.08122754096984863
1781792868443564500,32.326564453125,0.02667178213596344,-0.030138015747070312,0.003819078207015991
1781792868492087800,32.375087890625,-0.05643004924058914,-0.07718181610107422,-0.17223495244979858
1781792868540610800,32.42361083984375,-0.06924906373023987,0.055068016052246094,-0.29658710956573486
1781792868589134000,32.472134033203126,-0.059867437928915024,0.024786949157714844,-0.18751311302185059
1781792868637657300,32.5206572265625,-0.029661789536476135,0.002315521240234375,-0.038717567920684814
1781792868686180400,32.56918041992188,-0.004628695547580719,-0.0348052978515625,-0.025119751691818237
1781792868734703600,32.61770361328125,0.01714455336332321,-0.016855239868164062,0.04634714126586914
1781792868783227000,32.66622680664062,0.025621086359024048,-0.016157150268554688,0.002403765916824341
1781792868831750000,32.71475,0.04810841381549835,0.00762939453125,0.0853123664855957
1781792868880273200,32.763273193359375,0.03810669481754303,0.010981559753417969,0.07389619946479797
1781792868928796400,32.81179638671875,0.003248050808906555,-0.014811515808105469,0.05335012078285217
1781792868977319400,32.8603193359375,0.022084325551986694,-0.013514518737792969,0.020014792680740356
1781792869025842700,32.9088427734375,0.042623475193977356,0.009111404418945312,-0.019434362649917603
1781792869074366000,32.95736596679688,-0.01615312695503235,0.005748748779296875,-0.041990429162979126
1781792869122889000,33.00588891601563,0.013184309005737305,0.01987457275390625,0.02058929204940796
1781792869171412200,33.054412109375,-0.011612161993980408,-0.029494285583496094,0.014774471521377563
1781792869219935500,33.102935546875,0.022585049271583557,0.016027450561523438,0.0007100105285644531
1781792869268458500,33.15145849609375,0.006594642996788025,-0.0057964324951171875,0.03410696983337402
1781792869316981800,33.199981689453125,0.028302118182182312,0.0027179718017578125,-0.0001119077205657959
1781792869365504800,33.2485048828125,0.04133649170398712,0.024109840393066406,-0.02035173773765564
1781792869414028000,33.29702807617188,0.026440441608428955,-0.022515296936035156,-0.01216629147529602
1781792869462551300,33.34555126953125,0.03589051961898804,0.0087890625,-0.028265804052352905
1781792869511074300,33.39407421875,0.022895097732543945,0.0015935897827148438,-0.009985268115997314
1781792869559597600,33.44259765625,0.021982863545417786,-0.021238327026367188,-0.027765005826950073
1781792869608120800,33.49112084960937,0.02901579439640045,0.0499114990234375,-0.012337714433670044
1781792869656643800,33.53964379882812,-0.008212745189666748,-0.025620460510253906,-0.004778861999511719
1781792869705167000,33.5881669921875,-0.006942838430404663,0.000301361083984375,0.0033698678016662598
1781792869753690400,33.6366904296875,-0.008387401700019836,-0.012393951416015625,0.011032819747924805
1781792869802213400,33.68521337890625,-0.0060210078954696655,-0.01697826385498047,0.007271260023117065
1781792869850736400,33.733736328125,0.00706055760383606,0.009920120239257812,0.021355420351028442
1781792869899259600,33.782259765625,0.018113404512405396,-0.006194114685058594,0.015063464641571045
1781792869947782700,33.83078271484375,0.01900447905063629,0.020669937133789062,0.009017914533615112
1781792869996306000,33.87930590820312,0.016022205352783203,0.007579803466796875,0.0019054412841796875
1781792870044829200,33.9278291015625,0.006298467516899109,-0.00620269775390625,0.016568660736083984
1781792870093352200,33.976352294921874,0.007462546229362488,-0.007419586181640625,0.03322508931159973
1781792870141875500,34.02487548828125,-0.0030454397201538086,-0.011144638061523438,-0.001176297664642334
1781792870190398700,34.073398681640626,0.002116084098815918,0.0121307373046875,-0.04381662607192993
1781792870238921700,34.121921630859376,0.017680630087852478,0.009837150573730469,0.017476260662078857
1781792870287444700,34.17044482421875,0.02416810393333435,0.009897232055664062,0.012726515531539917
1781792870335968000,34.21896801757813,0.020608916878700256,0.0016126632690429688,-0.0030075013637542725
1781792870384491000,34.26749096679688,0.027567028999328613,-0.008617401123046875,0.0030635595321655273
1781792870433014300,34.31601416015625,0.01087932288646698,-0.005706787109375,-0.018855512142181396
1781792870481537500,34.36453759765625,0.0072202980518341064,-0.0056629180908203125,-0.012948423624038696
1781792870530060500,34.413060546875,0.01911349594593048,0.005349159240722656,-0.012738853693008423
1781792870578583600,34.46158349609375,0.017110273241996765,0.004506111145019531,-0.018150657415390015
1781792870627106800,34.51010693359375,0.010128304362297058,-0.001983642578125,-0.030735284090042114
1781792870675629800,34.5586298828125,0.02339814603328705,-0.0000591278076171875,-0.013386398553848267
1781792870724153000,34.607153076171876,0.022775158286094666,-0.00356292724609375,0.004740864038467407
1781792870772676400,34.65567626953125,0.029003307223320007,-0.0032787322998046875,-0.002681434154510498
1781792870821199400,34.70419946289063,0.05568581819534302,0.015406608581542969,0.016917049884796143
1781792870869722400,34.75272241210938,0.04145006835460663,0.004025459289550781,0.01968175172805786
1781792870918245600,34.80124560546875,0.0330011248588562,-0.006855964660644531,0.02606561779975891
1781792870966768600,34.8497685546875,0.015075892210006714,-0.010692596435546875,0.006187856197357178
1781792871015292000,34.8982919921875,0.013872995972633362,-0.01600360870361328,0.005297482013702393
1781792871063815200,34.946815185546875,0.0071602463722229,0.008556365966796875,-0.0019621849060058594
1781792871112338000,34.995337890625,-0.0020328760147094727,0.00208282470703125,-0.011795908212661743
1781792871160861200,35.043861083984375,0.011085577309131622,0.00666046142578125,-0.000031888484954833984
1781792871209384400,35.09238452148438,0.010657034814357758,-0.004927635192871094,-0.005585849285125732
1781792871257907500,35.14090747070313,-0.001974940299987793,-0.008978843688964844,-0.02092033624649048
1781792871306430500,35.18943041992188,0.0020488575100898743,0.009695053100585938,-0.0035970211029052734
1781792871354953500,35.23795336914063,-0.004302486777305603,-0.00560760498046875,0.015245288610458374
1781792871403476700,35.28647680664063,0.0061689093708992004,-0.014885902404785156,0.0018002688884735107
1781792871452000000,35.335,0.008596688508987427,0.009928703308105469,-0.04192817211151123
1781792871500523000,35.38352294921875,0.006982743740081787,0.02660369873046875,-0.007095664739608765
1781792871549046000,35.4320458984375,0.019633285701274872,-0.010747909545898438,0.029862940311431885
1781792871597569300,35.4805693359375,0.0033706650137901306,0.018697738647460938,0.0034373998641967773
1781792871646092300,35.52909228515625,0.01396825909614563,-0.007008552551269531,0.007652223110198975
1781792871694615300,35.577615234375,-0.013272017240524292,-0.012587547302246094,-0.016167253255844116
1781792871743138600,35.626138671875,0.006090249866247177,0.020462989807128906,-0.00871509313583374
1781792871791661600,35.67466162109375,0.010854993015527725,-0.026021957397460938,-0.007850855588912964
1781792871840184800,35.72318481445313,0.02185908704996109,0.0271148681640625,-0.01929616928100586
1781792871888707800,35.77170776367188,0.021404296159744263,0.008196830749511719,-0.006504476070404053
1781792871937230800,35.82023095703125,0.010875407606363297,-0.01749706268310547,-0.0034012198448181152
1781792871985754000,35.86875415039062,0.003466736525297165,-0.009877204895019531,0.01682823896408081
1781792872034277000,35.91727709960937,0.00022282451391220093,-0.004207611083984375,0.001103729009628296
1781792872082800000,35.96580004882812,0.010258786380290985,-0.0038156509399414062,-0.02349153161048889
1781792872131323400,36.014323486328124,0.015607833862304688,0.024616241455078125,-0.003152191638946533
1781792872179846700,36.0628466796875,0.002134915441274643,-0.007605552673339844,0.0009796619415283203
1781792872228369400,36.111369384765624,-0.004127234220504761,0.005850791931152344,0.014797866344451904
1781792872276892700,36.159892578125,-0.012027591466903687,0.000591278076171875,-0.014508098363876343
1781792872325416000,36.208416015625,-0.013519134372472763,-0.012578964233398438,-0.00024366378784179688
1781792872373938700,36.256938720703126,-0.01293613389134407,-0.0009222030639648438,-0.010792762041091919
1781792872422462000,36.3054619140625,-0.0032462216913700104,-0.011765480041503906,-0.0023227334022521973
1781792872470985200,36.35398510742188,0.017061874270439148,0.01343536376953125,-0.01499512791633606
1781792872519508000,36.40250805664063,0.023645929992198944,-0.00034046173095703125,-0.002385169267654419
1781792872568031200,36.45103125,0.022857189178466797,0.00371551513671875,0.012410581111907959
1781792872616554500,36.49955444335937,0.021656915545463562,-0.007920265197753906,0.016032934188842773
1781792872665077200,36.5480771484375,0.014747224748134613,-0.012030601501464844,-0.007240325212478638
1781792872713600500,36.5966005859375,0.02102922648191452,0.007897377014160156,-0.03989419341087341
1781792872762123500,36.64512353515625,0.02646007388830185,0.010852813720703125,-0.0011040866374969482
1781792872810646500,36.693646484375,0.028753891587257385,-0.003559112548828125,0.024845361709594727
1781792872859169800,36.742169677734374,0.01170232892036438,-0.008000373840332031,-0.006305098533630371
1781792872907692800,36.79069287109375,0.013952292501926422,0.0050411224365234375,-0.011234521865844727
1781792872956215800,36.8392158203125,0.02020786702632904,0.0016384124755859375,0.023654431104660034
1781792873004739000,36.887739013671876,0.02545756846666336,-0.006314277648925781,0.005599766969680786
1781792873053262000,36.936261962890626,0.025409087538719177,-0.0009002685546875,-0.0006847977638244629
1781792873101785000,36.98478515625,0.023647882044315338,0.002300262451171875,-0.017022013664245605
1781792873150308000,37.03330810546875,0.016835980117321014,-0.0000286102294921875,-0.01711905002593994
1781792873198831000,37.0818310546875,0.020084187388420105,-0.0008563995361328125,-0.005818545818328857
1781792873247354400,37.13035424804688,0.01481986790895462,0.0019178390502929688,0.00661274790763855
1781792873295877400,37.17887744140625,0.023871667683124542,-0.00083160400390625,0.0065784454345703125
1781792873344400400,37.227400390625,0.01466502994298935,-0.015241622924804688,-0.024242818355560303
1781792873392923400,37.27592333984375,0.02073303610086441,0.006218910217285156,-0.04200869798660278
1781792873441446700,37.32444677734375,0.02179349958896637,0.00567626953125,0.005959600210189819
1781792873489969400,37.37296948242187,0.009949326515197754,-0.004374504089355469,0.017473578453063965
1781792873538492700,37.42149267578125,0.014749862253665924,0.011769294738769531,0.00940394401550293
1781792873587016000,37.470015869140624,0.020396962761878967,-0.00850677490234375,0.003230452537536621
1781792873635538700,37.51853857421875,0.00625716894865036,0.007157325744628906,0.000758737325668335
1781792873684062000,37.56706201171875,0.020246602594852448,0.009195327758789062,0.012306928634643555
1781792873781108000,37.66410791015625,0.014512374997138977,0.007060050964355469,0.011774003505706787
1781792873829631000,37.712630859375,0.0029448121786117554,0.008250236511230469,-0.009182095527648926
1781792873878154200,37.761154296875,0.01107478141784668,0.008464813232421875,-0.005789220333099365
1781792873926677000,37.809677001953126,-0.005412720143795013,-0.004935264587402344,0.001699894666671753
1781792873975200300,37.8582001953125,0.000012911856174468994,-0.010648727416992188,-0.007536441087722778
1781792874023723300,37.90672314453125,0.014293529093265533,0.011759757995605469,-0.020336955785751343
1781792874072246300,37.95524633789063,0.004751808941364288,0.0060272216796875,-0.0043042004108428955
1781792874120769300,38.00376928710938,0.010519884526729584,-0.008898735046386719,-0.002973407506942749
1781792874169292300,38.05229223632813,-0.006592974066734314,-0.01425933837890625,-0.01322665810585022
1781792874217815300,38.10081518554688,0.0058350712060928345,-0.0011911392211914062,0.002812802791595459
1781792874266338600,38.14933862304687,-0.00851760059595108,0.011246681213378906,-0.005116850137710571
1781792874314861600,38.19786157226562,0.016975753009319305,-0.0014753341674804688,0.0030366480350494385
1781792874363384600,38.24638452148437,0.02222476154565811,0.0000133514404296875,-0.005481034517288208
1781792874411907600,38.29490747070312,0.01882171630859375,0.011074066162109375,-0.00965145230293274
1781792874460430600,38.3434306640625,0.01740117371082306,0.0067138671875,0.01463344693183899
1781792874508953600,38.39195361328125,0.025253355503082275,-0.0091552734375,-0.0018844902515411377
1781792874557476900,38.440476806640625,0.002721041440963745,-0.006213188171386719,0.005965679883956909
1781792874605999600,38.48899951171875,-0.0014868974685668945,-0.005229949951171875,0.023976445198059082
1781792874654523000,38.53752294921875,0.0019131004810333252,-0.02274799346923828,-0.023646175861358643
1781792874703046000,38.5860458984375,0.051279693841934204,0.0331268310546875,0.021520018577575684
1781792874751569000,38.63456884765625,0.02843545377254486,-0.018741607666015625,-0.00035431981086730957
1781792874800092000,38.683091796875,0.03239081799983978,0.008785247802734375,-0.003351151943206787
1781792874848615200,38.731615234375,0.0278654545545578,0.010716438293457031,-0.001520782709121704
1781792874897138000,38.78013793945313,0.020155444741249084,-0.014719009399414062,-0.016460925340652466
1781792874945661200,38.8286611328125,0.026301309466362,0.014665603637695312,-0.0072519779205322266
1781792874994184200,38.87718408203125,0.004063829779624939,-0.010184288024902344,-0.02225378155708313
1781792875042707000,38.92570703125,0.009553849697113037,0.01575756072998047,-0.024389952421188354
1781792875091230200,38.97423022460937,0.012656807899475098,0.0004711151123046875,-0.019593656063079834
1781792875139753200,39.02275317382812,0.007045641541481018,0.004853248596191406,-0.009123772382736206
1781792875188276200,39.07127612304687,0.006236240267753601,0.00010776519775390625,-0.006614118814468384
1781792875236799200,39.11979931640625,0.008778765797615051,-0.012108802795410156,0.005565434694290161
1781792875285322200,39.168322265625,0.010746031999588013,-0.00010395050048828125,-0.03317803144454956
1781792875333845200,39.21684521484375,0.023211002349853516,0.020112037658691406,0.02942943572998047
1781792875382368300,39.2653681640625,0.011378616094589233,-0.016160964965820312,0.02950182557106018
1781792875430891300,39.31389135742187,0.003572136163711548,0.01726531982421875,0.014474719762802124
1781792875479414300,39.36241430664062,0.018247395753860474,-0.008723258972167969,0.006007373332977295
1781792875527937500,39.4109375,0.0024232715368270874,0.0038709640502929688,-0.01993122696876526
1781792875576460300,39.45946020507812,0.0028600990772247314,-0.0056743621826171875,-0.015523314476013184
1781792875624983300,39.5079833984375,0.010488957166671753,-0.009068489074707031,-0.008061617612838745
1781792875673506600,39.556506591796875,0.02271980047225952,0.006213188171386719,0.007113337516784668
1781792875722029300,39.605029296875,0.028337150812149048,0.012740135192871094,-0.01246410608291626
1781792875770552600,39.653552490234375,0.037550196051597595,0.0020971298217773438,0.004430413246154785
1781792875819075600,39.70207568359375,0.026797667145729065,-0.012485504150390625,0.0349460244178772
1781792875867598300,39.750598388671875,0.021215632557868958,-0.02716827392578125,-0.000010132789611816406
1781792875916121600,39.79912158203125,0.03437544405460358,0.02862262725830078,-0.013034403324127197
1781792875964644600,39.84764453125,0.035079896450042725,0.02010059356689453,0.047765374183654785
1781792876013167400,39.89616748046875,0.039948418736457825,0.0052852630615234375,0.02816501259803772
1781792876061690600,39.94469067382813,0.029403239488601685,-0.010529518127441406,0.021019309759140015
1781792876110213600,39.99321362304688,0.014537632465362549,-0.008793830871582031,-0.016069501638412476
1781792876158736400,40.041736328125,0.007181227207183838,-0.0067615509033203125,-0.01326170563697815
1781792876207259600,40.090259765625,-0.0008383393287658691,-0.025040626525878906,0.004344195127487183
1781792876255782700,40.13878271484375,0.01082475483417511,-0.009802818298339844,-0.018249988555908203
1781792876304305700,40.1873056640625,0.026006579399108887,0.02651214599609375,-0.022876441478729248
1781792876352828700,40.23582861328125,0.013026058673858643,-0.017786026000976562,0.022934794425964355
1781792876401351700,40.2843515625,-0.0457502156496048,-0.04807472229003906,0.029163986444473267
1781792876449874700,40.33287475585937,-0.0693812146782875,-0.018815040588378906,0.056870341300964355
1781792876498397700,40.38139770507812,-0.08654732257127762,-0.054900169372558594,0.002665877342224121
1781792876546920400,40.42992041015625,-0.11368981003761292,-0.05324554443359375,0.05995708703994751
1781792876595443700,40.47844360351562,-0.12225206941366196,-0.04519367218017578,0.07033687829971313
1781792876643966700,40.526966796875,-0.008439037948846817,0.07932376861572266,0.12645292282104492
1781792876692489500,40.57548950195312,0.019667282700538635,0.12932109832763672,0.15801894664764404
1781792876741012500,40.62401245117187,0.1336899846792221,0.05740833282470703,0.30715686082839966
1781792876789535700,40.67253564453125,0.1957472264766693,0.03885459899902344,0.36731743812561035
1781792876838058500,40.72105859375,0.27347439527511597,0.06870079040527344,0.1979445219039917
1781792876886581500,40.76958154296875,0.2036016583442688,0.07807159423828125,0.042527973651885986
1781792876935104500,40.8181044921875,0.0884091854095459,0.046959877014160156,-0.12558448314666748
1781792876983627500,40.86662744140625,0.03656027093529701,0.012142181396484375,-0.06016206741333008
1781792877032150500,40.915150634765624,-0.1109243780374527,-0.07156562805175781,0.10889717936515808
1781792877080673500,40.963673583984374,-0.16415630280971527,-0.13223743438720703,0.03044089674949646
1781792877129196500,41.012196533203124,0.17446990311145782,-0.08387565612792969,-0.3596259355545044
1781792877177719600,41.060719482421874,0.44867798686027527,-0.13240718841552734,-0.41756218671798706
1781792877226242600,41.10924267578125,0.8007821440696716,-0.3185739517211914,-0.01268845796585083
1781792877274765600,41.157765625,0.8479323387145996,-0.02196788787841797,-0.49957966804504395
1781792877323288600,41.20628857421875,0.7236987352371216,0.026865005493164062,-0.04631441831588745
1781792877371811300,41.254811279296874,0.698313295841217,0.010286331176757812,0.907369077205658
1781792877420334300,41.303334228515624,0.8179605603218079,0.06900596618652344,0.5153116583824158
1781792877468857600,41.351857666015626,0.981451153755188,0.2865152359008789,-0.06575894355773926
1781792877517380400,41.40038037109375,1.183067798614502,0.3402690887451172,0.03594326972961426
1781792877565903400,41.4489033203125,1.5770459175109863,0.1557903289794922,0.07162487506866455
1781792877614426400,41.49742626953125,1.6300945281982422,0.0711660385131836,-0.22990000247955322
1781792877662949400,41.545949462890626,1.610687017440796,-0.26914310455322266,-1.0255777835845947
1781792877711472400,41.594472412109376,1.6952005624771118,-1.3012475967407227,-1.9856458902359009
1781792877759995400,41.642995361328126,3.3097028732299805,-1.7229976654052734,-0.42563819885253906
1781792877808518100,41.69151806640625,3.006927013397217,-0.41481494903564453,1.5358693599700928
1781792877857041400,41.74004150390625,0.11620980501174927,1.4544486999511719,-0.6073182225227356
1781792877905564400,41.788564453125,-1.6698381900787354,1.2513608932495117,-0.05092102289199829
1781792877954087200,41.837087158203126,-2.4615683555603027,-0.8733968734741211,-0.009950287640094757
1781792878002610200,41.885610107421876,-1.356117606163025,0.7527408599853516,0.15129828453063965
1781792878051133200,41.93413330078125,-0.1928313970565796,-0.5715618133544922,-1.001033067703247
1781792878099656200,41.98265625,-1.2351802587509155,0.3281402587890625,-1.3844852447509766
1781792878148179200,42.03117919921875,0.0789610743522644,1.122488021850586,-1.432511568069458
1781792878196702200,42.0797021484375,-0.0481925904750824,0.649928092956543,-1.5436902046203613
1781792878245225000,42.128224853515626,0.7434530258178711,1.534454345703125,-0.8642140030860901
1781792878293748200,42.17674829101563,1.5146617889404297,1.9287219047546387,0.4898938536643982
1781792878342271000,42.22527099609375,1.8475772142410278,1.1417474746704102,2.2501235008239746
1781792878390794000,42.2737939453125,1.6133155822753906,-2.799570083618164,2.272592544555664
1781792878439317000,42.32231689453125,-0.5271278619766235,-4.50169563293457,2.1271932125091553
1781792878487840000,42.37084008789063,-1.6591155529022217,0.13982486724853516,-3.424288272857666
1781792878536363000,42.41936303710938,-1.9587525129318237,-1.9236478805541992,-4.605438232421875
1781792878584886000,42.46788598632813,-1.6491808891296387,-2.401402473449707,-0.3419889211654663
1781792878633408800,42.51640869140625,-0.005025267601013184,0.7872552871704102,-3.1223063468933105
1781792878681931800,42.56493188476563,0.5368354320526123,2.558928966522217,-1.5725791454315186
1781792878730454800,42.61345483398438,0.14302581548690796,1.3026456832885742,-0.45526260137557983
1781792878778977800,42.66197778320313,1.0630223751068115,0.6270256042480469,0.22660847008228302
1781792878827500800,42.71050073242188,1.9020555019378662,0.1710968017578125,-0.24287950992584229
1781792878876023800,42.75902392578125,2.970402240753174,1.912766456604004,-0.691450834274292
1781792878924546600,42.80754663085938,2.389324903488159,-0.9482088088989258,-2.764431953430176
1781792878973069600,42.85606958007813,4.1814866065979,-3.6118555068969727,-1.5871598720550537
1781792879021592300,42.90459228515625,-0.08127196133136749,2.390496253967285,2.0960006713867188
1781792879070115600,42.95311547851563,-2.3319733142852783,2.7237367630004883,0.86201012134552
1781792879118638600,43.001638671875,-3.551210880279541,-5.735773086547852,-2.79679536819458
1781792879167161300,43.05016137695313,-4.758702278137207,-3.941518783569336,0.28512829542160034
1781792879215684400,43.09868432617188,-0.6618466377258301,0.5057706832885742,3.9183647632598877
1781792879264207400,43.14720727539063,0.5388387441635132,2.504936695098877,-0.766365110874176
1781792879312730000,43.19573022460938,-0.13787531852722168,2.2146530151367188,-2.3233842849731445
1781792879361253400,43.24425341796875,0.8209030628204346,3.0942678451538086,-1.8927536010742188
1781792879409776400,43.2927763671875,1.8106253147125244,3.6849632263183594,-1.0731775760650635
1781792879458299100,43.34129907226563,1.2651762962341309,0.06438064575195312,2.097710609436035
1781792879506822100,43.389822265625,0.48277753591537476,-5.4536943435668945,3.1688807010650635
1781792879555345200,43.43834521484375,0.07791495323181152,-3.155636787414551,2.6938672065734863
1781792879603868000,43.48686791992188,-2.9852051734924316,-3.4180450439453125,-5.954978942871094
1781792879652391000,43.53539086914063,-1.3973109722137451,1.431528091430664,-3.4834887981414795
1781792879700914000,43.58391381835938,-1.5938371419906616,-2.3292369842529297,-0.3985411822795868
1781792879749437000,43.63243701171875,-0.08184894174337387,1.9368047714233398,-2.6482298374176025
1781792879797960000,43.6809599609375,1.6920688152313232,3.861074447631836,-1.1724047660827637
1781792879846482700,43.72948266601563,0.6114084720611572,0.9575328826904297,0.000037398189306259155
1781792879895005700,43.77800561523438,1.1472247838974,-0.456512451171875,0.0781085416674614
1781792879943528700,43.82652880859375,2.251849412918091,0.11171245574951172,-0.19890566170215607
1781792879992051500,43.87505151367188,3.6660962104797363,1.6222972869873047,-0.723979651927948
1781792880040574500,43.92357446289063,3.3924999237060547,-1.2583122253417969,-1.9776642322540283
1781792880089097500,43.97209741210938,1.578188419342041,0.25791072845458984,0.2676096558570862
1781792880137620200,44.0206201171875,-2.4258060455322266,1.3183708190917969,2.954021453857422
1781792880186143200,44.06914331054688,-3.5665597915649414,-5.595972061157227,-1.1797631978988647
1781792880234666200,44.11766625976563,-5.871196269989014,-5.7434492111206055,-0.7401052713394165
1781792880283189200,44.16618920898438,-0.9301589727401733,0.6479873657226562,3.4346561431884766
1781792880331712300,44.21471215820313,-0.15661954879760742,3.0740065574645996,-0.2579268217086792
1781792880380235300,44.2632353515625,-0.5353150367736816,3.330512046813965,-1.78242826461792
1781792880428758000,44.31175805664063,0.53434818983078,3.569943904876709,-0.9999818801879883
1781792880477281000,44.36028100585938,2.604274034500122,3.7026185989379883,0.6181007623672485
1781792880525803800,44.4088037109375,1.7064275741577148,0.0816497802734375,3.7272212505340576
1781792880574326800,44.45732690429688,-0.3038696050643921,-7.945125579833984,2.5444095134735107
1781792880622849800,44.50584985351563,-2.1111512184143066,-1.3727531433105469,-0.03126448392868042
1781792880671372500,44.55437255859375,-2.5100693702697754,-2.350693702697754,-7.291314125061035
1781792880719895600,44.6028955078125,-2.5268096923828125,-4.271703720092773,-1.5615062713623047
1781792880768418800,44.65141870117188,0.2892024517059326,1.7178287506103516,-2.29878568649292
1781792880816941600,44.69994165039063,1.3695787191390991,4.053332805633545,-2.0703110694885254
1781792880865464600,44.74846459960938,1.3489598035812378,2.0790395736694336,-0.22150728106498718
1781792880913987600,44.79698754882813,1.3448314666748047,0.08627128601074219,1.4115440845489502
1781792880962510300,44.84551025390625,2.2557525634765625,0.1607189178466797,2.0522501468658447
1781792881011033300,44.89403344726563,4.305211067199707,2.137880325317383,1.0992519855499268
1781792881059556400,44.94255639648438,3.039846420288086,-0.14511489868164062,-1.5161256790161133
1781792881108079000,44.9910791015625,2.113987922668457,-2.649219512939453,-0.6614667177200317
1781792881156602000,45.03960205078125,-1.5095505714416504,1.7966508865356445,2.8950748443603516
1781792881205125000,45.088125,-2.7624101638793945,-4.945324897766113,-0.2719861567020416
1781792881253648000,45.13664794921875,-6.208693504333496,-6.974428176879883,-2.2526235580444336
1781792881302171000,45.1851708984375,-1.3971134424209595,0.20900440216064453,1.9268505573272705
1781792881350693600,45.233693603515626,-0.2561064064502716,4.387914657592773,-0.8145256638526917
1781792881399216600,45.282216552734376,-0.6428292393684387,4.9407453536987305,-2.7730154991149902
1781792881447739600,45.33073974609375,0.14676111936569214,4.7621283531188965,-1.610753059387207
1781792881496262400,45.379262451171876,2.7746529579162598,3.098825454711914,1.357120156288147
1781792881544785400,45.427785400390626,0.551975429058075,-3.607938766479492,5.908685684204102
1781792881593308400,45.476308349609376,-0.20299553871154785,-8.931229591369629,2.9512088298797607
1781792881641831200,45.5248310546875,-1.5968656539916992,0.5750846862792969,-2.603149890899658
1781792881690354200,45.573354248046876,-3.184225082397461,-1.9683351516723633,-8.129582405090332
1781792881738877200,45.621877197265626,-2.197143793106079,-3.799679756164551,0.9338375926017761
1781792881787401000,45.67040087890625,0.14200520515441895,0.7217550277709961,-2.153008460998535
1781792881835923700,45.718923828125,1.1085361242294312,3.7485976219177246,-2.5286502838134766
1781792881884446700,45.76744677734375,1.3989843130111694,2.9086437225341797,-0.373303085565567
1781792881932969700,45.8159697265625,1.0220136642456055,0.9358139038085938,1.3529037237167358
1781792881981492500,45.86449243164063,2.2419934272766113,-0.09053707122802734,1.865143060684204
1781792882030015500,45.91301538085938,3.688755750656128,0.6523656845092773,0.8356492519378662
1781792882078538200,45.96153833007813,3.477062225341797,-1.3449211120605469,-0.6877202987670898
1781792882127061200,46.01006127929688,1.6421756744384766,-3.2487707138061523,-0.4965820908546448
1781792882175584300,46.05858422851563,-0.05055803060531616,1.7236356735229492,1.9943366050720215
1781792882224107000,46.10710693359375,-1.6400755643844604,-2.5208396911621094,0.08412915468215942
1781792882272630000,46.15563012695313,-5.580716133117676,-6.0024261474609375,-2.991117000579834
1781792882321153000,46.20415307617188,-1.226098656654358,0.3197002410888672,1.0757091045379639
1781792882369675800,46.25267578125,0.02727419137954712,4.800169944763184,-0.5066704750061035
1781792882418198800,46.30119873046875,-0.6711194515228271,5.080172538757324,-3.1979050636291504
1781792882466721800,46.3497216796875,0.0008981227874755859,3.8044543266296387,-3.0653128623962402
1781792882515244500,46.39824462890625,2.174525499343872,2.1143054962158203,0.524114727973938
1781792882563767600,46.446767578125,1.1304763555526733,-1.850041389465332,5.776336669921875
1781792882612290600,46.49529052734375,0.4986249804496765,-8.7859525680542,2.0678086280822754
1781792882660813300,46.543813232421876,-2.310397148132324,-1.7733869552612305,-0.5633000135421753
1781792882709336300,46.59233642578125,-1.8007092475891113,-0.04666328430175781,-7.883211135864258
1781792882757859000,46.640859130859376,-1.2972490787506104,-3.3717098236083984,-0.958862841129303
1781792882806381800,46.6893818359375,-1.311038851737976,-1.2654314041137695,-0.41455525159835815
1781792882854904800,46.73790478515625,1.7237297296524048,3.653822422027588,-2.930570125579834
1781792882903427600,46.786427490234374,1.5576893091201782,3.788651466369629,-1.0881520509719849
1781792882951950600,46.83495068359375,1.158980369567871,1.0473346710205078,0.3960687816143036
1781792883000473600,46.8834736328125,1.5638811588287354,-0.4673919677734375,1.1201783418655396
1781792883048996400,46.931996337890624,3.9257426261901855,1.8294196128845215,1.6187162399291992
1781792883097519400,46.980519287109374,4.11195707321167,-0.5967397689819336,-1.3083715438842773
1781792883146042400,47.02904248046875,3.773090362548828,-4.1588029861450195,-0.5730145573616028
1781792883194565000,47.077565185546874,-1.4338550567626953,3.4109249114990234,3.4538443088531494
1781792883243088100,47.126088134765624,-2.1827383041381836,-1.8444204330444336,-0.003233581781387329
1781792883291611100,47.174611083984374,-6.568345069885254,-9.533434867858887,-4.637945652008057
1781792883340134000,47.2231337890625,-2.8619866371154785,-0.1624002456665039,1.3698559999465942
1781792883388657000,47.271656982421874,0.41741520166397095,4.310763359069824,0.6407890319824219
1781792883437179600,47.3201796875,-0.5496547818183899,4.4453535079956055,-3.0849552154541016
1781792883485702400,47.36870239257812,0.18547946214675903,4.663835525512695,-2.253602981567383
1781792883534225400,47.41722534179687,2.6039159297943115,3.332744598388672,0.14971983432769775
1781792883582748200,47.465748046875,1.1137478351593018,-1.4630966186523438,5.661334037780762
1781792883631271200,47.51427124023437,0.6078367829322815,-7.840310096740723,4.5085554122924805
1781792883679794200,47.56279418945312,-1.1379215717315674,-1.2675704956054688,0.047760844230651855
1781792883728317000,47.61131689453125,-3.387918472290039,-1.6992778778076172,-8.497005462646484
1781792883776840000,47.65983984375,-2.472710132598877,-2.393770217895508,-0.6874265074729919
1781792883825363000,47.70836303710937,-0.44661086797714233,-0.5039577484130859,-0.8810365200042725
1781792883873885700,47.7568857421875,0.39469510316848755,1.5784168243408203,-2.338036298751831
1781792883922408700,47.80540869140625,1.308302879333496,3.4555530548095703,-1.051051139831543
1781792883970931500,47.85393139648438,1.236261010169983,1.7257452011108398,0.4707443416118622
1781792884019454200,47.9024541015625,1.3205087184906006,-0.5459718704223633,1.156350016593933
1781792884067977200,47.95097729492188,2.9731361865997314,1.2245922088623047,1.654327154159546
1781792884116500000,47.9995,4.62172794342041,1.4601926803588867,-0.30146461725234985
1781792884165023000,48.04802294921875,3.2687923908233643,-4.605576515197754,-2.157111883163452
1781792884213546000,48.0965458984375,-0.16417157649993896,2.8868765830993652,2.962824583053589
1781792884262068700,48.14506884765625,-1.6244161128997803,1.4964656829833984,1.8064205646514893
1781792884310591500,48.193591552734375,-5.945050239562988,-11.101959228515625,-4.270411491394043
1781792884359114500,48.242114501953125,-4.792959213256836,-2.7313003540039062,0.9046385288238525
1781792884407637200,48.29063720703125,-0.13409245014190674,2.8597002029418945,2.2500715255737305
1781792884456160300,48.33916015625,-0.4391115605831146,5.053442478179932,-2.3023500442504883
1781792884504683300,48.387683349609375,-0.22933220863342285,4.358282566070557,-2.06075382232666
1781792884553206000,48.4362060546875,1.827099084854126,3.483822822570801,0.13128697872161865
1781792884601729000,48.48472900390625,2.006117820739746,1.269622802734375,4.063642501831055
1781792884650251800,48.53325170898437,0.7694889307022095,-7.305170059204102,4.444363594055176
1781792884698774500,48.5817744140625,-1.0040459632873535,-3.839280128479004,2.915804624557495
1781792884747297500,48.63029760742187,-2.5898971557617188,1.629542350769043,-5.1493425369262695
1781792884795820300,48.6788203125,-2.833228588104248,-4.392438888549805,-5.094781398773193
1781792884844343300,48.72734326171875,-0.9451096057891846,-1.0096015930175781,0.4077768921852112
1781792884892866300,48.7758662109375,0.4835115075111389,2.3314743041992188,-2.6283111572265625
1781792884941389000,48.82438916015625,1.075596809387207,3.236362934112549,-1.605501651763916
1781792884989912000,48.872912109375,1.2464206218719482,1.6761236190795898,0.3663393259048462
1781792885038434800,48.92143481445312,1.4905288219451904,-0.11914443969726562,1.7782007455825806
1781792885086957600,48.96995751953125,2.6550800800323486,0.13411521911621094,1.325616478919983
1781792885135480600,49.01848046875,4.42292594909668,2.2135767936706543,0.8509014844894409
1781792885184003600,49.06700366210937,2.9943437576293945,-4.222810745239258,-2.1963272094726562
1781792885232526300,49.1155263671875,1.366648554801941,0.6428146362304688,1.172123908996582
1781792885281049000,49.16404907226563,-1.166005253791809,1.7982797622680664,2.7454993724823
1781792885329571800,49.21257177734375,-4.3200602531433105,-7.484748840332031,-1.858905553817749
1781792885378094800,49.2610947265625,-5.609047889709473,-4.379471778869629,-0.8124364614486694
1781792885426617900,49.30961791992188,-0.8623903393745422,1.3984365463256836,2.03578519821167
1781792885475140600,49.358140625,-0.08551684021949768,4.859040260314941,-1.811256766319275
1781792885523663600,49.40666357421875,0.2032911479473114,4.694184303283691,-3.158878803253174
1781792885572186400,49.455186279296875,0.93807452917099,4.537458896636963,-0.731528103351593
1781792885620709000,49.503709228515625,2.7216384410858154,3.3695731163024902,2.416958808898926
1781792885669232000,49.552232177734375,0.15834170579910278,-7.901276588439941,4.828076362609863
1781792885717755100,49.600755126953125,-0.6545534729957581,-5.355465888977051,4.25092887878418
1781792885766278000,49.64927783203125,-1.3884451389312744,0.9710607528686523,-3.8321125507354736
1781792885814801000,49.69780078125,-2.728419542312622,-2.020090103149414,-8.774951934814453
1781792885863323600,49.74632373046875,-1.2525513172149658,-3.7259321212768555,2.3805408477783203
1781792885911846400,49.79484643554687,0.4055972695350647,0.4490184783935547,-1.847015380859375
1781792885960369400,49.84336938476562,0.998477578163147,3.2155508995056152,-2.303910493850708
1781792886008892200,49.89189208984375,1.6715092658996582,2.978614330291748,-0.06512731313705444
1781792886057415200,49.94041528320312,1.2989197969436646,0.8414230346679688,0.7331575155258179
1781792886105938000,49.98893798828125,2.056507110595703,-0.14296913146972656,1.3728810548782349
1781792886154460700,50.03746069335938,4.169234752655029,1.860285758972168,1.3622591495513916
1781792886202983700,50.08598364257813,3.5941786766052246,-3.698702812194824,-1.9903219938278198
1781792886251506700,50.13450659179688,1.6405527591705322,-0.6524972915649414,-0.2631397247314453
1781792886300029200,50.183029296875,0.26596325635910034,2.7452783584594727,2.262794017791748
1781792886348552200,50.23155224609375,-3.300631284713745,-5.944912910461426,-0.10493600368499756
1781792886397075200,50.2800751953125,-5.761446475982666,-5.527801513671875,-1.6585530042648315
1781792886445598000,50.328597900390626,-0.37472978234291077,0.4935636520385742,2.91031551361084
1781792886494121000,50.377120849609376,0.36387473344802856,4.605788230895996,-1.0418163537979126
1781792886542643700,50.425643798828126,0.13611459732055664,4.115606784820557,-3.829946994781494
1781792886591166500,50.47416650390625,0.6060168743133545,3.6957311630249023,-2.816077470779419
1781792886639689500,50.522689453125,1.9233862161636353,3.018195152282715,-1.0342586040496826
1781792886688212200,50.571212158203124,1.4081523418426514,-1.1859493255615234,4.029372692108154
1781792886736735200,50.6197353515625,1.5781614780426025,-5.815254211425781,4.400915145874023
1781792886785258000,50.668258056640624,-0.8973838090896606,-3.0682830810546875,0.9880797863006592
1781792886833780700,50.71678076171875,-2.1729793548583984,-1.7685651779174805,-6.670083045959473
1781792886882303700,50.7653037109375,-2.396402597427368,-3.5296478271484375,-1.452608346939087
1781792886930826800,50.81382666015625,-0.3734913468360901,-0.3412199020385742,-0.9268380403518677
1781792886979349200,50.86234936523437,1.0204155445098877,3.2325921058654785,-2.837094783782959
1781792887027872300,50.91087231445312,1.6908397674560547,3.56321382522583,-1.5821863412857056
1781792887076395000,50.95939501953125,1.306349277496338,1.2876253128051758,0.03297549486160278
1781792887124918000,51.00791796875,1.0713225603103638,-0.5089244842529297,1.087697148323059
1781792887173440800,51.05644067382813,4.498029708862305,0.2843027114868164,1.9871143102645874
1781792887221963500,51.10496362304688,4.00958251953125,-0.07291412353515625,0.0661005973815918
1781792887270486500,51.15348657226563,1.6401331424713135,-1.9589672088623047,0.12335783243179321
1781792887319009500,51.20200952148438,-1.7409005165100098,1.2432231903076172,1.5523076057434082
1781792887367532300,51.2505322265625,-2.9750638008117676,-6.112287521362305,-0.9002189636230469
1781792887416055000,51.299054931640626,-6.013717174530029,-4.75850772857666,-1.7710044384002686
1781792887464578000,51.347578125,-1.4264761209487915,1.2926673889160156,1.5869081020355225
1781792887513100800,51.396100830078126,-0.042754143476486206,5.027709484100342,-0.43979907035827637
1781792887561623600,51.44462353515625,0.45301616191864014,4.462677955627441,-3.0953564643859863
1781792887610146600,51.493146484375,1.1004389524459839,3.7710509300231934,-1.4293848276138306
1781792887658669300,51.54166943359375,2.831904411315918,2.8156442642211914,1.7317748069763184
1781792887707192300,51.5901923828125,0.36903005838394165,-3.440401077270508,4.617119789123535
1781792887755715000,51.638715087890624,-0.8575063943862915,-7.208955764770508,4.615550994873047
1781792887804237800,51.68723779296875,-2.05047869682312,-1.7194271087646484,-2.6366007328033447
1781792887852760800,51.7357607421875,-2.03466534614563,-0.4893035888671875,-7.802772521972656
1781792887901283600,51.78428369140625,-2.1917102336883545,-4.564610481262207,0.3299914598464966
1781792887949806300,51.83280639648437,0.7328332662582397,1.0197248458862305,-2.8644378185272217
1781792887998329300,51.88132934570312,1.4872089624404907,3.641064167022705,-1.9472465515136719
1781792888046852000,51.92985205078125,1.356289029121399,2.646873950958252,-0.22209614515304565
1781792888095375000,51.978375,1.4232219457626343,0.4846792221069336,1.1396586894989014
1781792888143897900,52.02689794921875,2.334770679473877,-0.2442340850830078,1.6248809099197388
1781792888192420600,52.07542065429688,4.3415069580078125,1.997849941253662,1.0827082395553589
1781792888240943600,52.12394360351563,3.520571708679199,-3.4974241256713867,-1.7954543828964233
1781792888289466400,52.17246630859375,3.0163676738739014,-0.9091367721557617,0.7882310152053833
1781792888337989000,52.220989013671876,-0.6784975528717041,3.436626434326172,1.8512307405471802
1781792888386512100,52.26951220703125,-2.2028322219848633,-5.228192329406738,-1.0068230628967285
1781792888435035000,52.318034912109376,-5.687465667724609,-6.484724998474121,-2.995337724685669
1781792888483557600,52.3665576171875,-1.3657238483428955,0.3750581741333008,2.194145917892456
1781792888532080600,52.41508056640625,0.6290097832679749,4.702438831329346,-0.5796632766723633
1781792888580603400,52.463603271484374,0.5325139164924622,3.686128616333008,-3.9994912147521973
1781792888629126100,52.512126220703124,0.23604132235050201,3.8439488410949707,-2.7370333671569824
1781792888677649200,52.560649169921874,2.489534378051758,3.7956762313842773,-0.7399225831031799
1781792888726172000,52.609171875,1.5455267429351807,-2.5203819274902344,3.5381484031677246
1781792888774695000,52.65769482421875,0.1204177737236023,-7.159062385559082,5.589242458343506
1781792888823217700,52.7062177734375,-1.5289661884307861,-2.0193471908569336,0.5530235767364502
1781792888871740400,52.75474047851562,-1.442201852798462,-1.4684553146362305,-7.282574653625488
1781792888920263400,52.80326342773437,-2.102825164794922,-4.403745651245117,-0.17615211009979248
1781792888968786200,52.8517861328125,-0.3419029712677002,0.5612268447875977,-2.2944693565368652
1781792889017309000,52.90030883789063,2.004885673522949,3.8088603019714355,-2.3089780807495117
1781792889065832000,52.94883203125,1.2481422424316406,3.2774763107299805,-0.7638000249862671
1781792889114354400,52.9973544921875,0.7358498573303223,0.2263021469116211,0.003878474235534668
1781792889162877400,53.04587744140625,1.7166748046875,-0.7810630798339844,0.2762284278869629
1781792889211400400,53.094400390625,4.334603786468506,1.487523078918457,0.37482988834381104
1781792889259923000,53.1429228515625,4.636990070343018,-1.359598159790039,-0.217126727104187
1781792889308446000,53.191446044921875,2.3618760108947754,-3.225881576538086,-0.20121502876281738
1781792889356968700,53.23996875,-0.21489942073822021,3.036849021911621,1.6902713775634766
1781792889405491700,53.28849169921875,-2.1576600074768066,-4.622723579406738,0.483349084854126
1781792889454014500,53.33701440429687,-5.497918128967285,-5.788334846496582,-2.082634449005127
1781792889502537200,53.385537109375,-0.4021565020084381,0.4917163848876953,1.7602782249450684
1781792889551060200,53.43406030273437,0.3171156644821167,4.8697943687438965,-1.3581783771514893
1781792889599583000,53.4825830078125,0.4596177339553833,4.787015914916992,-4.277287006378174
1781792889648105700,53.53110571289063,0.07521960139274597,2.813251495361328,-2.83463191986084
1781792889696628700,53.57962866210938,1.7529712915420532,2.4121103286743164,-0.18619215488433838
1781792889745151500,53.6281513671875,1.8453369140625,-1.3272705078125,4.360428810119629
1781792889793674200,53.67667431640625,0.3547555208206177,-7.650910377502441,4.126988887786865
1781792889842197200,53.725197265625,-2.5192134380340576,-1.554459571838379,0.8451259136199951
1781792889890720000,53.77371997070313,-0.47671979665756226,-0.4861888885498047,-6.926289081573486
1781792889939242800,53.82224267578125,-3.3162617683410645,-5.71848201751709,-0.6004785299301147
1781792889987765800,53.87076586914063,0.0010567940771579742,0.24394989013671875,-2.6491613388061523
1781792890036288500,53.91928857421875,1.4106669425964355,3.186105728149414,-2.8724613189697266
1781792890084811300,53.967811279296875,0.9887459874153137,3.010361671447754,-0.8961389064788818
1781792890133334300,54.016334228515625,1.1075202226638794,0.9370002746582031,0.6341440081596375
1781792890181857000,54.06485693359375,1.096834659576416,0.13626575469970703,1.4692769050598145
1781792890230379800,54.1133798828125,4.774927139282227,1.287637710571289,0.8885806798934937
1781792890278902800,54.16190283203125,3.8026723861694336,-0.09716320037841797,0.6533111333847046
1781792890327425300,54.21042529296875,2.0663721561431885,-3.85459041595459,-1.5525741577148438
1781792890375948300,54.2589482421875,0.35058772563934326,3.0561065673828125,1.863659143447876
1781792890424471300,54.30747119140625,-1.8288170099258423,-2.5630760192871094,2.148986577987671
1781792890472993800,54.35599389648438,-6.374059677124023,-8.314730644226074,-1.6749799251556396
1781792890521516800,54.40451684570313,-2.0052595138549805,-0.22979354858398438,1.4338796138763428
1781792890570039600,54.45303955078125,0.4918712377548218,4.309112071990967,-0.5469942092895508
1781792890618562300,54.501562255859376,-0.21523910760879517,4.545970916748047,-3.766775131225586
1781792890667085300,54.550085205078126,0.2547401189804077,3.743649482727051,-2.2423131465911865
1781792890715608000,54.598608154296876,2.0767109394073486,2.984123706817627,0.805809736251831
1781792890764130800,54.647130859375,1.126631736755371,-1.5013084411621094,3.9581139087677
1781792890812653800,54.69565380859375,1.1012650728225708,-6.154514312744141,4.732843399047852
1781792890861176300,54.74417626953125,-2.171926975250244,-1.9549245834350586,0.28727221488952637
1781792890909699300,54.79269921875,-1.5961275100708008,-1.8895015716552734,-7.019071578979492
1781792890958222300,54.841222412109374,-3.279458522796631,-4.00764274597168,0.04715704917907715
1781792891006744800,54.88974487304687,-0.06440012156963348,-0.06473350524902344,-2.1356093883514404
1781792891055267800,54.93826782226562,1.379943609237671,2.6964969635009766,-2.200709104537964
1781792891103790600,54.98679052734375,1.426624059677124,3.2701950073242188,-1.614797592163086
1781792891152313300,55.03531323242188,1.3513703346252441,1.1794557571411133,-0.18797516822814941
1781792891200836400,55.08383642578125,1.5359951257705688,-0.3666715621948242,0.9085791110992432
1781792891249359000,55.13235913085938,3.6356561183929443,1.5765104293823242,1.494900107383728
1781792891297881900,55.1808818359375,4.675516605377197,0.7201080322265625,-0.7284324765205383
1781792891346404600,55.229404541015626,2.976139545440674,-4.143332481384277,-0.3855631351470947
1781792891394927400,55.27792724609375,-2.125943422317505,2.614506244659424,2.4288549423217773
1781792891443450400,55.326450439453126,-2.464601516723633,-2.946746826171875,-0.06099653244018555
1781792891491973000,55.37497314453125,-6.047863960266113,-8.256576538085938,-2.19075870513916
1781792891540496000,55.423495849609374,-3.2156569957733154,-0.5888757705688477,2.0394270420074463
1781792891589019000,55.472018798828124,0.08469521999359131,3.329192638397217,1.0680491924285889
1781792891637541600,55.520541748046874,-0.31319552659988403,4.235973834991455,-3.2383131980895996
1781792891686064400,55.569064453125,-0.04091691970825195,4.354165077209473,-2.532602310180664
1781792891734587100,55.61758715820312,1.3541724681854248,3.518136501312256,0.023032069206237793
1781792891783110000,55.66610986328125,2.242173671722412,0.6046762466430664,3.9885306358337402
1781792891831633000,55.7146328125,1.4699211120605469,-6.567831993103027,4.417390823364258
1781792891880155600,55.76315576171875,-1.9262804985046387,-2.311460494995117,4.363292217254639
1781792891928678400,55.81167846679688,-3.514472484588623,0.21469497680664062,-5.100900650024414
1781792891977201200,55.860201171875,-1.4067258834838867,-2.882147789001465,-4.528446197509766
1781792892025724200,55.90872412109375,-0.7743891477584839,-2.411585807800293,0.9813590049743652
1781792892074247000,55.957246826171875,-0.06256173551082611,0.28408336639404297,-3.011180877685547
1781792892122769700,56.005769775390625,1.7176628112792969,3.6680335998535156,-0.9650650024414062
1781792892171292400,56.05429248046875,1.3072764873504639,2.3377418518066406,0.41858482360839844
1781792892219815200,56.10281518554687,1.1492140293121338,0.22325706481933594,0.7285281419754028
1781792892268338200,56.15133813476562,2.880690336227417,1.150618553161621,1.135716438293457
1781792892316861000,56.19986083984375,5.130306243896484,1.7576522827148438,1.224321722984314
1781792892365383700,56.2483837890625,2.5150351524353027,-4.310169219970703,-1.1002628803253174
1781792892413906400,56.29690649414062,-0.07430416345596313,1.522294044494629,2.054194450378418
1781792892462429200,56.34542919921875,-2.1547508239746094,0.0995626449584961,1.3714258670806885
1781792892510952200,56.3939521484375,-6.222871780395508,-10.45324993133545,-2.570795774459839
1781792892559475000,56.44247485351563,-4.70504903793335,-1.1115989685058594,1.8649396896362305
1781792892607997700,56.49099780273438,0.10197097063064575,3.4847235679626465,1.6428933143615723
1781792892656520400,56.5395205078125,-0.47846654057502747,4.340948581695557,-2.2751638889312744
1781792892705043200,56.588043212890625,0.14775893092155457,4.080892086029053,-2.1771368980407715
1781792892753566000,56.63656591796875,1.7190864086151123,3.307122230529785,0.4548830986022949
1781792892802089000,56.6850888671875,2.1164121627807617,2.4338912963867188,4.803721904754639
1781792892850611700,56.73361181640625,1.0123155117034912,-6.856123924255371,5.400603771209717
1781792892899134500,56.78213452148437,-1.5840212106704712,-4.3728132247924805,3.0331363677978516
1781792892947657500,56.83065747070312,-2.067272663116455,1.3239736557006836,-6.0179338455200195
1781792892996180000,56.87917993164063,-1.4484920501708984,-2.7225513458251953,-3.539456844329834
1781792893044703000,56.92770288085938,-1.938531756401062,-3.645547866821289,1.029824137687683
1781792893093225700,56.97622583007813,1.0377707481384277,2.4489707946777344,-3.7977941036224365
1781792893141748500,57.02474853515625,1.3728834390640259,3.8397140502929688,-2.150740146636963
1781792893190271200,57.07327124023438,1.942665934562683,1.5112981796264648,0.6517049074172974
1781792893238794000,57.1217939453125,0.9936484694480896,-0.09570026397705078,1.8354012966156006
1781792893287316700,57.170316650390625,3.1829302310943604,0.9044284820556641,1.6745271682739258
1781792893335839700,57.21883984375,5.120687961578369,1.54119873046875,1.181472659111023
1781792893384362500,57.267362548828125,4.098791599273682,-2.8317108154296875,-0.15656638145446777
1781792893432885200,57.31588525390625,-0.19852390885353088,1.901799201965332,1.356818675994873
1781792893481408000,57.36440795898437,-2.056741714477539,-0.9550094604492188,1.4185158014297485
1781792893529930800,57.4129306640625,-6.406951904296875,-10.381887435913086,-3.534181833267212
1781792893578453800,57.46145385742187,-4.643283367156982,-1.725790023803711,0.3668316602706909
1781792893626976500,57.5099765625,0.23919245600700378,3.4766592979431152,2.094430923461914
1781792893675499300,57.55849926757813,-0.1677190661430359,4.646823406219482,-2.1928164958953857
1781792893724022000,57.60702197265625,0.21585941314697266,4.169824123382568,-3.3489222526550293
1781792893772544800,57.655544677734376,1.8762011528015137,4.618373870849609,-0.7303714752197266
1781792893821067500,57.704067626953126,1.726593255996704,1.2821540832519531,4.5793256759643555
1781792893869590500,57.752590576171876,-0.29634323716163635,-7.878261566162109,5.90831184387207
1781792893918113300,57.80111328125,-1.9418649673461914,-3.25125789642334,1.9900906085968018
1781792893966636000,57.849635986328124,-1.927135944366455,-1.3385009765625,-8.238677978515625
1781792894015158800,57.89815869140625,-2.2516002655029297,-3.1046829223632812,-2.4600460529327393
1781792894063681500,57.946681640625,-0.5948823690414429,-1.9114017486572266,-1.0621531009674072
1781792894112204300,57.99520434570312,1.2626606225967407,1.2932863235473633,-3.7741894721984863
1781792894160727000,58.04372705078125,1.415066123008728,2.621324062347412,-1.1055405139923096
1781792894209249800,58.09224975585938,1.433711051940918,2.1427969932556152,0.3201746940612793
1781792894257772800,58.14077270507813,1.8499802350997925,0.8427200317382812,2.3463809490203857
1781792894306295600,58.18929565429688,2.3409671783447266,0.8090686798095703,2.3954429626464844
1781792894354818300,58.237818359375,4.971887111663818,3.1256093978881836,0.6941461563110352
1781792894403341000,58.286341064453126,3.8233537673950195,-4.405856132507324,-1.60597825050354
1781792894451863800,58.33486376953125,0.27356287837028503,-0.08891677856445312,0.7232266664505005
1781792894500386600,58.383386474609374,-1.067671537399292,2.185600757598877,1.433678150177002
1781792894548909600,58.43190966796875,-4.63710880279541,-9.76226806640625,-1.4468313455581665
1781792894597432000,58.48043212890625,-6.492718696594238,-3.7590761184692383,0.6478030681610107
1781792894645955000,58.528955078125,0.7356594800949097,2.1364030838012695,2.870579242706299
1781792894694477800,58.57747778320312,0.19859296083450317,4.674063682556152,-2.0841121673583984
1781792894743000300,58.62600024414063,0.5386824011802673,4.267247200012207,-3.70558500289917
1781792894791523300,58.6745234375,1.2908049821853638,4.0701799392700195,-1.3233882188796997
1781792894840046000,58.72304614257813,2.1710000038146973,3.5417399406433105,1.7970539331436157
1781792894888568800,58.77156884765625,1.05475652217865,-5.27092170715332,3.853837013244629
1781792894937091600,58.820091552734375,-0.644148588180542,-4.57621955871582,6.385900020599365
1781792894985614300,58.8686142578125,-2.2762184143066406,-1.2640419006347656,-2.607239246368408
1781792895034137000,58.91713720703125,-1.4051594734191895,-2.246126174926758,-6.667905807495117
1781792895082660000,58.96566015625,-1.4407517910003662,-3.816990852355957,0.8786303997039795
1781792895131182600,59.0141826171875,0.25366002321243286,-0.13001441955566406,-3.2958388328552246
1781792895179705600,59.06270556640625,1.6418190002441406,3.23748779296875,-2.6314401626586914
1781792895228228400,59.11122827148437,1.8315315246582031,2.906261444091797,-0.9733971953392029
1781792895276751000,59.15975122070312,1.4712517261505127,0.5228376388549805,0.7928280830383301
1781792895325273900,59.20827392578125,1.9596003293991089,0.4013681411743164,1.5799376964569092
1781792895373796600,59.25679663085938,5.7116899490356445,1.8550000190734863,1.5344293117523193
1781792895422319400,59.3053193359375,3.5663771629333496,-2.556882858276367,-0.1772611141204834
1781792895470842000,59.353842041015625,0.5578252077102661,-1.3517465591430664,-0.1294952630996704
1781792895519364900,59.40236474609375,-1.1486891508102417,1.731475830078125,2.013085126876831
1781792895567887600,59.4508876953125,-4.190276622772217,-7.771352767944336,-1.2954204082489014
1781792895616410600,59.49941064453125,-5.634666919708252,-3.6785316467285156,-0.9746541976928711
1781792895664933000,59.54793310546875,-0.519624650478363,1.8018836975097656,3.1849424839019775
1781792895713455900,59.59645581054688,-0.3693329393863678,4.750240325927734,-1.0389597415924072
1781792895761978600,59.644978515625,0.6018043756484985,4.020036697387695,-4.732558727264404
1781792895810501400,59.69350146484375,0.8223215341567993,4.821846008300781,-1.8428078889846802
1781792895859024400,59.7420244140625,2.11784291267395,3.307535171508789,2.6715896129608154
1781792895907547100,59.790547119140626,1.8940784931182861,-6.525049209594727,4.963339805603027
1781792895956070000,59.83906982421875,-0.9110960960388184,-4.213525772094727,4.035508155822754
1781792896004592600,59.887592529296874,-3.1673340797424316,-1.8658332824707031,-5.050300598144531
1781792896053115400,59.936115478515624,-1.5793207883834839,-3.653653144836426,-4.829638481140137
1781792896150161000,60.03316088867187,0.4389524459838867,1.1887636184692383,-3.307842254638672
1781792896198683600,60.08168359375,1.5946485996246338,3.117084503173828,-1.9430019855499268
1781792896247206700,60.13020654296875,1.3436553478240967,2.1150665283203125,-0.019215822219848633
1781792896295729400,60.1787294921875,1.4066758155822754,0.055522918701171875,1.5196994543075562
1781792896392774400,60.2757744140625,5.981328010559082,1.4591617584228516,-0.27522969245910645
1781792896441297400,60.32429736328125,2.6489429473876953,-4.057324409484863,-0.2141798734664917
1781792896489820200,60.372820068359374,-0.5066226720809937,3.161625862121582,2.3025407791137695
1781792896538343000,60.421343017578124,-1.8710006475448608,-0.4888648986816406,1.315799355506897
1781792896586865700,60.46986572265625,-5.85738468170166,-10.344358444213867,-2.6819329261779785
1781792896635388400,60.51838842773437,-4.321956634521484,-1.7035741806030273,1.7257120609283447
1781792896683911200,60.5669111328125,0.6113717555999756,3.0882387161254883,1.7304270267486572
1781792896732434000,60.61543383789063,0.09592992067337036,4.5148444175720215,-2.4914910793304443
1781792896780957000,60.66395703125,0.2900722324848175,4.532939434051514,-2.994816780090332
1781792896829479700,60.71247973632813,1.902025818824768,4.667669296264648,-0.4814798831939697
1781792896878002400,60.76100244140625,2.255566358566284,2.3551979064941406,3.817873477935791
1781792896926525000,60.80952490234375,-0.10427325963973999,-8.342171669006348,4.41146183013916
1781792896975047700,60.858047607421874,-2.4942386150360107,-3.537489891052246,2.8462624549865723
1781792897023570400,60.9065703125,-0.9351930618286133,-0.5675249099731445,-6.484748363494873
1781792897072093400,60.955093505859374,-1.965116024017334,-3.9307823181152344,-2.4406750202178955
1781792897120616200,61.0036162109375,-1.3162237405776978,-2.5068979263305664,-1.6540768146514893
1781792897169138700,61.052138671875,1.6781173944473267,2.1844482421875,-4.040592670440674
1781792897217661400,61.10066137695313,1.3994497060775757,3.0791831016540527,-1.7908856868743896
1781792897266184200,61.14918408203125,1.8541631698608398,1.5216703414916992,0.8547780513763428
1781792897314707200,61.19770727539063,1.4476717710494995,-0.04360198974609375,3.0856823921203613
1781792897363229700,61.246229736328125,3.29850435256958,0.40235137939453125,2.2342886924743652
1781792897460275500,61.343275390625,3.0019335746765137,-3.2855300903320312,-1.478614330291748
1781792897508798200,61.39179809570312,-0.07783448696136475,2.1016483306884766,1.3679378032684326
1781792897557321000,61.44032104492187,-0.8378047943115234,0.023645401000976562,1.715910792350769
1781792897605843700,61.48884375,-5.94618558883667,-10.608692169189453,-1.6862789392471313
1781792897654366200,61.5373662109375,-4.748313903808594,-2.0449342727661133,1.233100175857544
1781792897702889000,61.58588891601563,0.5713634490966797,3.2336196899414062,0.6416265964508057
1781792897751412000,61.63441186523438,-0.15309517085552216,4.927995204925537,-2.677741289138794
1781792897799934500,61.6829345703125,0.37634602189064026,4.523509502410889,-2.5047993659973145
1781792897896980000,61.77997998046875,1.9032477140426636,1.0543336868286133,4.912620544433594
1781792897945503000,61.8285029296875,0.4777032732963562,-5.568334579467773,4.421990394592285
1781792897994025500,61.877025390625,-1.6153709888458252,-2.2455549240112305,1.8194048404693604
1781792898042548500,61.92554858398437,-1.9475622177124023,-3.8658065795898438,-8.863631248474121
1781792898091071200,61.9740712890625,-2.219043016433716,-2.8691492080688477,-1.0512540340423584
1781792898139594000,62.02259399414063,-0.1418445110321045,-1.2220287322998047,-0.6277498006820679
1781792898188116500,62.071116455078126,0.9226661920547485,0.7777872085571289,-2.7739288806915283
1781792898236639500,62.119639404296876,1.7671589851379395,3.465333938598633,-2.025520086288452
1781792898285162000,62.168161865234374,1.2096859216690063,1.9288439750671387,-0.6554521918296814
1781792898333684700,62.216684814453124,1.1226623058319092,-0.16243648529052734,1.484899640083313
1781792898382207700,62.265207763671874,3.106332302093506,0.4932899475097656,0.8437886238098145
1781792898430730200,62.31373022460937,5.678537368774414,-0.6563482284545898,-0.7387305498123169
1781792898479253000,62.3622529296875,2.510226249694824,-3.47393798828125,-0.02269577980041504
1781792898527775700,62.41077563476563,0.02004098892211914,4.16074800491333,1.7443666458129883
1781792898576298500,62.45929858398438,-1.5283710956573486,-0.2772331237792969,1.0145608186721802
1781792898624821200,62.5078212890625,-5.783135890960693,-9.87321662902832,-2.647927761077881
1781792898673344000,62.556343994140626,-3.7034873962402344,-1.450047492980957,1.448549747467041
1781792898721866800,62.60486669921875,0.26183104515075684,3.0612478256225586,1.766780138015747
1781792898770389500,62.653389404296874,0.4765253961086273,4.749719142913818,-2.554572820663452
