time,seconds_elapsed,z,y,x
1781792836344169700,0.227169677734375,8.964410781860352,4.175176620483398,-0.2967100143432617
1781792836392692700,0.275692626953125,8.924630165100098,4.076472282409668,-0.13848461210727692
1781792836441215700,0.3242158203125,9.385248184204102,4.000500202178955,0.05563312768936157
1781792836489738800,0.37273876953125,9.304191589355469,3.541377544403076,0.45583271980285645
1781792836538261800,0.42126171875,9.15284538269043,4.05403995513916,0.3448655605316162
1781792836586784800,0.46978466796875,8.689535140991211,4.126123428344727,0.30508488416671753
1781792836635307800,0.518307861328125,9.356534957885742,3.9463627338409424,0.1782652884721756
1781792836683830800,0.566830810546875,9.061320304870605,4.264608383178711,0.4420739710330963
1781792836732353500,0.615353515625,8.4200439453125,4.230809688568115,0.5246263742446899
1781792836780876500,0.66387646484375,7.736294746398926,4.400999069213867,0.3819543123245239
1781792836829399800,0.71239990234375,8.02373218536377,4.193122386932373,0.014955141581594944
1781792836877922800,0.7609228515625,10.523036003112793,4.371088981628418,0.12861421704292297
1781792836926445800,0.80944580078125,10.228120803833008,4.780859470367432,-0.2919243574142456
1781792836974968800,0.85796875,9.543174743652344,4.802095890045166,-0.576670229434967
1781792837023491800,0.906491943359375,8.715856552124023,4.534399032592773,-0.4091726839542389
1781792837072014800,0.955014892578125,8.759525299072266,4.522434711456299,-0.6936194896697998
1781792837120537900,1.003537841796875,8.787042617797852,4.488935470581055,-0.8823533654212952
1781792837169060900,1.052060791015625,7.998608112335205,4.642673969268799,-1.0133603811264038
1781792837217583900,1.100583984375,8.176873207092285,4.629513740539551,-0.9326026439666748
1781792837266107000,1.14910693359375,8.271389961242676,4.744070053100586,-1.0247262716293335
1781792837314630000,1.1976298828125,8.02373218536377,4.7973103523254395,-0.8934201598167419
1781792837363153000,1.24615283203125,8.166703224182129,4.910969257354736,-0.9669994711875916
1781792837411691000,1.29469091796875,8.39013385772705,5.067399978637695,-0.841675341129303
1781792837460199200,1.34319921875,8.327621459960938,5.113760948181152,-0.7591229677200317
1781792837508722200,1.39172216796875,8.72482967376709,5.070989608764648,-0.6275177597999573
1781792837557245200,1.4402451171875,8.721240043640137,5.078466892242432,-0.7127620577812195
1781792837605768200,1.488768310546875,8.61475944519043,4.95493745803833,-0.7782655358314514
1781792837654291200,1.537291259765625,8.468199729919434,4.910969257354736,-0.8204390406608582
1781792837702814200,1.585814208984375,8.313861846923828,4.972883701324463,-0.859621524810791
1781792837751337200,1.634337158203125,8.244470596313477,4.868795871734619,-0.875174880027771
1781792837799860500,1.682860595703125,8.2998046875,4.809274196624756,-0.9607182741165161
1781792837848383500,1.731383544921875,8.130212783813477,4.898108005523682,-0.9598209857940674
1781792837896906500,1.779906494140625,7.982755661010742,5.12811803817749,-1.1479566097259521
1781792837945429500,1.828429443359375,8.294719696044922,5.184648513793945,-1.174277663230896
1781792837993952500,1.876952392578125,8.4771728515625,5.041079044342041,-0.8805587291717529
1781792838042475800,1.925475830078125,8.774181365966797,4.858626365661621,-0.5754738450050354
1781792838090998800,1.973998779296875,8.847162246704102,4.8197431564331055,-0.5330012440681458
1781792838139521800,2.022521728515625,8.746664047241211,4.966901779174805,-0.542572557926178
1781792838188044800,2.071044921875,8.47597599029541,5.081757068634033,-0.6990033388137817
1781792838236568000,2.119568115234375,8.26540756225586,5.018646240234375,-0.8500502705574036
1781792838285091000,2.168091064453125,8.267202377319336,5.017449855804443,-0.916451096534729
1781792838333614000,2.216614013671875,8.041678428649902,5.062614440917969,-1.095314621925354
1781792838382137300,2.265137451171875,7.955836296081543,5.1804609298706055,-1.2652050256729126
1781792838430660400,2.313660400390625,7.953144073486328,5.057230472564697,-1.282852053642273
1781792838479183400,2.362183349609375,8.007282257080078,4.944468975067139,-1.1979068517684937
1781792838527706600,2.41070654296875,8.231907844543457,4.957330226898193,-1.0345966815948486
1781792838576229600,2.459229736328125,8.667402267456055,4.960321426391602,-0.5787639617919922
1781792838624752600,2.507752685546875,8.784649848937988,4.896612644195557,-0.17766708135604858
1781792838673276000,2.55627587890625,9.064311027526855,4.752744197845459,-0.03768695518374443
1781792838721799000,2.604798828125,8.78076171875,4.624728202819824,0.29012975096702576
1781792838770322000,2.653322021484375,8.572586059570312,4.598706245422363,-0.020937198773026466
1781792838818845200,2.70184521484375,7.930412292480469,4.5598225593566895,0.1950150430202484
1781792838867368200,2.7503681640625,8.697012901306152,4.588536739349365,-0.42681974172592163
1781792838915891500,2.798891357421875,9.641280174255371,4.496711730957031,-0.7322037220001221
1781792838964414500,2.84741455078125,9.027820587158203,4.479962348937988,-0.6789634227752686
1781792839012937700,2.895937744140625,9.310771942138672,4.371088981628418,-0.9098708033561707
1781792839061460700,2.944460693359375,8.731110572814941,4.256831645965576,-0.9684949517250061
1781792839109983700,2.992983642578125,8.404789924621582,4.29451847076416,-0.43100717663764954
1781792839158507000,3.041507080078125,7.87059211730957,4.572085857391357,-0.2551347017288208
1781792839207030000,3.090030029296875,9.135498046875,4.1042890548706055,-0.7067800164222717
1781792839255553300,3.13855322265625,9.780961990356445,3.7489547729492188,-0.6981059908866882
1781792839304076300,3.187076171875,9.312267303466797,3.614956855773926,-0.4788636267185211
1781792839352599600,3.235599609375,9.348159790039062,3.7516467571258545,-0.48843491077423096
1781792839401122600,3.28412255859375,9.13729190826416,3.9595232009887695,-0.48574298620224
1781792839449645800,3.332645751953125,9.028717994689941,4.1267218589782715,-0.48454657196998596
1781792839498168800,3.3811689453125,9.220442771911621,4.027718544006348,-0.46390849351882935
1781792839546692000,3.429692138671875,8.86780071258545,4.204488277435303,-0.372682124376297
1781792839595215000,3.478215087890625,8.58784008026123,4.384249210357666,-0.2602194547653198
1781792839643738400,3.52673828125,8.712566375732422,4.386343002319336,-0.24646073579788208
1781792839692261400,3.575261474609375,8.737092971801758,4.406383037567139,-0.3089732229709625
1781792839740784600,3.62378466796875,8.718249320983887,4.549055099487305,-0.359820693731308
1781792839789307600,3.6723076171875,8.82233715057373,4.607978343963623,-0.4055834412574768
1781792839837831000,3.720830810546875,8.725129127502441,4.611567497253418,-0.36191442608833313
1781792839886354200,3.769354248046875,8.595617294311523,4.614558696746826,-0.34636107087135315
1781792839934877200,3.817877197265625,8.722735404968262,4.5828537940979,-0.3655036687850952
1781792839983400400,3.866400390625,8.674580574035645,4.529015064239502,-0.31106695532798767
1781792840031923500,3.91492333984375,8.522636413574219,4.560420989990234,-0.32213374972343445
1781792840080446700,3.96344677734375,8.73619556427002,4.516153812408447,-0.36281174421310425
1781792840128970000,4.011969970703125,8.76520824432373,4.510470867156982,-0.4094717800617218
1781792840177493000,4.060492919921875,8.857930183410645,4.504189491271973,-0.43489551544189453
1781792840226016300,4.109016357421875,9.279067039489746,4.636393070220947,-0.5324030518531799
1781792840274539300,4.157539306640625,8.688637733459473,4.58793830871582,-0.4262215197086334
1781792840323062500,4.2060625,8.09970474243164,4.54845666885376,-0.39182472229003906
1781792840371585800,4.254585693359375,7.564609527587891,3.783052682876587,-0.24227328598499298
1781792840468632000,4.351632080078125,8.128119468688965,3.58115816116333,0.12891331315040588
1781792840517155300,4.4001552734375,9.027522087097168,4.052544116973877,-0.3604189157485962
1781792840565678300,4.44867822265625,10.43360424041748,2.974876642227173,-0.7043871879577637
1781792840614201600,4.49720166015625,10.318449020385742,3.132802963256836,-0.7145566344261169
1781792840662724900,4.545724853515625,10.216754913330078,3.2192437648773193,-0.786640465259552
1781792840711248100,4.594248046875,9.63081169128418,3.383451223373413,-0.2826521694660187
1781792840759771100,4.642771240234375,10.099506378173828,3.264707326889038,-0.92691969871521
1781792840808294400,4.69129443359375,9.963414192199707,3.1824541091918945,-1.0357930660247803
1781792840856817700,4.739817626953125,9.296713829040527,3.067598581314087,-0.8428717851638794
1781792840905341000,4.7883408203125,8.859127044677734,3.2282168865203857,-0.8979067206382751
1781792840953864000,4.836864013671875,8.966205596923828,3.6003007888793945,-0.3849453330039978
1781792841002387200,4.88538720703125,8.67069149017334,3.5273196697235107,-0.8841479420661926
1781792841050910500,4.933910400390625,9.480961799621582,3.3882367610931396,-0.7651050686836243
1781792841099433700,4.982433837890625,9.7669038772583,3.835395574569702,-1.3513466119766235
1781792841147957000,5.03095703125,7.940581798553467,4.167100429534912,-0.628415048122406
1781792841196480000,5.07947998046875,7.583154201507568,4.066003799438477,0.04247260093688965
1781792841245003300,5.128003173828125,8.957830429077148,4.199403762817383,-0.6394818425178528
1781792841342049800,5.2250498046875,8.497810363769531,4.595416069030762,-0.6592226624488831
1781792841390573000,5.273572998046875,8.3898344039917,4.256831645965576,-0.23180469870567322
1781792841439096300,5.322096435546875,8.20827865600586,4.015156269073486,0.7998009920120239
1781792841487619300,5.370619384765625,8.334799766540527,4.3417768478393555,0.5742774605751038
1781792841536142600,5.419142578125,8.952746391296387,4.431806564331055,0.271286278963089
1781792841584665900,5.467665771484375,8.789435386657715,4.514657974243164,0.2997010350227356
1781792841633189000,5.516189208984375,8.711369514465332,4.491926193237305,0.5404788255691528
1781792841681712400,5.56471240234375,8.557332038879395,4.147359848022461,-0.05114658549427986
1781792841730235400,5.6132353515625,5.535496234893799,4.868496894836426,5.286343574523926
1781792841778758700,5.661758544921875,8.7236328125,5.149653434753418,4.3519463539123535
1781792841827282000,5.710281982421875,7.40488862991333,5.227719306945801,4.517649173736572
1781792841875805200,5.75880517578125,7.414460182189941,5.207679271697998,4.804488658905029
1781792841924328400,5.807328369140625,6.985247611999512,5.055735111236572,5.129912853240967
1781792841972851700,5.855851806640625,7.1886372566223145,4.855037212371826,5.18315315246582
1781792842021375000,5.904375,6.574280261993408,4.721338272094727,5.44426965713501
1781792842069898200,5.952898193359375,6.219244956970215,4.794618606567383,5.816353797912598
1781792842118421200,6.001421142578125,6.294918060302734,4.890929698944092,5.7062835693359375
1781792842166944500,6.049944580078125,6.092126369476318,5.114957332611084,6.069394588470459
1781792842215467800,6.0984677734375,5.088935375213623,4.875974178314209,6.431309223175049
1781792842263991000,6.146990966796875,5.100002288818359,4.804189682006836,6.9068827629089355
1781792842312514300,6.195514404296875,4.54845666885376,4.715056896209717,7.297510623931885
1781792842361037600,6.24403759765625,2.6051857471466064,4.056432723999023,8.106285095214844
1781792842409560800,6.292560791015625,1.755733609199524,3.994518280029297,8.729615211486816
1781792842458083800,6.341083740234375,0.48364928364753723,4.029812335968018,9.082855224609375
1781792842506607400,6.389607421875,-0.8901300430297852,3.9813578128814697,8.754440307617188
1781792842555130600,6.438130615234375,0.45194438099861145,3.482454299926758,8.571688652038574
1781792842603653600,6.486653564453125,-3.31465744972229,3.758526086807251,7.319345474243164
1781792842652177000,6.535177001953125,-7.2798638343811035,5.19451904296875,6.693323135375977
1781792842749223400,6.632223388671875,-3.970889091491699,3.7848472595214844,7.269993305206299
1781792842797746700,6.68074658203125,-4.286741733551025,3.4235310554504395,7.438687324523926
1781792842922794000,6.8057939453125,-3.262314558029175,3.5850465297698975,6.698108673095703
1781792842971317200,6.854317138671875,-4.016951084136963,2.4598217010498047,8.717052459716797
1781792843019840500,6.902840576171875,-0.44416770339012146,3.1360931396484375,10.905887603759766
1781792843068363800,6.95136376953125,2.455035924911499,5.123033046722412,10.360024452209473
1781792843116887000,6.999886962890625,4.486542224884033,5.918945789337158,8.676374435424805
1781792843165410300,7.048410400390625,4.807180881500244,6.466902256011963,6.80668306350708
1781792843262456800,7.145456787109375,3.1758737564086914,6.338587284088135,3.885345697402954
1781792843310980000,7.19397998046875,4.1629133224487305,5.44426965713501,2.006680965423584
1781792843359503400,7.24250341796875,8.365307807922363,5.644070625305176,1.633699655532837
1781792843408026600,7.291026611328125,9.56351375579834,5.44426965713501,1.0256235599517822
1781792843456550000,7.3395498046875,9.239286422729492,5.873781204223633,1.3561322689056396
1781792843505073200,7.3880732421875,9.814760208129883,5.593821048736572,1.4476577043533325
1781792843553596400,7.436596435546875,9.070592880249023,4.1970109939575195,0.9394819736480713
1781792843650642700,7.533642578125,9.627223014831543,5.200201988220215,0.8733802437782288
1781792843747689200,7.630689208984375,11.892927169799805,7.864609718322754,-1.5759727954864502
1781792843844736000,7.727736083984375,14.829817771911621,1.3178470134735107,-0.7974081635475159
1781792843941782300,7.8247822265625,11.596217155456543,2.3300111293792725,-2.942274570465088
1781792844038828800,7.921828857421875,5.466104030609131,0.986740231513977,-5.043172836303711
1781792844135875600,8.01887548828125,3.783052682876587,-2.316850423812866,-7.77607536315918
1781792844232921900,8.115921875,2.417349100112915,-4.2000017166137695,-6.043372631072998
1781792844329968400,8.212968505859376,4.445864677429199,-2.106581211090088,-7.747361660003662
1781792844427015200,8.31001513671875,7.834998607635498,-0.11156535893678665,-11.343474388122559
1781792844524061700,8.407061767578124,9.384052276611328,0.5694918036460876,-7.538288593292236
1781792844621108200,8.504108154296874,-5.5953168869018555,0.04785645380616188,3.1824541091918945
1781792844718154800,8.60115478515625,-10.860424041748047,-2.2172493934631348,8.507381439208984
1781792844815201300,8.698201171875,-4.323830604553223,8.270492553710938,5.827420234680176
1781792844912247600,8.79524755859375,-7.601100444793701,4.150051593780518,6.171987056732178
1781792844960771000,8.84377099609375,-7.75753116607666,6.491727828979492,5.793622016906738
1781792845009294300,8.89229443359375,-1.8406788110733032,4.275375843048096,6.262016773223877
1781792845057817600,8.940817626953125,-0.544965386390686,1.2580264806747437,8.545368194580078
1781792845106340900,8.9893408203125,0.617946445941925,0.7459624409675598,9.12293529510498
1781792845154864000,9.037864013671875,-0.8949156403541565,1.1072787046432495,7.849056243896484
1781792845203775700,9.086775634765624,-0.8757730722427368,0.4977070987224579,6.2566328048706055
1781792845300434000,9.183433837890625,0.12352947145700455,-1.8113667964935303,4.570889472961426
1781792845348957200,9.231957275390625,1.4709876775741577,-1.3782658576965332,6.473183631896973
1781792845397480400,9.28048046875,1.241276741027832,-1.4404792785644531,12.65743350982666
1781792845446004000,9.32900390625,0.23988047242164612,-2.9653055667877197,14.857633590698242
1781792845494527200,9.37752734375,1.5553346872329712,-6.3361945152282715,14.437394142150879
1781792845543050500,9.426050537109376,2.0593230724334717,-7.943572998046875,14.249856948852539
1781792845591573800,9.47457373046875,0.3038884699344635,-6.126224040985107,13.359726905822754
1781792845640097000,9.523096923828126,-0.9155537486076355,-5.634200096130371,11.410473823547363
1781792845688620300,9.571620361328126,-0.14895321428775787,-6.015556335449219,10.325926780700684
1781792845737143800,9.620143798828124,0.9475577473640442,-6.891329288482666,10.823334693908691
1781792845785666800,9.668666748046874,2.846860647201538,-7.617251873016357,10.512567520141602
1781792845834190300,9.7171904296875,-5.402395248413086,-7.832306861877441,7.621738433837891
1781792845882713600,9.765713623046874,-0.9203394055366516,-7.530212879180908,8.088638305664062
1781792845931236900,9.81423681640625,1.9244276285171509,-8.21276569366455,7.513463020324707
1781792845979760000,9.862760009765625,5.146961688995361,-10.073782920837402,6.92183780670166
1781792846076807000,9.959806884765625,6.423233509063721,-8.315956115722656,2.5372893810272217
1781792846125330200,10.008330078125,4.756333351135254,-7.179365158081055,3.61226487159729
1781792846173853400,10.056853515625,2.8660032749176025,-8.028517723083496,5.937191009521484
1781792846222376700,10.105376708984375,7.670492172241211,-8.291130065917969,6.428019046783447
1781792846270900200,10.153900146484375,9.074481010437012,-7.081259727478027,5.907878875732422
1781792846319423500,10.202423583984375,7.805387496948242,-3.8682968616485596,0.3732803463935852
1781792846367946800,10.25094677734375,3.7525441646575928,-3.6544384956359863,-3.7573297023773193
1781792846464993500,10.34799365234375,6.781259536743164,-8.703293800354004,10.633105278015137
1781792846513516800,10.396516845703125,11.863615036010742,-7.051648139953613,9.073583602905273
1781792846562040300,10.445040283203125,13.021142959594727,-4.4410786628723145,9.043074607849121
1781792846610563600,10.4935634765625,9.099007606506348,-1.9310078620910645,4.537389755249023
1781792846659086800,10.5420869140625,0.8030911087989807,-1.1327024698257446,-1.7404793500900269
1781792846707610000,10.590610107421876,-3.2452657222747803,-2.122433662414551,-0.027816563844680786
1781792846756133400,10.63913330078125,-1.6683956384658813,-1.9639091491699219,4.247260093688965
1781792846804657000,10.687656982421874,1.1222338676452637,-4.908576488494873,3.7725839614868164
1781792846853180200,10.73618017578125,2.7260231971740723,-4.209573268890381,3.4648072719573975
1781792846901703400,10.784703369140624,5.287539958953857,-7.614859104156494,6.3753767013549805
1781792846950227000,10.83322705078125,7.120441913604736,-9.201898574829102,9.084052085876465
1781792846998750500,10.88175048828125,5.556732177734375,-7.8179497718811035,9.679864883422852
1781792847047273700,10.930273681640625,2.690429925918579,-9.471689224243164,13.773984909057617
1781792847095797000,10.978796875,1.9181464910507202,-10.000503540039062,16.552051544189453
1781792847144320300,11.0273203125,-0.3451646566390991,-7.340581893920898,14.808281898498535
1781792847192843800,11.07584375,-8.591130256652832,-4.515854358673096,9.201001167297363
1781792847241367000,11.124366943359375,-3.1268210411071777,-7.817351341247559,7.944769382476807
1781792847289890300,11.172890380859375,1.8272192478179932,-7.5341010093688965,7.399205684661865
1781792847338413800,11.221413818359375,5.702096462249756,-8.709874153137207,5.161318302154541
1781792847386937300,11.269937255859375,-0.3693920075893402,-7.635497093200684,4.509573459625244
1781792847435460600,11.318460693359375,0.24167509377002716,-9.75942611694336,5.286642551422119
1781792847483984000,11.36698388671875,3.027817964553833,-8.901300430297852,3.580260992050171
1781792847581030700,11.46403076171875,3.215355396270752,-4.871188640594482,2.493321180343628
1781792847629554200,11.51255419921875,2.4741785526275635,-4.428516387939453,1.9109679460525513
1781792847678077400,11.561077392578126,5.755635738372803,-6.004190444946289,0.7986045479774475
1781792847726600700,11.6096005859375,4.094119548797607,-13.102499008178711,5.248955726623535
1781792847775124200,11.658124267578126,4.166801452636719,-7.7823567390441895,3.2584261894226074
1781792847823647500,11.7066474609375,5.788238048553467,-8.693124771118164,1.6600207090377808
1781792847872171000,11.7551708984375,6.2566328048706055,-7.621140003204346,2.960519790649414
1781792847920694500,11.803694580078124,5.659923076629639,-8.334200859069824,1.7793627977371216
1781792847969217500,11.852217529296874,4.626223564147949,-7.230212688446045,1.4395818710327148
1781792848017741000,11.900740966796874,2.793919563293457,-4.863112926483154,-0.5799604058265686
1781792848066264300,11.949264404296875,6.482156753540039,-7.75753116607666,4.886742115020752
1781792848114787800,11.997787841796875,5.000401020050049,-10.923833847045898,5.3216376304626465
1781792848163311400,12.046311279296875,3.9514474868774414,-10.179965019226074,3.761517286300659
1781792848211834600,12.094834716796875,4.579264163970947,-13.495519638061523,3.1019954681396484
1781792848260358100,12.143358154296875,6.344868183135986,-11.279168128967285,1.862214207649231
1781792848308881700,12.191881591796875,6.104090690612793,-8.499305725097656,0.8533403873443604
1781792848357405000,12.240405029296875,1.3609179258346558,-1.9157536029815674,-0.9394819736480713
1781792848405928200,12.28892822265625,2.6386852264404297,-4.983352184295654,1.6671991348266602
1781792848454451700,12.33745166015625,3.4953157901763916,-7.546962738037109,2.5076780319213867
1781792848502975000,12.38597509765625,-0.3080759048461914,-6.276373863220215,5.576174259185791
1781792848551498500,12.43449853515625,6.107978820800781,-11.696117401123047,7.281957626342773
1781792848600022000,12.48302197265625,7.042974472045898,-10.49791145324707,5.382953643798828
1781792848648545300,12.531545166015626,-0.384347140789032,-8.098209381103516,3.743271827697754
1781792848697068800,12.58006884765625,-5.187041282653809,-6.639484405517578,4.925924301147461
1781792848745592300,12.62859228515625,-1.2762718200683594,-8.949156761169434,5.966802597045898
1781792848794115600,12.677115478515624,2.0237298011779785,-9.043374061584473,7.022336483001709
1781792848842639000,12.72563916015625,2.3330020904541016,-7.668398380279541,6.647859573364258
1781792848891162400,12.774162353515624,0.875174880027771,-6.610471725463867,5.257031440734863
1781792848939685600,12.822685546875,-1.267298698425293,-6.661618232727051,6.004489421844482
1781792848988209200,12.871209228515625,-1.3773685693740845,-8.080561637878418,6.606583118438721
1781792849085256200,12.968256103515625,-0.4292125701904297,-9.875179290771484,7.194320201873779
1781792849133779700,13.01677978515625,-1.80508553981781,-9.44626522064209,8.792725563049316
1781792849182302700,13.065302734375,-0.4695914387702942,-10.060323715209961,8.606085777282715
1781792849230826200,13.113826171875,-0.20488543808460236,-10.29452133178711,7.3292155265808105
1781792849279349800,13.162349853515625,0.8656035661697388,-9.161520004272461,4.958526611328125
1781792849327873000,13.210873046875,0.4866403043270111,-7.974679470062256,3.5635111331939697
1781792849376396500,13.259396484375,4.12851619720459,-9.442975044250488,1.363310694694519
1781792849424920000,13.307920166015625,0.8231309652328491,-5.828916072845459,1.1276177167892456
1781792849473443300,13.356443359375,2.3359930515289307,-5.062614440917969,0.9828519225120544
1781792849521966800,13.404966796875,6.353542327880859,-6.797111988067627,2.644068956375122
1781792849570490400,13.453490478515626,6.817749977111816,-9.418149948120117,2.107478618621826
1781792849619013600,13.502013671875,2.4511477947235107,-9.079266548156738,2.265105724334717
1781792849667537200,13.550537109375,6.177370548248291,-5.013860702514648,1.4422738552093506
1781792849716060700,13.599060791015624,3.537489175796509,-8.421838760375977,0.7863413691520691
1781792849764584000,13.647583984375,5.6925249099731445,-7.967501163482666,1.7425731420516968
1781792849813107500,13.696107421875,4.618745803833008,-10.066006660461426,2.376671075820923
1781792849861631000,13.744630859375,2.550748825073242,-11.545967102050781,3.609273910522461
1781792849910154200,13.793154296875,1.9591234922409058,-9.503693580627441,4.271188259124756
1781792849958677800,13.841677734375,2.2917258739471436,-8.723334312438965,3.688236951828003
1781792850055724800,13.938724853515625,2.5746772289276123,-9.513264656066895,3.682554006576538
1781792850152771600,14.035771484375,0.14416755735874176,-8.591130256652832,4.334000110626221
1781792850249818400,14.132818359375,1.1054840087890625,-9.664012908935547,2.017747640609741
1781792850346865400,14.229865478515626,0.1010967567563057,-8.609375953674316,0.8102695941925049
1781792850443912200,14.326912109375,-0.9505487680435181,-11.336296081542969,0.9625129103660583
1781792850540959000,14.423958984375,0.4660021960735321,-11.08774185180664,-0.9786644577980042
1781792850638005800,14.521005859375,0.4145565330982208,-9.313464164733887,0.5162515044212341
1781792850735052800,14.618052734375,-0.10438688844442368,-10.408778190612793,1.0552347898483276
1781792850832099600,14.715099609375,-1.2954143285751343,-6.6215386390686035,0.7639086246490479
1781792850929146600,14.812146728515625,-0.6508477330207825,-8.256134986877441,0.7136593461036682
1781792851026193400,14.909193359375,-0.7283154129981995,-16.492231369018555,-0.45613181591033936
1781792851123240200,15.006240234375,0.16331014037132263,-8.061419486999512,0.6254240274429321
1781792851220287200,15.103287353515626,-0.3436691462993622,-9.886245727539062,0.029312077909708023
1781792851317334000,15.200333984375,-0.46360939741134644,-7.301399230957031,-0.7336992621421814
1781792851414381000,15.297381103515624,-0.24017956852912903,-11.423933982849121,-1.0426725149154663
1781792851511427800,15.394427734375,-0.02632104977965355,-10.235597610473633,-0.576670229434967
1781792851608475000,15.491474853515625,0.31734809279441833,-9.485747337341309,-0.0062811593525111675
1781792851705521700,15.588521728515625,0.1579262912273407,-10.049257278442383,-0.5392823815345764
1781792851802568700,15.685568603515625,0.2183450609445572,-9.80100154876709,-0.8413762450218201
1781792851899615500,15.782615478515625,-0.06759724020957947,-10.066604614257812,-0.48006004095077515
1781792851996662500,15.87966259765625,-0.05892325937747955,-9.67238712310791,-0.8407780528068542
1781792852093709300,15.976709228515626,0.08853443711996078,-9.771689414978027,-0.9553344249725342
1781792852190756400,16.07375634765625,-0.07178468257188797,-10.022636413574219,-0.4049852192401886
1781792852287803100,16.17080322265625,-0.09661021083593369,-9.949356079101562,-0.08853443711996078
1781792852384850200,16.26785009765625,0.4417748749256134,-10.048957824707031,0.07986045628786087
1781792852481897000,16.36489697265625,0.5928218364715576,-10.042078018188477,0.26141586899757385
1781792852578944000,16.461944091796877,0.08464609831571579,-9.889535903930664,-0.5656034350395203
1781792852675991000,16.558990966796873,-0.1824527233839035,-9.965209007263184,-0.7393822073936462
1781792852773037800,16.656037841796874,-0.03918246924877167,-9.8267240524292,-0.6885347366333008
1781792852870084900,16.7530849609375,-0.007178467698395252,-10.007681846618652,-0.5656034350395203
1781792852967131600,16.850131591796874,0.08614161610603333,-9.93559741973877,-0.5485545992851257
1781792853064178700,16.9471787109375,0.1133599728345871,-9.939187049865723,-0.4731806814670563
1781792853161225700,17.044225830078126,0.09272187948226929,-9.961918830871582,-0.46839502453804016
1781792853258272500,17.1412724609375,0.07896314561367035,-9.93679428100586,-0.4624129831790924
1781792853355319600,17.238319580078127,0.10857433080673218,-9.922138214111328,-0.5814558863639832
1781792853403843000,17.286843017578125,0.11545369029045105,-9.954142570495605,-0.5967101454734802
1781792853452366300,17.335366455078123,0.10767702013254166,-9.9502534866333,-0.5512465238571167
1781792853500889900,17.383889892578125,0.11545369029045105,-9.899106979370117,-0.5183451771736145
1781792853549413400,17.432413330078123,0.08673982322216034,-9.929316520690918,-0.5102694034576416
1781792853597937000,17.48093701171875,0.0568295381963253,-9.936494827270508,-0.4938187599182129
1781792853646460400,17.52946044921875,0.040677983313798904,-9.972387313842773,-0.4983053207397461
1781792853694983700,17.577983642578126,0.03888336941599846,-9.93978500366211,-0.5440680384635925
1781792853743507500,17.626507568359376,0.062213387340307236,-9.950852394104004,-0.5159524083137512
1781792853792031000,17.675031005859374,0.06999006122350693,-9.937990188598633,-0.5231308341026306
1781792853840554500,17.723554443359376,0.14117653667926788,-9.907182693481445,-0.4244269132614136
1781792853889077800,17.772077880859374,0.1372881978750229,-9.952347755432129,-0.42681974172592163
1781792853937601300,17.820601318359376,0.1618146300315857,-9.913464546203613,-0.4217349886894226
1781792853986124800,17.869124755859374,0.15224334597587585,-9.965209007263184,-0.4498506486415863
1781792854083171800,17.966171875,0.1333998590707779,-9.966106414794922,-0.4618147611618042
1781792854131695000,18.014695068359377,0.13968102633953094,-9.976275444030762,-0.4420739710330963
1781792854180218600,18.063218505859375,0.13489536941051483,-9.949356079101562,-0.46480581164360046
1781792854228742400,18.111742431640625,0.1585244983434677,-9.926923751831055,-0.45224347710609436
1781792854277265700,18.160265625,0.18095721304416656,-9.930213928222656,-0.44327038526535034
1781792854325789200,18.2087890625,0.18484555184841156,-9.974780082702637,-0.4492524564266205
1781792854374312700,18.257312744140624,0.17647066712379456,-9.967601776123047,-0.5033900737762451
1781792854422836000,18.3058359375,0.17168502509593964,-9.938887596130371,-0.4531407952308655
1781792854471359500,18.354359375,0.18035900592803955,-9.934401512145996,-0.43489551544189453
1781792854519883300,18.40288330078125,0.20488543808460236,-9.91107177734375,-0.43549370765686035
1781792854568406500,18.451406494140624,0.1908276081085205,-9.951749801635742,-0.481854647397995
1781792854616930000,18.499929931640626,0.20039889216423035,-9.949954986572266,-0.46002015471458435
1781792854665453600,18.54845361328125,0.2186441719532013,-9.967901229858398,-0.46839502453804016
1781792854713977000,18.59697705078125,0.2353939265012741,-9.9502534866333,-0.45553362369537354
1781792854762500600,18.64550048828125,0.23030917346477509,-9.919147491455078,-0.41485562920570374
1781792854811024000,18.69402392578125,0.22582264244556427,-9.958329200744629,-0.4384847581386566
1781792854859547400,18.74254736328125,0.21625134348869324,-9.933204650878906,-0.4411766827106476
1781792854908071000,18.79107080078125,0.21954147517681122,-9.963713645935059,-0.45134615898132324
1781792854956594400,18.839594482421877,0.2111666053533554,-9.962218284606934,-0.42412781715393066
1781792855005118000,18.888117919921875,0.23300109803676605,-9.952347755432129,-0.42412781715393066
1781792855053641500,18.936641357421873,0.2350948303937912,-9.958030700683594,-0.4507479667663574
1781792855102165000,18.9851650390625,0.22821545600891113,-9.943673133850098,-0.4408775866031647
1781792855150688500,19.0336884765625,0.20338992774486542,-9.954142570495605,-0.46719861030578613
1781792855199212000,19.0822119140625,0.21206390857696533,-9.942177772521973,-0.4579264223575592
1781792855247735300,19.1307353515625,0.20578274130821228,-9.937392234802246,-0.4576273262500763
1781792855296258800,19.1792587890625,0.20398813486099243,-9.95563793182373,-0.46031925082206726
1781792855344782300,19.2277822265625,0.21206390857696533,-9.946066856384277,-0.4704887568950653
1781792855393305900,19.276305908203124,0.2024926096200943,-9.949954986572266,-0.4776672124862671
1781792855441829400,19.324829345703126,0.19770696759223938,-9.931709289550781,-0.47288158535957336
1781792855490353000,19.373352783203124,0.22103698551654816,-9.948758125305176,-0.45942193269729614
1781792855587400000,19.47039990234375,0.20757736265659332,-9.946066856384277,-0.4259224236011505
1781792855635923200,19.518923095703126,0.19142581522464752,-9.946365356445312,-0.4576273262500763
1781792855684446700,19.56744677734375,0.22821545600891113,-9.9140625,-0.42771705985069275
1781792855732970200,19.61597021484375,0.1986042857170105,-9.966106414794922,-0.4205385744571686
1781792855781493500,19.664493408203125,0.19920247793197632,-9.93978500366211,-0.4265206456184387
1781792855830017300,19.713017333984375,0.17168502509593964,-9.943673133850098,-0.4384847581386566
1781792855878540800,19.761540771484373,0.17647066712379456,-9.964311599731445,-0.44745782017707825
1781792855927064000,19.81006396484375,0.17318053543567657,-9.936494827270508,-0.43489551544189453
1781792855975587600,19.858587646484374,0.1788634955883026,-9.952646255493164,-0.45164528489112854
1781792856024111000,19.907111083984375,0.19202402234077454,-9.931709289550781,-0.4657030999660492
1781792856072634600,19.955634521484374,0.1947159469127655,-9.942177772521973,-0.4657030999660492
1781792856121158100,20.004158203125,0.18424734473228455,-9.953543663024902,-0.46002015471458435
1781792856169681700,20.052681640625,0.1788634955883026,-9.937990188598633,-0.4695914387702942
1781792856218205000,20.101204833984376,0.1660020649433136,-9.945169448852539,-0.4707878530025482
1781792856266728400,20.149728515625,0.16899310052394867,-9.928718566894531,-0.4785645306110382
1781792856315252000,20.198251953125,0.15463615953922272,-9.960722923278809,-0.4612165689468384
1781792856363775500,20.246775390625,0.14356936514377594,-9.938289642333984,-0.46480581164360046
1781792856412299000,20.295299072265625,0.16450655460357666,-9.937392234802246,-0.4507479667663574
1781792856460822500,20.343822509765626,0.15702898800373077,-9.949954986572266,-0.4465605318546295
1781792856509345800,20.392345703125,0.15493527054786682,-9.93978500366211,-0.4384847581386566
1781792856557869300,20.440869384765627,0.15493527054786682,-9.946066856384277,-0.4504488706588745
1781792856606393000,20.48939306640625,0.1704886108636856,-9.953543663024902,-0.45523449778556824
1781792856654916400,20.537916259765623,0.1540379524230957,-9.958928108215332,-0.44745782017707825
1781792856703440000,20.58643994140625,0.18364913761615753,-9.937990188598633,-0.4459623098373413
1781792856751963400,20.63496337890625,0.1666002720594406,-9.949356079101562,-0.44805604219436646
1781792856800486700,20.683486572265625,0.1788634955883026,-9.937990188598633,-0.5009972453117371
1781792856849010200,20.73201025390625,0.1737787425518036,-9.930213928222656,-0.498604416847229
1781792856897534000,20.780533935546874,0.16929219663143158,-9.961320877075195,-0.4660021960735321
1781792856946057200,20.82905712890625,0.16689938306808472,-9.946066856384277,-0.47527438402175903
1781792856994580700,20.877580810546874,0.15553347766399384,-9.933204650878906,-0.43160539865493774
1781792857043104300,20.926104248046876,0.15553347766399384,-9.953543663024902,-0.40259242057800293
1781792857091627800,20.974627685546874,0.14835500717163086,-9.952646255493164,-0.3837489187717438
1781792857140151000,21.023151123046876,0.20877377688884735,-9.897611618041992,-0.2584248483181
1781792857188674600,21.071674560546874,0.21146570146083832,-9.940682411193848,-0.3475574851036072
1781792857237198000,21.120197998046876,0.22881366312503815,-9.99571704864502,-0.4737788736820221
1781792857285721600,21.1687216796875,0.20757736265659332,-9.958030700683594,-0.6116653084754944
1781792857334245000,21.2172451171875,0.2072782665491104,-9.911968231201172,-0.5808576941490173
1781792857382768600,21.2657685546875,0.1866401731967926,-9.944570541381836,-0.5982056856155396
1781792857431292000,21.3142919921875,0.2144567221403122,-9.919745445251465,-0.6086742877960205
1781792857479815400,21.3628154296875,0.18424734473228455,-9.964611053466797,-0.589531660079956
1781792857528339000,21.4113388671875,0.2072782665491104,-9.972387313842773,-0.5368895530700684
1781792857576862500,21.459862548828124,0.23300109803676605,-9.892526626586914,-0.4824528694152832
1781792857625386000,21.508385986328125,0.2470589429140091,-9.938887596130371,-0.3436691462993622
1781792857673909500,21.556909423828124,0.22492532432079315,-10.002596855163574,-0.33439695835113525
1781792857722432800,21.605432861328126,0.2312064915895462,-9.9469633102417,-0.35473597049713135
1781792857770956300,21.653956298828124,0.22193430364131927,-9.959526062011719,-0.42831525206565857
1781792857819479800,21.702479736328126,0.22103698551654816,-9.949954986572266,-0.4082753658294678
1781792857868003000,21.751003173828124,0.22163519263267517,-9.938887596130371,-0.397208571434021
1781792857916526600,21.799526611328126,0.20518454909324646,-9.945467948913574,-0.393320232629776
1781792857965050400,21.84805029296875,0.17766708135604858,-9.966106414794922,-0.4205385744571686
1781792858013573600,21.89657373046875,0.1660020649433136,-9.935896873474121,-0.4489533603191376
1781792858062097200,21.94509716796875,0.1660020649433136,-9.930811882019043,-0.4459623098373413
1781792858110620700,21.99362060546875,0.16031911969184875,-9.945169448852539,-0.4336991012096405
1781792858159144000,22.04214404296875,0.13938191533088684,-9.966106414794922,-0.45224347710609436
1781792858207667500,22.09066748046875,0.125324085354805,-9.961918830871582,-0.5126622319221497
1781792858256191000,22.13919091796875,0.1094716340303421,-9.949356079101562,-0.5234299302101135
1781792858304714500,22.187714599609375,0.15732808411121368,-9.988240242004395,-0.44416770339012146
1781792858353237800,22.23623779296875,0.16331014037132263,-9.912567138671875,-0.4292125701904297
1781792858401761300,22.28476123046875,0.1908276081085205,-9.938887596130371,-0.47617170214653015
1781792858450284800,22.333284912109374,0.19292132556438446,-9.919745445251465,-0.4336991012096405
1781792858498808300,22.381808349609376,0.19770696759223938,-9.908080101013184,-0.42831525206565857
1781792858547331800,22.430331787109374,0.12502498924732208,-9.953543663024902,-0.4217349886894226
1781792858595855400,22.47885546875,0.07328019291162491,-9.946365356445312,-0.5240281820297241
1781792858644378600,22.527378662109374,0.10767702013254166,-9.951749801635742,-0.5279164910316467
1781792858692902100,22.575902099609376,0.08195417374372482,-9.945467948913574,-0.5703890919685364
1781792858741425700,22.62442578125,0.08285148441791534,-9.957133293151855,-0.5808576941490173
1781792858789949000,22.672948974609376,0.07417750358581543,-9.929316520690918,-0.48723849654197693
1781792858838472400,22.721472412109375,0.1178465187549591,-9.927223205566406,-0.48484569787979126
1781792858886996000,22.769995849609376,0.1579262912273407,-9.991530418395996,-0.5724828243255615
1781792858935519200,22.818519287109375,0.15493527054786682,-9.976275444030762,-0.6317051649093628
1781792858984042800,22.867042724609377,0.19800607860088348,-9.869794845581055,-0.6116653084754944
1781792859032566300,22.915566162109375,0.20428723096847534,-9.934102058410645,-0.47557350993156433
1781792859081089500,22.964089599609373,0.1698904037475586,-9.922138214111328,-0.3978067636489868
1781792859129613000,23.012613037109375,0.11635100096464157,-9.972686767578125,-0.40737804770469666
1781792859178136600,23.061136474609373,0.06759724020957947,-9.974780082702637,-0.5177469849586487
1781792859226659800,23.109659912109375,0.08315058797597885,-9.915857315063477,-0.6191428303718567
1781792859275183400,23.158183349609374,0.10438688844442368,-9.941579818725586,-0.5796613097190857
1781792859323707100,23.20670703125,0.13250255584716797,-9.931709289550781,-0.498604416847229
1781792859372230400,23.25523046875,0.14356936514377594,-9.924530982971191,-0.46839502453804016
1781792859420754000,23.30375390625,0.16121642291545868,-9.951150894165039,-0.4420739710330963
1781792859469277400,23.35227734375,0.1746760457754135,-9.942177772521973,-0.41096729040145874
1781792859517800700,23.40080078125,0.17228323221206665,-9.953245162963867,-0.4420739710330963
1781792859566324200,23.44932421875,0.16271193325519562,-9.960722923278809,-0.4911268353462219
1781792859614847700,23.49784765625,0.13579268753528595,-9.958030700683594,-0.498604416847229
1781792859663371300,23.546371337890626,0.15882360935211182,-9.966106414794922,-0.498604416847229
1781792859711894500,23.59489453125,0.15224334597587585,-9.931111335754395,-0.49680981040000916
1781792859760418000,23.64341796875,0.15942180156707764,-9.955039978027344,-0.498604416847229
1781792859808941600,23.691941650390625,0.17168502509593964,-9.934102058410645,-0.48006004095077515
1781792859857464800,23.74046484375,0.1737787425518036,-9.916455268859863,-0.38673996925354004
1781792859905988400,23.78898828125,0.14745768904685974,-9.958928108215332,-0.37866419553756714
1781792859954511600,23.83751171875,0.14267204701900482,-9.979865074157715,-0.5350949764251709
1781792860003035000,23.886034912109373,0.13160525262355804,-9.957432746887207,-0.6906284093856812
1781792860051558400,23.934558349609375,0.16929219663143158,-9.916754722595215,-0.6323033571243286
1781792860100082000,23.98308203125,0.21774685382843018,-9.908679008483887,-0.41216370463371277
1781792860148605200,24.031605224609375,0.20967108011245728,-9.926923751831055,-0.24406790733337402
1781792860197128700,24.080128662109374,0.16420745849609375,-10.003793716430664,-0.31824541091918945
1781792860245652200,24.12865234375,0.1052841991186142,-9.981958389282227,-0.6397809386253357
1781792860294175500,24.177175537109374,0.09870393574237823,-9.902098655700684,-0.7097710371017456
1781792860342699000,24.225698974609376,0.14057832956314087,-9.8871431350708,-0.5081757307052612
1781792860391222500,24.274222412109374,0.19920247793197632,-9.951749801635742,-0.28953152894973755
1781792860439745800,24.322745849609376,0.16271193325519562,-10.002596855163574,-0.41156548261642456
1781792860488269300,24.371269287109374,0.13070793449878693,-9.922138214111328,-0.6035895347595215
1781792860536792800,24.419792724609376,0.11575279384851456,-9.931111335754395,-0.6254240274429321
1781792860585316000,24.468316162109375,0.1420738399028778,-9.92243766784668,-0.47288158535957336
1781792860633839600,24.516839599609376,0.16360925137996674,-9.944570541381836,-0.39092740416526794
1781792860682363100,24.565363037109375,0.16450655460357666,-9.978967666625977,-0.43938204646110535
1781792860730886400,24.613886474609377,0.14745768904685974,-9.943673133850098,-0.4944169819355011
1781792860779409700,24.66240966796875,0.1417747437953949,-9.936494827270508,-0.5593222975730896
1781792860827933200,24.71093310546875,0.15254244208335876,-9.924830436706543,-0.5057829022407532
1781792860876456400,24.75945654296875,0.1746760457754135,-9.939187049865723,-0.4450650215148926
1781792860924980000,24.80797998046875,0.17138592898845673,-9.931709289550781,-0.37896329164505005
1781792860973503500,24.85650341796875,0.15942180156707764,-9.955936431884766,-0.44446679949760437
1781792861022026800,24.90502685546875,0.1453639715909958,-9.949954986572266,-0.4378865361213684
1781792861070550300,24.95355029296875,0.13220344483852386,-9.926325798034668,-0.5264210104942322
1781792861119073800,25.00207373046875,0.14117653667926788,-9.930213928222656,-0.498604416847229
1781792861167597000,25.05059716796875,0.12681959569454193,-9.978668212890625,-0.4911268353462219
1781792861216120300,25.099120361328126,0.11066804826259613,-9.930811882019043,-0.5105685591697693
1781792861264643800,25.147643798828124,0.11665010452270508,-9.946365356445312,-0.5401797294616699
1781792861313167400,25.19616748046875,0.12053844332695007,-9.947562217712402,-0.5389832854270935
1781792861361690600,25.244690673828124,0.14446666836738586,-9.94845962524414,-0.4983053207397461
1781792861410214100,25.293214111328126,0.1537388563156128,-9.957133293151855,-0.4863412082195282
1781792861458737400,25.3417373046875,0.16510476171970367,-9.934999465942383,-0.47796630859375
1781792861507260700,25.3902607421875,0.15553347766399384,-9.949954986572266,-0.46719861030578613
1781792861604307700,25.4873076171875,0.13938191533088684,-9.94845962524414,-0.4731806814670563
1781792861652831000,25.5358310546875,0.125324085354805,-9.971789360046387,-0.5102694034576416
1781792861701354500,25.5843544921875,0.14057832956314087,-9.919147491455078,-0.5081757307052612
1781792861749877800,25.632877685546877,0.13070793449878693,-9.946365356445312,-0.489631325006485
1781792861798401000,25.681401123046875,0.14745768904685974,-9.93679428100586,-0.4695914387702942
1781792861846924500,25.729924560546873,0.10618150234222412,-9.94845962524414,-0.5033900737762451
1781792861895448000,25.778447998046875,0.1133599728345871,-9.951150894165039,-0.5105685591697693
1781792861943971000,25.82697119140625,0.09870393574237823,-9.938887596130371,-0.5129613280296326
1781792861992494600,25.87549462890625,0.11395817995071411,-9.93978500366211,-0.5138586759567261
1781792862041018000,25.92401806640625,0.12681959569454193,-9.947562217712402,-0.5081757307052612
1781792862089541400,25.972541259765624,0.12681959569454193,-9.931111335754395,-0.5144568681716919
1781792862138065000,26.02106494140625,0.14925231039524078,-9.945467948913574,-0.48394837975502014
1781792862186588200,26.069588134765624,0.13100704550743103,-9.951749801635742,-0.5018945336341858
1781792862235111400,26.118111328125,0.125922292470932,-9.944570541381836,-0.4827519655227661
1781792862283635000,26.166635009765624,0.125922292470932,-9.961320877075195,-0.5183451771736145
1781792862332158500,26.215158447265626,0.11545369029045105,-9.926026344299316,-0.5330012440681458
1781792862380681700,26.263681640625,0.1372881978750229,-9.954142570495605,-0.5105685591697693
1781792862429205000,26.312205078125,0.11425728350877762,-9.933504104614258,-0.489631325006485
1781792862477728500,26.360728515625,0.11006984114646912,-9.957432746887207,-0.494716078042984
1781792862526251800,26.409251708984375,0.1013958603143692,-9.946365356445312,-0.4992026388645172
1781792862574775000,26.457775146484376,0.11665010452270508,-9.941280364990234,-0.494716078042984
1781792862623298600,26.506298583984375,0.10767702013254166,-9.955039978027344,-0.4875376224517822
1781792862671821800,26.55482177734375,0.13459627330303192,-9.942776679992676,-0.49351966381073
1781792862720345000,26.603344970703127,0.12921242415905,-9.92542839050293,-0.5186443328857422
1781792862768868600,26.65186865234375,0.1333998590707779,-9.949954986572266,-0.50907301902771
1781792862817391900,26.700391845703123,0.13878370821475983,-9.942177772521973,-0.5030909776687622
1781792862865915100,26.7489150390625,0.125324085354805,-9.940682411193848,-0.49351966381073
1781792862914438700,26.797438720703123,0.12023933976888657,-9.947860717773438,-0.5015954375267029
1781792862962962000,26.8459619140625,0.1091725304722786,-9.943673133850098,-0.5392823815345764
1781792863011485200,26.894485107421875,0.12442677468061447,-9.930213928222656,-0.4977070987224579
1781792863060008700,26.9430087890625,0.12023933976888657,-9.94397258758545,-0.5096712112426758
1781792863108532000,26.991531982421876,0.09870393574237823,-9.942776679992676,-0.5120640397071838
1781792863157055200,27.04005517578125,0.10767702013254166,-9.955039978027344,-0.4953143000602722
1781792863205578800,27.088578857421876,0.09990034252405167,-9.952646255493164,-0.5153541564941406
1781792863254102000,27.13710205078125,0.11096715182065964,-9.934102058410645,-0.48424747586250305
1781792863302625300,27.185625244140624,0.12113664299249649,-9.943075180053711,-0.5240281820297241
1781792863351148800,27.234148681640626,0.09571290761232376,-9.935896873474121,-0.529711127281189
1781792863399672000,27.282672119140624,0.10049854964017868,-9.955936431884766,-0.5138586759567261
1781792863448195300,27.3311953125,0.10707881301641464,-9.940682411193848,-0.4866403043270111
1781792863496718800,27.37971875,0.09900303930044174,-9.941280364990234,-0.4707878530025482
1781792863545242000,27.4282421875,0.09990034252405167,-9.962218284606934,-0.5033900737762451
1781792863593765400,27.476765380859376,0.10677970945835114,-9.90568733215332,-0.5177469849586487
1781792863642288600,27.52528857421875,0.0933200865983963,-9.960423469543457,-0.5009972453117371
1781792863690812000,27.57381201171875,0.09421738982200623,-9.95563793182373,-0.4651049077510834
1781792863739335400,27.62233544921875,0.09900303930044174,-9.926325798034668,-0.4899304509162903
1781792863787858700,27.670858642578125,0.09092725813388824,-9.952347755432129,-0.4914259612560272
1781792863836382200,27.71938232421875,0.07597211748361588,-9.946365356445312,-0.5359922647476196
1781792863884905200,27.7679052734375,0.07956135272979736,-9.942177772521973,-0.511465847492218
1781792863933428700,27.8164287109375,0.0894317477941513,-9.93679428100586,-0.529711127281189
1781792863981952000,27.864951904296873,0.09511470049619675,-9.937990188598633,-0.5279164910316467
1781792864030475300,27.913475341796875,0.10857433080673218,-9.954142570495605,-0.5222335457801819
1781792864078998800,27.961998779296874,0.10199406743049622,-9.945169448852539,-0.5072783827781677
1781792864127522000,28.01052197265625,0.11006984114646912,-9.967601776123047,-0.5150550603866577
1781792864176045300,28.05904541015625,0.09661021083593369,-9.940383911132812,-0.5401797294616699
1781792864224568600,28.107568603515624,0.11545369029045105,-9.928718566894531,-0.529412031173706
1781792864273092000,28.156092041015626,0.0933200865983963,-9.94845962524414,-0.5162515044212341
1781792864321615000,28.204614990234376,0.08793623000383377,-9.934999465942383,-0.5078766345977783
1781792864370138600,28.253138671875,0.07178468257188797,-9.965508460998535,-0.537487804889679
1781792864418662000,28.301661865234376,0.0726819857954979,-9.941579818725586,-0.5174478888511658
1781792864467185200,28.35018505859375,0.09152546525001526,-9.934999465942383,-0.5120640397071838
1781792864515708400,28.39870849609375,0.10588239878416061,-9.957133293151855,-0.4977070987224579
1781792864564232000,28.44723193359375,0.10199406743049622,-9.927821159362793,-0.5335994362831116
1781792864612755000,28.4957548828125,0.08703892678022385,-9.945467948913574,-0.5485545992851257
1781792864661278500,28.544278564453126,0.07896314561367035,-9.937990188598633,-0.537487804889679
1781792864709801700,28.5928017578125,0.0726819857954979,-9.951150894165039,-0.5174478888511658
1781792864758325000,28.641324951171875,0.06640082597732544,-9.952347755432129,-0.519242525100708
1781792864806848300,28.68984814453125,0.08285148441791534,-9.943075180053711,-0.5545366406440735
1781792864855371500,28.73837158203125,0.08075776696205139,-9.939187049865723,-0.5335994362831116
1781792864903894800,28.786894775390625,0.08853443711996078,-9.949356079101562,-0.5078766345977783
1781792864952418000,28.83541796875,0.07896314561367035,-9.946365356445312,-0.5198407173156738
1781792865000941600,28.883941650390625,0.07507480680942535,-9.937392234802246,-0.5306084156036377
1781792865049464600,28.932464599609375,0.06640082597732544,-9.946365356445312,-0.529412031173706
1781792865097988000,28.980988037109373,0.064606212079525,-9.937990188598633,-0.542572557926178
1781792865146511400,29.029511474609375,0.08075776696205139,-9.942177772521973,-0.5383850932121277
1781792865195034400,29.078034423828125,0.0687936544418335,-9.937392234802246,-0.5509474277496338
1781792865243558000,29.126557861328124,0.10438688844442368,-9.941280364990234,-0.5392823815345764
1781792865292081200,29.1750810546875,0.07567301392555237,-9.945169448852539,-0.5327021479606628
1781792865340604400,29.2236044921875,0.07956135272979736,-9.954740524291992,-0.5365904569625854
1781792865389127700,29.272127685546874,0.06640082597732544,-9.961320877075195,-0.537487804889679
1781792865437651000,29.32065087890625,0.0975075215101242,-9.90568733215332,-0.5479564070701599
1781792865486174200,29.36917431640625,0.07836493849754333,-9.955936431884766,-0.5353940725326538
1781792865534697500,29.417697509765624,0.07118647545576096,-9.945169448852539,-0.498604416847229
1781792865583221000,29.466220947265626,0.07746763527393341,-9.944570541381836,-0.5126622319221497
1781792865631744000,29.514743896484376,0.07597211748361588,-9.947562217712402,-0.5081757307052612
1781792865680267300,29.563267333984374,0.06699903309345245,-9.924530982971191,-0.5288137793540955
1781792865728790800,29.611790771484376,0.059820566326379776,-9.947562217712402,-0.5341976284980774
1781792865777313800,29.660313720703126,0.05742774158716202,-9.92961597442627,-0.5282155871391296
1781792865825837000,29.708837158203124,0.054436713457107544,-9.92243766784668,-0.529412031173706
1781792865874360600,29.757360595703126,0.0687936544418335,-9.96999454498291,-0.4172484576702118
1781792865922883600,29.805883544921876,0.08135596662759781,-9.959526062011719,-0.45134615898132324
1781792865971406800,29.85440673828125,0.09661021083593369,-9.941579818725586,-0.5365904569625854
1781792866019930400,29.902930419921876,0.12921242415905,-9.96281623840332,-0.529711127281189
1781792866068453400,29.951453369140626,0.13100704550743103,-9.923633575439453,-0.5072783827781677
1781792866116976600,29.9999765625,0.1372881978750229,-9.908080101013184,-0.5485545992851257
1781792866165500200,30.048500244140627,0.12143574655056,-9.969097137451172,-0.4001995921134949
1781792866214023200,30.097023193359377,0.13070793449878693,-9.956535339355469,-0.4130610227584839
1781792866262546400,30.14554638671875,0.0445663221180439,-9.93260669708252,-0.5407779216766357
1781792866311069700,30.194069580078125,-0.053240302950143814,-9.92124080657959,-0.6891329288482666
1781792866359593000,30.242593017578123,-0.07836493849754333,-9.958030700683594,-0.8356932997703552
1781792866408116200,30.2911162109375,0.0038883367087692022,-9.955936431884766,-0.7136593461036682
1781792866456639500,30.339639404296875,0.09421738982200623,-9.944570541381836,-0.5605186820030212
1781792866505162800,30.388162841796873,0.12382857501506805,-9.9469633102417,-0.4666004180908203
1781792866553686000,30.43668603515625,0.1908276081085205,-9.926026344299316,-0.4737788736820221
1781792866602209300,30.485209228515625,0.1779661774635315,-9.895218849182129,-0.5102694034576416
1781792866650732300,30.533732177734375,0.1621137410402298,-9.91825008392334,-0.5105685591697693
1781792866699255800,30.582255859375,0.14416755735874176,-9.965508460998535,-0.5138586759567261
1781792866747779000,30.630779052734376,0.09511470049619675,-9.958329200744629,-0.4995017349720001
1781792866796302000,30.679302001953126,0.08374879509210587,-9.96281623840332,-0.5359922647476196
1781792866844825300,30.727825439453124,0.07567301392555237,-9.971789360046387,-0.4776672124862671
1781792866893348900,30.776348876953126,0.11635100096464157,-10.00857925415039,-0.5144568681716919
1781792866941871900,30.824871826171876,0.15074782073497772,-9.910472869873047,-0.49621158838272095
1781792866990395100,30.87339501953125,0.16450655460357666,-9.879964828491211,-0.4492524564266205
1781792867038918400,30.92191845703125,0.15553347766399384,-9.940682411193848,-0.5288137793540955
1781792867087441400,30.97044140625,0.10289137065410614,-9.989436149597168,-0.5105685591697693
1781792867135965000,31.01896484375,0.12053844332695007,-9.937990188598633,-0.4468596279621124
1781792867184488200,31.06748828125,0.08315058797597885,-9.927821159362793,-0.5312066078186035
1781792867233011200,31.11601123046875,0.1178465187549591,-9.93559741973877,-0.4995017349720001
1781792867281534500,31.164534423828126,0.15553347766399384,-9.99571704864502,-0.401096910238266
1781792867330057700,31.2130576171875,0.1824527233839035,-9.967901229858398,-0.3526422381401062
1781792867378580700,31.261580810546874,0.1824527233839035,-9.888638496398926,-0.4004986882209778
1781792867427104300,31.310104248046876,0.19621145725250244,-9.947860717773438,-0.4411766827106476
1781792867475627500,31.35862744140625,0.1417747437953949,-9.926325798034668,-0.4411766827106476
1781792867524150500,31.407150634765625,0.10199406743049622,-9.950852394104004,-0.5048855543136597
1781792867572673800,31.455673828125,0.1052841991186142,-9.98853874206543,-0.5431707501411438
1781792867621197000,31.504197021484377,0.1501496136188507,-9.967601776123047,-0.4785645306110382
1781792867669720000,31.552719970703127,0.14775680005550385,-9.91107177734375,-0.4905286431312561
1781792867718243600,31.60124365234375,0.18484555184841156,-9.867103576660156,-0.5653043389320374
1781792867766766800,31.649766845703127,0.15463615953922272,-9.914361953735352,-0.5781657695770264
1781792867815289900,31.698289794921877,0.12442677468061447,-10.006186485290527,-0.6095715761184692
1781792867863813000,31.746813232421875,0.11724831163883209,-9.955039978027344,-0.4489533603191376
1781792867912336400,31.79533642578125,0.14267204701900482,-9.965508460998535,-0.39481574296951294
1781792867960859400,31.843859375,0.2183450609445572,-9.961320877075195,-0.29371899366378784
1781792868009382700,31.892382568359373,0.18903298676013947,-9.957432746887207,-0.35024940967559814
1781792868057906000,31.940906005859375,0.19770696759223938,-9.927223205566406,-0.3517449200153351
1781792868106429000,31.989428955078125,0.16121642291545868,-9.947562217712402,-0.267397940158844
1781792868154952200,32.0379521484375,0.09032905846834183,-10.002596855163574,-0.31824541091918945
1781792868203475500,32.08647534179688,0.017647067084908485,-10.032506942749023,-0.4169493317604065
1781792868251998700,32.13499877929687,0.03738785535097122,-9.948758125305176,-0.5288137793540955
1781792868300522000,32.18352197265625,0.14835500717163086,-9.828818321228027,-0.4345964193344116
1781792868349045200,32.232045166015624,0.1908276081085205,-9.841081619262695,-0.37028929591178894
1781792868397568300,32.280568359375,0.13310076296329498,-9.96999454498291,-0.4498506486415863
1781792868446091500,32.329091552734376,0.046360939741134644,-10.02413272857666,-0.6406782865524292
1781792868494614800,32.37761474609375,0.03200400248169899,-9.886545181274414,-0.7929216027259827
1781792868543137800,32.4261376953125,0.04247260093688965,-9.914959907531738,-0.6954140663146973
1781792868591661000,32.4746611328125,0.07896314561367035,-9.937392234802246,-0.5437689423561096
1781792868640184300,32.52318432617187,0.10588239878416061,-9.978070259094238,-0.5240281820297241
1781792868688707300,32.57170727539062,0.13310076296329498,-9.961918830871582,-0.44446679949760437
1781792868737230600,32.620230712890624,0.14267204701900482,-9.96281623840332,-0.48484569787979126
1781792868785753900,32.66875390625,0.1704886108636856,-9.938289642333984,-0.3924229145050049
1781792868834276900,32.71727685546875,0.1657029688358307,-9.934102058410645,-0.39571303129196167
1781792868882800000,32.765800048828126,0.13220344483852386,-9.961320877075195,-0.4082753658294678
1781792868931323400,32.81432348632813,0.15074782073497772,-9.961320877075195,-0.4387838542461395
1781792868979846400,32.86284643554688,0.17318053543567657,-9.937990188598633,-0.48035913705825806
1781792869028369700,32.91136962890625,0.11575279384851456,-9.940682411193848,-0.5054838061332703
1781792869076893000,32.95989282226562,0.14656038582324982,-9.924830436706543,-0.4378865361213684
1781792869125416000,33.008416015625,0.11904292553663254,-9.9771728515625,-0.44027936458587646
1781792869173939200,33.056939208984375,0.15643078088760376,-9.930213928222656,-0.45224347710609436
1781792869222462500,33.10546240234375,0.13968102633953094,-9.952646255493164,-0.4130610227584839
1781792869270985500,33.1539853515625,0.16510476171970367,-9.94397258758545,-0.44356951117515564
1781792869319508700,33.2025087890625,0.18335004150867462,-9.920642852783203,-0.4624129831790924
1781792869368031700,33.25103173828125,0.16839489340782166,-9.969396591186523,-0.45284169912338257
1781792869416555000,33.29955493164063,0.18125630915164948,-9.937392234802246,-0.4704887568950653
1781792869465078300,33.34807836914062,0.16839489340782166,-9.944570541381836,-0.4507479667663574
1781792869513601300,33.39660131835937,0.16899310052394867,-9.969396591186523,-0.46839502453804016
1781792869562124500,33.44512451171875,0.18095721304416656,-9.893723487854004,-0.45164528489112854
1781792869610647800,33.493647705078125,0.14446666836738586,-9.971789360046387,-0.4408775866031647
1781792869659170800,33.5421708984375,0.1453639715909958,-9.946066856384277,-0.4298107624053955
1781792869707694000,33.59069409179688,0.1420738399028778,-9.95982551574707,-0.42023947834968567
1781792869756217300,33.63921728515625,0.14267204701900482,-9.966106414794922,-0.4217349886894226
1781792869804740400,33.687740234375,0.15553347766399384,-9.938289642333984,-0.4049852192401886
1781792869853263400,33.73626342773437,0.1666002720594406,-9.955039978027344,-0.4085744619369507
1781792869901786600,33.78478662109375,0.1698904037475586,-9.926325798034668,-0.4130610227584839
1781792869950309600,33.8333095703125,0.16899310052394867,-9.938887596130371,-0.41874396800994873
1781792869998833000,33.8818330078125,0.15942180156707764,-9.953245162963867,-0.40259242057800293
1781792870047356200,33.930356201171875,0.16091732680797577,-9.955039978027344,-0.38225340843200684
1781792870095879200,33.978879150390625,0.14835500717163086,-9.95982551574707,-0.4163511395454407
1781792870144402400,34.02740234375,0.15224334597587585,-9.93559741973877,-0.46420758962631226
1781792870192925700,34.07592578125,0.1704886108636856,-9.93679428100586,-0.4001995921134949
1781792870241448700,34.12444873046875,0.18095721304416656,-9.935896873474121,-0.40289151668548584
1781792870289971700,34.1729716796875,0.18005990982055664,-9.94397258758545,-0.41874396800994873
1781792870338495000,34.22149487304687,0.18963119387626648,-9.955039978027344,-0.4124628007411957
1781792870387018000,34.27001806640625,0.17168502509593964,-9.952646255493164,-0.4369892477989197
1781792870435541200,34.318541259765624,0.1660020649433136,-9.953245162963867,-0.4331009089946747
1781792870484064500,34.367064453125,0.17766708135604858,-9.941579818725586,-0.4345964193344116
1781792870532587500,34.41558740234375,0.17527425289154053,-9.942177772521973,-0.4411766827106476
1781792870581110500,34.464110595703126,0.1660020649433136,-9.948758125305176,-0.4570291340351105
1781792870629633800,34.5126337890625,0.17766708135604858,-9.9469633102417,-0.4420739710330963
1781792870678156800,34.56115673828125,0.17527425289154053,-9.950852394104004,-0.4250251352787018
1781792870726680000,34.60968017578125,0.17946170270442963,-9.950852394104004,-0.4345964193344116
1781792870775203300,34.65820336914062,0.20757736265659332,-9.930811882019043,-0.41485562920570374
1781792870823726300,34.70672631835937,0.1944168359041214,-9.941579818725586,-0.41156548261642456
1781792870872249300,34.75524926757812,0.18424734473228455,-9.953245162963867,-0.4049852192401886
1781792870920772600,34.803772705078124,0.16121642291545868,-9.958030700683594,-0.42681974172592163
1781792870969295600,34.852295654296874,0.1540379524230957,-9.964611053466797,-0.43130627274513245
1781792871017819000,34.90081884765625,0.1417747437953949,-9.939187049865723,-0.4411766827106476
1781792871066342100,34.949342041015626,0.125324085354805,-9.945467948913574,-0.45553362369537354
1781792871114865000,34.997864990234376,0.13310076296329498,-9.940383911132812,-0.44745782017707825
1781792871163388200,35.04638818359375,0.12622138857841492,-9.952347755432129,-0.4570291340351105
1781792871211911400,35.09491137695313,0.1052841991186142,-9.957133293151855,-0.47796630859375
1781792871260434400,35.14343432617188,0.10199406743049622,-9.937392234802246,-0.46420758962631226
1781792871308957400,35.19195751953125,0.08763712644577026,-9.953245162963867,-0.4459623098373413
1781792871357480400,35.24048046875,0.0894317477941513,-9.963713645935059,-0.46331027150154114
1781792871406003700,35.28900366210937,0.08374879509210587,-9.937990188598633,-0.5150550603866577
1781792871454527000,35.33752685546875,0.07567301392555237,-9.918848037719727,-0.4827519655227661
1781792871503050000,35.386050048828125,0.08673982322216034,-9.957133293151855,-0.44446679949760437
1781792871551573000,35.434572998046875,0.06699903309345245,-9.926026344299316,-0.4704887568950653
1781792871600096300,35.48309619140625,0.07417750358581543,-9.952347755432129,-0.4666004180908203
1781792871648619300,35.53161938476563,0.04127619042992592,-9.958928108215332,-0.49292147159576416
1781792871697142300,35.58014233398438,0.05742774158716202,-9.923933029174805,-0.48723849654197693
1781792871745665500,35.62866552734375,0.059820566326379776,-9.972686767578125,-0.48813581466674805
1781792871794188500,35.6771884765625,0.07178468257188797,-9.917352676391602,-0.4995017349720001
1781792871842711800,35.7257119140625,0.07328019291162491,-9.93559741973877,-0.48723849654197693
1781792871891234800,35.77423486328125,0.06131608039140701,-9.96281623840332,-0.48484569787979126
1781792871939757800,35.8227578125,0.052043892443180084,-9.955936431884766,-0.4627120792865753
1781792871988281000,35.87128100585937,0.047258246690034866,-9.950852394104004,-0.47796630859375
1781792872036804000,35.91980419921875,0.05802594870328903,-9.950852394104004,-0.5039882659912109
1781792872085327000,35.9683271484375,0.06610172241926193,-9.920044898986816,-0.4827519655227661
1781792872133850400,36.016850341796875,0.05503492057323456,-9.953245162963867,-0.47617170214653015
1781792872182373600,36.06537353515625,0.05024927482008934,-9.939187049865723,-0.4585246443748474
1781792872230896400,36.113896484375,0.04307080805301666,-9.944570541381836,-0.4875376224517822
1781792872279419600,36.16241967773438,0.041575293987989426,-9.958928108215332,-0.47228336334228516
1781792872327943000,36.21094287109375,0.04217349737882614,-9.947562217712402,-0.481854647397995
1781792872376465700,36.25946557617188,0.05353940650820732,-9.959526062011719,-0.47228336334228516
1781792872424989000,36.30798901367187,0.07836493849754333,-9.933204650878906,-0.48394837975502014
1781792872473512200,36.35651220703125,0.09032905846834183,-9.9469633102417,-0.4695914387702942
1781792872522035000,36.40503491210937,0.09421738982200623,-9.942776679992676,-0.45134615898132324
1781792872570558200,36.45355810546875,0.09661021083593369,-9.955039978027344,-0.44416770339012146
1781792872619081500,36.50208154296875,0.09182456880807877,-9.960423469543457,-0.4666004180908203
1781792872667604200,36.550604248046874,0.10199406743049622,-9.93978500366211,-0.5009972453117371
1781792872716127500,36.59912744140625,0.11246266216039658,-9.935896873474121,-0.45942193269729614
1781792872764650500,36.647650390625,0.12113664299249649,-9.950852394104004,-0.42831525206565857
1781792872813173500,36.696173583984375,0.10707881301641464,-9.955936431884766,-0.4576273262500763
1781792872861696800,36.74469677734375,0.11485548317432404,-9.942776679992676,-0.46031925082206726
1781792872910219800,36.7932197265625,0.125324085354805,-9.946066856384277,-0.4205385744571686
1781792872958742800,36.84174267578125,0.1339980661869049,-9.954740524291992,-0.43609192967414856
1781792873007266000,36.89026611328125,0.1381855010986328,-9.949356079101562,-0.44027936458587646
1781792873055789000,36.9387890625,0.13968102633953094,-9.946066856384277,-0.45643091201782227
1781792873104312000,36.98731201171875,0.13549357652664185,-9.94845962524414,-0.45643091201782227
1781792873152835000,37.0358349609375,0.14057832956314087,-9.949356079101562,-0.44446679949760437
1781792873201358000,37.08435815429687,0.13698910176753998,-9.946365356445312,-0.4298107624053955
1781792873249881300,37.13288134765625,0.14745768904685974,-9.949356079101562,-0.42831525206565857
1781792873298404400,37.181404296875,0.13639089465141296,-9.965209007263184,-0.4624129831790924
1781792873346927400,37.22992724609375,0.1417747437953949,-9.943075180053711,-0.48424747586250305
1781792873395450400,37.278450439453124,0.14446666836738586,-9.943075180053711,-0.43639102578163147
1781792873443973600,37.3269736328125,0.13160525262355804,-9.953543663024902,-0.4220340847969055
1781792873492496400,37.375496337890624,0.1372881978750229,-9.936494827270508,-0.4298107624053955
1781792873541019600,37.42401953125,0.14297115802764893,-9.957432746887207,-0.43609192967414856
1781792873589543000,37.47254296875,0.12771691381931305,-9.941280364990234,-0.4378865361213684
1781792873638065700,37.521065673828126,0.14267204701900482,-9.938289642333984,-0.4253242313861847
1781792873686589000,37.5695888671875,0.12921242415905,-9.952347755432129,-0.43639102578163147
1781792873735112000,37.61811181640625,0.1372881978750229,-9.940383911132812,-0.4244269132614136
1781792873783635000,37.66663500976563,0.12502498924732208,-9.938289642333984,-0.4459623098373413
1781792873832158000,37.71515795898438,0.1333998590707779,-9.937392234802246,-0.4426721930503845
1781792873880681200,37.76368115234375,0.11575279384851456,-9.951150894165039,-0.4345964193344116
1781792873929204000,37.81220385742188,0.11904292553663254,-9.958030700683594,-0.44446679949760437
1781792873977727200,37.86072729492187,0.1333998590707779,-9.934401512145996,-0.4588237404823303
1781792874026250200,37.90925024414062,0.125324085354805,-9.93978500366211,-0.4411766827106476
1781792874074773200,37.95777319335937,0.13220344483852386,-9.95563793182373,-0.4387838542461395
1781792874123296300,38.00629614257812,0.11246266216039658,-9.962218284606934,-0.4498506486415863
1781792874171819300,38.0548193359375,0.12382857501506805,-9.949356079101562,-0.4331009089946747
1781792874220342300,38.10334228515625,0.10827522724866867,-9.935896873474121,-0.44027936458587646
1781792874268865500,38.151865478515624,0.1339980661869049,-9.948758125305176,-0.4307080805301666
1781792874317388500,38.200388427734374,0.1417747437953949,-9.947562217712402,-0.4384847581386566
1781792874365911600,38.24891162109375,0.14267204701900482,-9.93559741973877,-0.44027936458587646
1781792874414434600,38.2974345703125,0.1453639715909958,-9.939187049865723,-0.41216370463371277
1781792874462957600,38.34595751953125,0.15643078088760376,-9.955936431884766,-0.42741793394088745
1781792874511480600,38.39448046875,0.13459627330303192,-9.953543663024902,-0.41934216022491455
1781792874560003800,38.44300390625,0.12921242415905,-9.953245162963867,-0.39870408177375793
1781792874608526600,38.491526611328126,0.13160525262355804,-9.972686767578125,-0.44805604219436646
1781792874657049900,38.5400498046875,0.1860419660806656,-9.9140625,-0.4001995921134949
1781792874705572900,38.58857275390625,0.1666002720594406,-9.967601776123047,-0.4211367964744568
1781792874754095900,38.63709594726563,0.17288143932819366,-9.939187049865723,-0.4226323068141937
1781792874802619000,38.68561889648438,0.1704886108636856,-9.936494827270508,-0.42023947834968567
1781792874851142100,38.73414208984375,0.16450655460357666,-9.963115692138672,-0.43609192967414856
1781792874899665000,38.78266479492188,0.17288143932819366,-9.93260669708252,-0.4253242313861847
1781792874948188200,38.83118823242187,0.15134602785110474,-9.958329200744629,-0.4408775866031647
1781792874996711200,38.87971118164062,0.15942180156707764,-9.931111335754395,-0.4420739710330963
1781792875045234000,38.92823388671875,0.16510476171970367,-9.946365356445312,-0.4369892477989197
1781792875093757200,38.97675708007812,0.16271193325519562,-9.941579818725586,-0.4253242313861847
1781792875142280200,39.0252802734375,0.1657029688358307,-9.946365356445312,-0.4211367964744568
1781792875190803200,39.07380322265625,0.16929219663143158,-9.95982551574707,-0.4061816334724426
1781792875239326200,39.122326171875,0.17318053543567657,-9.947860717773438,-0.4468596279621124
1781792875287849200,39.17084912109375,0.18903298676013947,-9.926026344299316,-0.380458801984787
1781792875336372200,39.219372314453125,0.17946170270442963,-9.963713645935059,-0.3756731450557709
1781792875384895200,39.267895263671875,0.1737787425518036,-9.928718566894531,-0.38703906536102295
1781792875433418200,39.316418212890625,0.19202402234077454,-9.95563793182373,-0.3939184248447418
1781792875481941200,39.364941162109375,0.17706887423992157,-9.942776679992676,-0.4205385744571686
1781792875530464500,39.41346459960938,0.17706887423992157,-9.952646255493164,-0.4181457459926605
1781792875578987500,39.46198754882813,0.18364913761615753,-9.957133293151855,-0.4100699722766876
1781792875627510300,39.51051025390625,0.19710876047611237,-9.941280364990234,-0.393320232629776
1781792875676033500,39.55903344726563,0.2063809484243393,-9.933504104614258,-0.4130610227584839
1781792875724556300,39.60755639648438,0.21774685382843018,-9.94397258758545,-0.39421752095222473
1781792875773079600,39.65607958984375,0.20488543808460236,-9.95982551574707,-0.3607180118560791
1781792875821602600,39.7046025390625,0.1947159469127655,-9.9771728515625,-0.3966103494167328
1781792875870125300,39.75312524414063,0.20907287299633026,-9.918848037719727,-0.41156548261642456
1781792875918648600,39.80164868164063,0.21595224738121033,-9.92542839050293,-0.3451646566390991
1781792875967171600,39.85017163085938,0.22791635990142822,-9.93978500366211,-0.359820693731308
1781792876015694300,39.8986943359375,0.22103698551654816,-9.956535339355469,-0.3652045428752899
1781792876064217600,39.94721752929688,0.2072782665491104,-9.95563793182373,-0.4043870270252228
1781792876112740600,39.99574072265625,0.19800607860088348,-9.954142570495605,-0.4043870270252228
1781792876161263400,40.04426342773438,0.18424734473228455,-9.974780082702637,-0.3885345757007599
1781792876209786600,40.09278662109375,0.19202402234077454,-9.960423469543457,-0.41545382142066956
1781792876258309600,40.1413095703125,0.20518454909324646,-9.921540260314941,-0.4250251352787018
1781792876306832600,40.18983251953125,0.18514464795589447,-9.967601776123047,-0.3798605799674988
1781792876355355600,40.23835571289062,0.10468599200248718,-10.002596855163574,-0.37148571014404297
1781792876403878700,40.28687866210937,0.0487537607550621,-9.975079536437988,-0.3406781256198883
1781792876452401700,40.33540161132812,-0.008973085321485996,-10.016355514526367,-0.401096910238266
1781792876500924700,40.38392456054687,-0.0891326442360878,-10.019346237182617,-0.3517449200153351
1781792876549447400,40.43244750976562,-0.15074782073497772,-10.013962745666504,-0.36610186100006104
1781792876597970700,40.480970703125,-0.06939185410737991,-9.88086223602295,-0.3245265781879425
1781792876646493700,40.52949365234375,-0.059820566326379776,-9.817750930786133,-0.30568310618400574
1781792876695016400,40.57801635742187,0.054436713457107544,-9.883255004882812,-0.1501496136188507
1781792876743539500,40.62653955078125,0.125922292470932,-9.897313117980957,-0.07956135272979736
1781792876792062700,40.675062744140625,0.23210379481315613,-9.860223770141602,-0.24795624613761902
1781792876840585500,40.72358544921875,0.19770696759223938,-9.843174934387207,-0.4172484576702118
1781792876889108500,40.7721083984375,0.11096715182065964,-9.86949634552002,-0.607776939868927
1781792876937631500,40.820631591796875,0.08434699475765228,-9.902397155761719,-0.5605186820030212
1781792876986154500,40.869154541015625,-0.07088737189769745,-9.991828918457031,-0.39541393518447876
1781792877034677500,40.917677490234375,-0.17527425289154053,-10.06421184539795,-0.48095735907554626
1781792877083200500,40.966200439453125,0.14446666836738586,-10.022038459777832,-0.9278169870376587
1781792877131723500,41.0147236328125,0.37866419553756714,-10.080962181091309,-1.0432707071304321
1781792877180246500,41.06324658203125,0.7052844762802124,-10.293923377990723,-0.6550351977348328
1781792877228769500,41.11176953125,0.7639086246490479,-9.994221687316895,-1.2484551668167114
1781792877277292500,41.16029248046875,0.6451647877693176,-9.933504104614258,-0.908674418926239
1781792877325815600,41.20881567382813,0.5365904569625854,-9.938289642333984,-0.05742774158716202
1781792877374338600,41.25733862304688,0.5509474277496338,-9.867103576660156,-0.5330012440681458
1781792877422861300,41.305861328125,0.6382854580879211,-9.637392044067383,-1.1685947179794312
1781792877471384600,41.35438452148438,0.7872386574745178,-9.575179100036621,-1.0806585550308228
1781792877519907300,41.4029072265625,1.1303095817565918,-9.754940032958984,-1.0393823385238647
1781792877568430300,41.45143041992188,1.1024930477142334,-9.835099220275879,-1.332203984260559
1781792877616953300,41.49995336914063,0.8988040089607239,-10.17727279663086,-2.0324037075042725
1781792877665476400,41.54847631835938,0.7336992621421814,-11.2247314453125,-2.768495798110962
1781792877713999400,41.59699926757813,2.257927179336548,-11.665608406066895,-1.0609177350997925
1781792877762522400,41.6455224609375,2.0093727111816406,-10.36510944366455,0.9349954724311829
1781792877811045000,41.69404516601563,-0.6762714982032776,-8.49990463256836,-1.1467602252960205
1781792877859568400,41.742568359375,-2.126322031021118,-8.714061737060547,-0.48514479398727417
1781792877908091400,41.79109130859375,-2.7846474647521973,-10.865209579467773,-0.08673982322216034
1781792877956614100,41.8396142578125,-1.5433706045150757,-9.22582721710205,0.5521438121795654
1781792878005137200,41.88813720703125,-0.125324085354805,-10.535597801208496,-0.22402802109718323
1781792878053660200,41.93666015625,-0.9355936646461487,-9.592227935791016,-0.26500511169433594
1781792878102183200,41.98518310546875,0.576670229434967,-8.752047538757324,-0.13698910176753998
1781792878150706200,42.0337060546875,0.49680981040000916,-9.217751502990723,-0.29730820655822754
1781792878199229200,42.08222924804687,1.1718848943710327,-8.346165657043457,0.14117653667926788
1781792878247752000,42.130751953125,1.9007984399795532,-7.9504523277282715,1.2747762203216553
1781792878296275200,42.17927514648437,2.4358935356140137,-8.723334312438965,2.9413771629333496
1781792878344798000,42.2277978515625,2.3120648860931396,-12.693026542663574,3.0107691287994385
1781792878393321000,42.27632104492187,0.2961117923259735,-14.43051528930664,3.0302107334136963
1781792878441844000,42.32484399414062,-0.706480860710144,-9.755537986755371,-2.383251428604126
1781792878490367000,42.37336694335937,-1.1542378664016724,-11.845369338989258,-3.539881944656372
1781792878538890000,42.42188989257812,-1.1096714735031128,-12.389437675476074,0.5216353535652161
1781792878587413000,42.4704130859375,0.35413774847984314,-9.218050003051758,-2.558525562286377
1781792878635935700,42.51893579101562,0.8063812255859375,-7.427321434020996,-1.2577273845672607
1781792878684458800,42.56745874023437,0.25363919138908386,-8.674580574035645,-0.34606197476387024
1781792878732981800,42.61598168945312,0.7728816866874695,-9.33858871459961,0.2063809484243393
1781792878781504800,42.6645048828125,1.201795220375061,-9.768399238586426,-0.05174478888511658
1781792878830027800,42.71302783203125,2.200798511505127,-7.980063438415527,-0.13220344483852386
1781792878878550800,42.76155078125,1.5649060010910034,-10.845169067382812,-2.2259232997894287
1781792878927073500,42.81007348632812,3.5365917682647705,-13.568202018737793,-1.1467602252960205
1781792878975596500,42.85859643554687,-0.31106695532798767,-7.559525012969971,2.4125633239746094
1781792879024119300,42.90711938476562,-1.8095721006393433,-7.183253765106201,0.9993025660514832
1781792879072642600,42.955642578125,-2.7071797847747803,-15.688840866088867,-2.66560435295105
1781792879121165600,43.00416552734375,-4.1078782081604,-13.938192367553711,0.8787640929222107
1781792879169688300,43.05268823242187,0.024526432156562805,-9.425926208496094,5.1774702072143555
1781792879218211300,43.10121142578125,1.2451651096343994,-7.362715244293213,0.709172785282135
1781792879266734300,43.149734375,0.42741793394088745,-7.6528449058532715,-1.0088738203048706
1781792879315257000,43.19825708007812,1.2840484380722046,-6.776473522186279,-0.9158528447151184
1781792879363780400,43.2467802734375,2.3736801147460938,-6.160621166229248,-0.4133601188659668
1781792879412303400,43.295303466796874,2.083550214767456,-9.7669038772583,2.7326035499572754
1781792879460826000,43.343826171875,1.2675977945327759,-15.353845596313477,3.8970108032226562
1781792879509349000,43.39234912109375,0.9170492887496948,-13.08784294128418,3.5024940967559814
1781792879557872000,43.4408720703125,-2.3003997802734375,-13.383954048156738,-5.018646240234375
1781792879606395000,43.48939477539062,-0.836590588092804,-8.536993026733398,-2.755634307861328
1781792879654918000,43.53791796875,-1.4246268272399902,-12.358330726623535,0.02961117960512638
1781792879703441000,43.58644091796875,-0.09242277592420578,-8.076375007629395,-2.4717857837677
1781792879751964000,43.6349638671875,1.6788642406463623,-6.10468864440918,-1.1581261157989502
1781792879800487000,43.68348681640625,0.4289134442806244,-8.994022369384766,-0.031106693670153618
1781792879849009700,43.732009765625,0.49292147159576416,-10.392926216125488,0.014955141581594944
1781792879897532700,43.78053271484375,1.1931211948394775,-9.779465675354004,0.14506487548351288
1781792879946055700,43.8290556640625,2.586043119430542,-8.223533630371094,-0.05593222752213478
1781792879994578400,43.87757836914062,2.4364917278289795,-11.137990951538086,-1.4916257858276367
1781792880043101400,43.92610131835937,1.1623135805130005,-9.66640567779541,0.37896329164505005
1781792880091624400,43.97462451171875,-1.9573289155960083,-8.58484935760498,2.837887763977051
1781792880140147200,44.02314721679687,-2.6805596351623535,-15.538092613220215,-1.2221341133117676
1781792880188670200,44.07167016601562,-5.187041282653809,-15.760026931762695,-0.3317050337791443
1781792880237193200,44.12019311523437,-0.1737787425518036,-9.302396774291992,4.575973987579346
1781792880285716200,44.16871630859375,0.6502495408058167,-6.786643028259277,1.2323036193847656
1781792880334239200,44.2172392578125,0.15463615953922272,-6.504589080810547,-0.37148571014404297
1781792880382762200,44.26576220703125,1.0977073907852173,-6.282654762268066,-0.052043892443180084
1781792880431285000,44.31428491210937,3.2814571857452393,-6.128616809844971,1.1724830865859985
1781792880479808000,44.36280810546875,2.6195425987243652,-9.731011390686035,4.331906318664551
1781792880528331000,44.4113310546875,0.6574280261993408,-17.846269607543945,3.290729284286499
1781792880576853800,44.45985375976562,-0.9924231767654419,-11.24925708770752,0.9681958556175232
1781792880625376800,44.50837670898437,-1.572981834411621,-12.2766752243042,-6.424130439758301
1781792880673899500,44.5568994140625,-2.155035972595215,-14.307284355163574,-0.97926265001297
1781792880722422500,44.60542260742187,0.38763725757598877,-8.316853523254395,-2.11615252494812
1781792880770945800,44.65394580078125,1.3704891204833984,-5.932405471801758,-2.107478618621826
1781792880819468500,44.70246850585937,1.1509476900100708,-7.87777042388916,-0.30957141518592834
1781792880867991600,44.75099145507812,0.6403791308403015,-9.84556770324707,1.4189438819885254
1781792880916514600,44.7995146484375,1.139880895614624,-9.720542907714844,2.460718870162964
1781792880965037300,44.84803735351562,3.1794631481170654,-7.6737823486328125,2.0401804447174072
1781792881013560300,44.89656030273437,1.903191328048706,-9.966106414794922,-0.7450651526451111
1781792881062083300,44.94508325195312,1.477268934249878,-12.571889877319336,-0.3487538993358612
1781792881110606000,44.99360620117187,-1.2840484380722046,-8.12542724609375,2.958425998687744
1781792881159129000,45.04212915039062,-2.050050735473633,-14.9039945602417,-0.15074782073497772
1781792881207652000,45.09065209960937,-5.734100341796875,-17.015960693359375,-1.710868239402771
1781792881256174800,45.1391748046875,-0.8150551915168762,-9.751649856567383,3.2629127502441406
1781792881304697900,45.18769775390625,0.41874396800994873,-5.443671703338623,0.9427721500396729
1781792881353220600,45.236220703125,0.0526420995593071,-4.841577529907227,-1.1389836072921753
1781792881401743600,45.28474365234375,0.8240283131599426,-5.031208515167236,-0.4911268353462219
1781792881450266600,45.3332666015625,3.660121440887451,-6.676573276519775,2.131406784057617
1781792881498789400,45.38178930664063,1.4859428405761719,-13.416556358337402,6.858428001403809
1781792881547312400,45.4303125,0.5727819204330444,-18.86082649230957,3.996013879776001
1781792881595835400,45.47883544921875,-0.6340979933738708,-9.31585693359375,-1.4745769500732422
1781792881644358100,45.52735815429688,-2.3937199115753174,-11.891430854797363,-7.063612461090088
1781792881692881200,45.57588110351563,-1.856830358505249,-13.823336601257324,1.7075780630111694
1781792881741404200,45.62440405273438,0.17617157101631165,-9.320941925048828,-1.7976080179214478
1781792881789928000,45.672927978515624,1.0423734188079834,-6.251847267150879,-2.4364917278289795
1781792881838450700,45.72145068359375,1.200299620628357,-7.0531439781188965,-0.4579264223575592
1781792881886973700,45.7699736328125,0.35503506660461426,-8.993124961853027,1.3606188297271729
1781792881935496700,45.81849658203125,1.1021939516067505,-9.965508460998535,2.301297187805176
1781792881984019500,45.86701953125,2.4329023361206055,-9.153144836425781,1.8478572368621826
1781792882032542500,45.91554248046875,2.202294111251831,-11.169097900390625,0.21206390857696533
1781792882081065200,45.96406518554687,0.6302096843719482,-13.164412498474121,0.1133599728345871
1781792882129588200,46.01258813476562,-0.34606197476387024,-8.226524353027344,2.4526431560516357
1781792882178111200,46.061111328125,-1.410269856452942,-12.500105857849121,0.6239284873008728
1781792882226634000,46.10963403320312,-5.549553871154785,-16.02413558959961,-2.029113531112671
1781792882275157000,46.15815698242187,-1.0663015842437744,-9.585647583007812,2.8603203296661377
1781792882323680000,46.20667993164062,0.4899304509162903,-4.945964336395264,1.709073543548584
1781792882372202800,46.25520263671875,-0.041575293987989426,-4.5909295082092285,-1.0187442302703857
1781792882420725800,46.30372583007812,0.5982056856155396,-5.913562297821045,-1.3902299404144287
1781792882469248800,46.35224877929687,2.899502754211426,-7.630113124847412,1.810768485069275
1781792882517771500,46.400771484375,1.9256240129470825,-11.59980583190918,7.236494064331055
1781792882566294500,46.44929443359375,1.1805589199066162,-18.65205192565918,3.5805599689483643
1781792882614817500,46.49781762695312,-1.4557334184646606,-11.605788230895996,1.184447169303894
1781792882663340300,46.54634033203125,-0.9379864931106567,-9.882357597351074,-6.2668023109436035
1781792882711863300,46.59486328125,-0.8500502705574036,-13.325031280517578,0.31734809279441833
1781792882760386000,46.64338598632813,-1.3668999671936035,-11.28066349029541,0.5353940725326538
1781792882808908800,46.69190869140625,1.5379867553710938,-6.333203315734863,-2.2606191635131836
1781792882857431800,46.74043188476563,1.2819547653198242,-6.159125328063965,-0.628415048122406
1781792882905954600,46.78895458984375,0.5569294691085815,-8.874979019165039,0.7881359457969666
1781792882954477600,46.8374775390625,0.5934200286865234,-10.350752830505371,1.7835501432418823
1781792883003000600,46.88600048828125,2.8761727809906006,-7.957630634307861,2.911167860031128
1781792883051523300,46.9345234375,3.0562326908111572,-10.395318984985352,-0.11485548317432404
1781792883100046300,46.98304638671875,3.006880760192871,-14.078471183776855,0.1498505175113678
1781792883148569300,47.0315693359375,-1.428515076637268,-6.511468410491943,3.941876173019409
1781792883197092000,47.080092041015625,-1.4898312091827393,-11.766406059265137,0.42831525206565857
1781792883245615000,47.128614990234375,-6.115456581115723,-19.569101333618164,-3.9744784832000732
1781792883294138000,47.17713818359375,-2.4502503871917725,-10.122536659240723,2.7987051010131836
1781792883342660900,47.225660888671875,0.9625129103660583,-5.490630626678467,2.645564556121826
1781792883391184000,47.274183837890625,0.02632104977965355,-5.279464244842529,-1.033101201057434
1781792883439706600,47.32270654296875,0.8063812255859375,-5.07517671585083,-0.6299105882644653
1781792883488229400,47.3712294921875,3.4576287269592285,-6.394519329071045,1.4757733345031738
1781792883536752400,47.41975244140625,2.1122641563415527,-11.199007987976074,7.04207706451416
1781792883585275100,47.46827514648437,1.5236297845840454,-17.694324493408203,5.8719868659973145
1781792883633798100,47.51679809570312,-0.1052841991186142,-11.113763809204102,1.4889339208602905
1781792883682321200,47.56532104492187,-2.4221346378326416,-11.542976379394531,-6.99332332611084
1781792883730844000,47.61384399414062,-1.7745771408081055,-12.321540832519531,0.5685944557189941
1781792883779367000,47.66236694335937,-0.11306086927652359,-10.500304222106934,-0.04695914313197136
1781792883827890000,47.71088989257812,0.4378865361213684,-8.419445991516113,-1.755733609199524
1781792883876412700,47.75941259765625,1.2711870670318604,-6.50608491897583,-0.6326025128364563
1781792883924935700,47.80793579101562,0.8877372145652771,-8.211270332336426,0.7935197949409485
1781792883973458400,47.85645849609375,0.4776672124862671,-10.451251029968262,1.6707884073257446
1781792884021981200,47.90498120117188,1.9663020372390747,-8.596813201904297,2.7861428260803223
1781792884070504200,47.95350415039063,3.6370904445648193,-8.338388442993164,0.831206738948822
1781792884119027000,48.00202685546875,2.4400808811187744,-14.505290985107422,-1.374078392982483
1781792884167550000,48.05055004882813,-0.3475574851036072,-7.0307111740112305,3.4351959228515625
1781792884216073000,48.09907299804688,-0.7800601720809937,-8.37547779083252,2.0228323936462402
1781792884264595700,48.147595703125,-5.114957332611084,-21.10170555114746,-3.892524242401123
1781792884313118500,48.19611840820313,-4.265505313873291,-12.732807159423828,1.9866410493850708
1781792884361641500,48.24464135742188,0.532103955745697,-7.00050163269043,4.037290096282959
1781792884410164200,48.29316430664063,0.25692933797836304,-4.694717884063721,-0.30927231907844543
1781792884458687200,48.34168725585938,0.43160539865493774,-5.392524719238281,-0.38763725757598877
1781792884507210200,48.39021020507813,2.5914268493652344,-6.274579048156738,1.4279168844223022
1781792884555733000,48.43873291015625,2.96321177482605,-8.456833839416504,5.42153787612915
1781792884604256000,48.48725610351563,1.6432709693908691,-17.1403865814209,5.803193092346191
1781792884652779000,48.53577905273438,-0.12831512093544006,-13.731512069702148,4.23858642578125
1781792884701301500,48.584301513671875,-1.6241283416748047,-8.21994400024414,-3.815056562423706
1781792884749824500,48.632824462890625,-2.2381865978240967,-14.330615043640137,-3.8709888458251953
1781792884798347300,48.68134716796875,-0.6442674994468689,-11.016555786132812,1.2113664150238037
1781792884846870300,48.729870361328125,0.5186443328857422,-7.672884941101074,-2.217548370361328
1781792884895393300,48.778393310546875,0.9912267923355103,-6.730412006378174,-1.327418327331543
1781792884943916000,48.826916015625,0.9038887619972229,-8.263912200927734,0.6349952816963196
1781792884992439000,48.87543896484375,0.6493522524833679,-10.025029182434082,2.1975085735321045
1781792885040961800,48.9239619140625,1.5203397274017334,-9.70229721069336,2.266003131866455
1781792885089484500,48.97248461914062,3.2895328998565674,-7.562216758728027,2.044367790222168
1781792885138007600,49.02100756835937,1.9334007501602173,-14.073984146118164,-1.1892328262329102
1781792885186530600,49.06953051757812,0.8422735929489136,-9.269196510314941,1.8816559314727783
1781792885235053300,49.11805322265625,-0.6954140663146973,-8.10389232635498,3.3155548572540283
1781792885283576000,49.166576171875,-3.61017107963562,-17.45265007019043,-1.150349497795105
1781792885332098800,49.21509887695313,-5.217848777770996,-14.362618446350098,0.43938204646110535
1781792885380621800,49.26362182617188,-0.42293140292167664,-8.447261810302734,4.035794258117676
1781792885429144800,49.31214477539063,0.3798605799674988,-4.862215518951416,0.44805604219436646
1781792885477667600,49.36066748046875,0.6819544434547424,-5.0255255699157715,-1.20687997341156
1781792885526190600,49.40919067382813,1.5212370157241821,-5.207679271697998,0.7052844762802124
1781792885574713300,49.45771337890625,3.6987056732177734,-6.325127601623535,3.739084482192993
1781792885623236000,49.506236083984376,1.100698471069336,-17.66950035095215,6.416054725646973
1781792885671759000,49.554759033203126,0.14506487548351288,-15.192928314208984,5.9566330909729
1781792885720282000,49.6032822265625,-0.4450650215148926,-8.816953659057617,-2.0491535663604736
1781792885768804900,49.651804931640626,-1.9974087476730347,-11.83729362487793,-7.038188934326172
1781792885817327900,49.700327880859376,-0.9044869542121887,-13.664812088012695,3.8060834407806396
1781792885865850600,49.7488505859375,0.3891327679157257,-9.544371604919434,-0.8943174481391907
1781792885914373400,49.797373291015624,0.8174480199813843,-6.751648426055908,-1.5690934658050537
1781792885962896400,49.845896484375,1.2897313833236694,-6.954440116882324,0.5144568681716919
1781792886011419100,49.894419189453124,0.4459623098373413,-9.050253868103027,1.3247264623641968
1781792886059942100,49.942942138671874,0.8177471160888672,-9.945169448852539,2.5196423530578613
1781792886108465000,49.99146484375,2.9377880096435547,-7.859824180603027,2.909074068069458
1781792886156987600,50.03998754882812,2.305185556411743,-13.47338581085205,-0.6092724800109863
1781792886205510700,50.0885107421875,0.7328019142150879,-10.502995491027832,0.9092726111412048
1781792886254033700,50.13703369140625,0.2880360186100006,-7.136892795562744,3.233600616455078
1781792886302556200,50.18555615234375,-2.885145902633667,-15.880266189575195,0.9753743410110474
1781792886351079200,50.2340791015625,-5.736493110656738,-15.460625648498535,-0.01615155301988125
1781792886399602200,50.28260229492187,-0.26500511169433594,-9.262018203735352,5.406283855438232
1781792886448125000,50.331125,0.594915509223938,-4.9980082511901855,1.7745771408081055
1781792886496648000,50.37964794921875,0.34995031356811523,-5.482554912567139,-1.2233306169509888
1781792886545170700,50.42817065429688,0.7743772268295288,-5.98444938659668,-0.7722834944725037
1781792886593693400,50.476693359375,2.195115566253662,-6.6984076499938965,0.5934200286865234
1781792886642216400,50.52521655273438,1.9435701370239258,-10.909775733947754,5.694917678833008
1781792886690739200,50.5737392578125,2.1329023838043213,-15.613167762756348,6.119943141937256
1781792886739262200,50.62226220703125,-0.18484555184841156,-12.871591567993164,2.843271493911743
1781792886787785000,50.670784912109376,-1.4940186738967896,-11.58425235748291,-4.844867706298828
1781792886836307700,50.7193076171875,-2.163111686706543,-13.456636428833008,0.07986045628786087
1781792886884830700,50.767830810546876,-0.5934200286865234,-10.326824188232422,0.1908276081085205
1781792886933353700,50.816353759765626,0.5545366406440735,-6.722036838531494,-1.937588095664978
1781792886981876200,50.864876220703124,1.103689432144165,-6.340381622314453,-0.7256234884262085
1781792887030399200,50.913399169921874,0.47198426723480225,-8.584549903869629,0.844068169593811
1781792887078922000,50.961921875,-0.13579268753528595,-10.327422142028809,2.1242282390594482
1781792887127445000,51.010445068359374,3.153740167617798,-9.42772102355957,3.617947816848755
1781792887175967700,51.0589677734375,2.674577474594116,-9.816255569458008,1.46500563621521
1781792887224490500,51.10749047851562,0.7722834944725037,-11.829217910766602,1.1001001596450806
1781792887273013500,51.15601342773437,-1.7428722381591797,-8.666205406188965,2.3569302558898926
1781792887321536500,51.20453662109375,-2.5836503505706787,-16.075580596923828,0.054436713457107544
1781792887370059300,51.25305932617187,-5.874379634857178,-14.735600471496582,-0.4001995921134949
1781792887418582000,51.30158203125,-1.2388839721679688,-8.541778564453125,3.6939198970794678
1781792887467105000,51.35010498046875,0.25692933797836304,-4.664209365844727,1.9908283948898315
1781792887515627800,51.39862768554688,0.8045865893363953,-5.217848777770996,-0.8982058167457581
1781792887564150500,51.44715063476563,1.446162223815918,-5.96381139755249,0.24107688665390015
1781792887612673500,51.49567358398438,3.421138286590576,-6.913762092590332,3.173480987548828
1781792887661196300,51.5441962890625,1.1539387702941895,-13.178770065307617,6.253941059112549
1781792887709719300,51.59271923828125,-0.13220344483852386,-17.004892349243164,6.519843578338623
1781792887758242000,51.641241943359375,-1.2738789319992065,-11.469696044921875,-0.4737788736820221
1781792887806764800,51.689764892578125,-1.373480200767517,-10.28016471862793,-5.866602897644043
1781792887855287800,51.738287841796875,-2.066800594329834,-14.4861478805542,1.9854445457458496
1781792887903810600,51.786810546875,0.5186443328857422,-8.933005332946777,-1.547258973121643
1781792887952333300,51.835333251953124,1.1572288274765015,-6.28205680847168,-0.8198408484458923
1781792888000856300,51.883856201171874,0.8590233325958252,-7.245467185974121,0.8057830333709717
1781792888049379000,51.932379150390624,0.5350949764251709,-9.372088432312012,2.1846470832824707
1781792888097902000,51.980902099609374,1.1120643615722656,-10.016953468322754,3.0693931579589844
1781792888146424800,52.0294248046875,3.0475587844848633,-7.661818027496338,2.958425998687744
1781792888194947600,52.07794750976562,2.1607189178466797,-13.223336219787598,-0.1453639715909958
1781792888243470600,52.126470703125,2.0114665031433105,-10.730912208557129,2.1526429653167725
1781792888291993300,52.17499340820312,-0.8590233325958252,-6.411867141723633,3.081955671310425
1781792888340516000,52.22351611328125,-1.911865234375,-15.128023147583008,0.2991028428077698
1781792888389039000,52.2720390625,-5.665306568145752,-16.40848159790039,-1.3226326704025269
1781792888437561900,52.32056176757813,-1.3543375730514526,-9.401400566101074,4.59003210067749
1781792888486084600,52.36908471679688,0.7483552694320679,-4.923830986022949,2.1496520042419434
1781792888534607600,52.41760766601563,0.6451647877693176,-5.937490463256836,-1.480259895324707
1781792888583130400,52.46613037109375,0.35413774847984314,-5.84656286239624,-0.7447660565376282
1781792888631653000,52.514653076171875,2.8145575523376465,-5.891129493713379,0.9936196208000183
1781792888680176000,52.563176025390625,2.2597219944000244,-12.200105667114258,5.422136306762695
1781792888728699000,52.611698974609375,0.7758727669715881,-16.910974502563477,7.656434059143066
1781792888777222000,52.660221923828125,-0.7322037220001221,-11.729616165161133,2.87198543548584
1781792888825744600,52.70874462890625,-0.7456633448600769,-11.226226806640625,-5.152345180511475
1781792888874267400,52.75726733398437,-1.9845472574234009,-14.297115325927734,1.6755740642547607
1781792888922790400,52.80579028320312,-0.6652047038078308,-9.36879825592041,-0.7513462901115417
1781792888971313200,52.85431323242187,1.5960127115249634,-6.096313953399658,-0.9849455952644348
1781792889019836000,52.9028359375,0.7217351198196411,-6.600302219390869,0.38763725757598877
1781792889068359000,52.95135888671875,-0.19770696759223938,-9.63200855255127,1.0247262716293335
1781792889116881700,52.99988159179688,0.25752753019332886,-10.541280746459961,1.6351951360702515
1781792889165404400,53.048404296875,2.823530673980713,-8.165806770324707,2.178964138031006
1781792889213927400,53.09692749023438,3.0475587844848633,-11.044671058654785,1.3728820085525513
1781792889262450000,53.14544995117188,1.1093723773956299,-13.032807350158691,1.1518449783325195
1781792889310973000,53.19397290039063,-0.6092724800109863,-6.81386137008667,2.987139940261841
1781792889359495700,53.24249560546875,-2.0476579666137695,-14.511571884155273,1.9794625043869019
1781792889408018700,53.29101879882813,-5.702993869781494,-15.662818908691406,-0.12053844332695007
1781792889456541400,53.33954150390625,-0.5135595798492432,-9.208478927612305,4.460819721221924
1781792889505064200,53.388064208984375,0.47527438402175903,-4.675575256347656,1.6381862163543701
1781792889553587200,53.436587158203125,0.7384848594665527,-4.739284515380859,-1.4793626070022583
1781792889602110000,53.48510986328125,0.32721850275993347,-6.823731899261475,-0.6275177597999573
1781792889650632700,53.5336328125,2.1128623485565186,-7.275975227355957,1.6118651628494263
1781792889699155700,53.58215576171875,2.5609183311462402,-11.010872840881348,6.231807708740234
1781792889747678500,53.63067846679687,1.0618150234222412,-17.388044357299805,6.265905380249023
1781792889796201200,53.679201171875,-1.648654818534851,-11.244771003723145,3.2120652198791504
1781792889844724200,53.72772412109375,0.43160539865493774,-10.221240997314453,-4.828117847442627
1781792889893247000,53.7762470703125,-2.965604543685913,-15.609877586364746,1.2442678213119507
1781792889941769700,53.82476977539063,-0.0077766734175384045,-9.717252731323242,-1.241276741027832
1781792889990292700,53.87329272460938,1.2658032178878784,-6.773183822631836,-1.8179470300674438
1781792890038815500,53.9218154296875,0.6613163352012634,-6.925725936889648,-0.06041877344250679
1781792890087338200,53.970338134765626,0.3607180118560791,-8.964410781860352,1.466800332069397
1781792890135861200,54.018861328125,-0.16839489340782166,-9.675677299499512,2.648256540298462
1781792890184384000,54.067384033203126,3.4902310371398926,-8.425726890563965,2.5704896450042725
1781792890232906800,54.11590673828125,2.510071039199829,-9.8267240524292,2.2061824798583984
1781792890281429800,54.1644296875,1.0785647630691528,-13.691731452941895,-0.1905284970998764
1781792890329952300,54.2129521484375,0.24107688665390015,-6.823731899261475,2.9862427711486816
1781792890378475300,54.261475341796874,-1.1407781839370728,-12.442079544067383,3.3690943717956543
1781792890426998300,54.309998291015624,-6.0125651359558105,-18.24856185913086,-0.03439682722091675
1781792890475520800,54.35852075195312,-1.7315062284469604,-10.028319358825684,3.7887356281280518
1781792890524043800,54.40704370117187,0.9771689176559448,-5.323431968688965,2.195713996887207
1781792890572566500,54.45556640625,0.31016963720321655,-5.040780067443848,-1.1207382678985596
1781792890621089300,54.50408935546875,0.7627122402191162,-5.912066459655762,-0.08554340898990631
1781792890669612300,54.5526123046875,2.656930446624756,-6.6831536293029785,2.7263224124908447
1781792890718135000,54.60113500976563,1.9830517768859863,-11.151451110839844,6.011368751525879
1781792890766657800,54.64965771484375,1.9316060543060303,-15.868302345275879,6.928118705749512
1781792890815180800,54.69818090820313,-1.2490534782409668,-11.632108688354492,2.698206663131714
1781792890863703300,54.746703369140626,-0.7495517134666443,-11.574681282043457,-4.613960266113281
1781792890912226300,54.795226318359376,-2.995215654373169,-13.833805084228516,2.200798511505127
1781792890960749300,54.843749267578126,-0.22881366312503815,-9.961320877075195,-0.3403790295124054
1781792891009271800,54.892271728515624,0.9864411354064941,-7.191030025482178,-0.6203392744064331
1781792891057794800,54.940794921875,0.9613165259361267,-6.597012042999268,-0.22103698551654816
1781792891106317600,54.989317626953124,0.6610172390937805,-8.68026351928711,1.0393823385238647
1781792891154840300,55.03784033203125,0.4244269132614136,-10.178170204162598,2.24057936668396
1781792891203363300,55.08636328125,2.422433853149414,-8.11406135559082,3.3562328815460205
1781792891251886000,55.13488598632812,3.5596227645874023,-8.990732192993164,0.9897312521934509
1781792891300408800,55.18340893554687,2.2677977085113525,-14.0084810256958,0.8949156403541565
1781792891348931600,55.231931640625,-2.0808584690093994,-7.261319637298584,3.587738513946533
1781792891397454300,55.28045434570313,-1.6471593379974365,-12.81924819946289,1.1312068700790405
1781792891445977300,55.32897729492188,-5.363811016082764,-18.20519256591797,-0.7782655358314514
1781792891494500000,55.3775,-2.719143867492676,-10.435697555541992,4.147658824920654
1781792891543022800,55.42602294921875,0.6370890140533447,-6.350551128387451,3.6951162815093994
1781792891591545900,55.4745458984375,0.18095721304416656,-5.404788017272949,-0.6963114142417908
1781792891640068600,55.523068603515625,0.37806597352027893,-5.353342533111572,-0.5225326418876648
1781792891688591400,55.57159130859375,1.8681962490081787,-6.237191200256348,1.4949159622192383
1781792891737114000,55.62011401367187,3.077768087387085,-9.124730110168457,5.499603748321533
1781792891785636900,55.66863696289062,2.418246269226074,-16.363616943359375,6.0370917320251465
1781792891834159900,55.71715991210937,-0.9732806086540222,-12.12772274017334,6.072983741760254
1781792891882682600,55.7656826171875,-2.572882652282715,-9.588638305664062,-3.4154551029205322
1781792891931205400,55.81420532226562,-0.6690930128097534,-12.75464153289795,-3.0011978149414062
1781792891979728100,55.86272802734375,-0.44356951117515564,-12.38375473022461,2.173281192779541
1781792892028251100,55.91125122070312,-0.1579262912273407,-9.719047546386719,-2.138585329055786
1781792892076774000,55.95977392578125,1.4036896228790283,-6.296114444732666,-0.26081767678260803
1781792892125296600,56.00829663085938,0.6586244106292725,-7.586144924163818,1.0247262716293335
1781792892173819400,56.0568193359375,0.09421738982200623,-9.65503978729248,1.4395818710327148
1781792892222342100,56.105342041015625,1.667797327041626,-8.628518104553223,2.462214469909668
1781792892270865200,56.153865234375,3.978665828704834,-7.981558799743652,2.688037157058716
1781792892319388000,56.202387939453125,1.5568302869796753,-14.158331871032715,0.07956135272979736
1781792892367910700,56.25091064453125,-0.29371899366378784,-8.376673698425293,3.015554666519165
1781792892416433400,56.29943334960937,-1.428515076637268,-9.780961990356445,2.2534406185150146
1781792892464956200,56.3479560546875,-5.5331034660339355,-20.448463439941406,-1.5738791227340698
1781792892513479200,56.39647924804687,-4.261018753051758,-11.042876243591309,3.5533416271209717
1781792892562002000,56.445001953125,0.7280163168907166,-6.257829189300537,4.011268138885498
1781792892610524700,56.49352465820313,0.13579268753528595,-5.303092956542969,0.23838496208190918
1781792892659047400,56.54204736328125,0.626022219657898,-5.5983076095581055,-0.01734796352684498
1781792892707570200,56.590570068359376,2.171785593032837,-6.4325056076049805,2.109572172164917
1781792892756093000,56.639093017578126,2.816352367401123,-7.267002582550049,6.489933013916016
1781792892804616000,56.687615966796876,1.695613980293274,-16.610376358032227,7.347461223602295
1781792892853138700,56.736138671875,-0.908674418926239,-14.150256156921387,5.169992446899414
1781792892901661400,56.784661376953125,-1.2218350172042847,-8.40449047088623,-3.882952928543091
1781792892950184400,56.833184326171875,-0.9275178909301758,-12.547064781188965,-1.6396816968917847
1781792892998707000,56.88170703125,-1.9435701370239258,-13.59362506866455,2.5764718055725098
1781792893047230000,56.93022998046875,0.7689933776855469,-7.5101728439331055,-2.6312077045440674
1781792893095752700,56.97875268554687,0.924227774143219,-6.075974941253662,-1.1222338676452637
1781792893144275500,57.027275390625,1.2026925086975098,-8.37009334564209,1.6462619304656982
1781792893192798200,57.07579809570313,-0.2521436810493469,-9.918848037719727,2.9201409816741943
1781792893241321000,57.12432104492188,1.7204394340515137,-8.804988861083984,3.2656047344207764
1781792893289843700,57.17284375,3.6547374725341797,-8.117351531982422,2.9102704524993896
1781792893338366700,57.22136669921875,2.871387243270874,-12.604791641235352,1.2460623979568481
1781792893386889500,57.269889404296876,-0.6675975322723389,-7.956733703613281,2.4269204139709473
1781792893435412200,57.318412109375,-1.5385849475860596,-10.829017639160156,2.436790704727173
1781792893483935000,57.36693505859375,-5.850451469421387,-20.34856414794922,-2.289931297302246
1781792893532457700,57.415457763671874,-4.332803726196289,-11.618948936462402,2.27168607711792
1781792893580980700,57.463980712890624,0.7378866672515869,-6.214758396148682,4.686044216156006
1781792893629503500,57.51250341796875,0.37507495284080505,-4.928616523742676,0.5665007829666138
1781792893678026200,57.56102612304687,0.6861419081687927,-5.458028316497803,-1.0106685161590576
1781792893726549000,57.60954907226562,2.480459690093994,-5.049454212188721,1.1174482107162476
1781792893775071700,57.65807177734375,2.697608470916748,-8.339585304260254,6.495915412902832
1781792893823594500,57.70659448242188,0.46002015471458435,-17.577077865600586,8.097311973571777
1781792893872117500,57.75511743164063,-1.1168500185012817,-12.919746398925781,4.46979284286499
1781792893920640300,57.80364013671875,-1.1093723773956299,-10.967203140258789,-5.657230854034424
1781792893969163000,57.8521630859375,-1.7736797332763672,-12.835101127624512,-0.06789634376764297
1781792894017685800,57.900685791015626,-0.5030909776687622,-11.776576042175293,0.8679963946342468
1781792894066208500,57.94920849609375,1.1494522094726562,-8.612666130065918,-2.2142581939697266
1781792894114731300,57.997731201171874,1.170987606048584,-7.287640571594238,0.16929219663143158
1781792894163254000,58.04625390625,0.9098708033561707,-7.7440714836120605,1.459621787071228
1781792894211776800,58.09477685546875,0.8787640929222107,-8.9850492477417,3.6170506477355957
1781792894260299800,58.1432998046875,1.0752747058868408,-8.877969741821289,4.277768611907959
1781792894308822500,58.19182250976562,3.7007992267608643,-6.4788665771484375,2.751147747039795
1781792894357345300,58.24034521484375,2.679363250732422,-14.132010459899902,0.1498505175113678
1781792894405868000,58.28886791992188,-0.264706015586853,-9.89850902557373,2.3096721172332764
1781792894454390800,58.33739086914063,-0.6628118753433228,-7.623532772064209,2.9006991386413574
1781792894502913500,58.38591357421875,-3.9131622314453125,-19.66750717163086,0.03170489892363548
1781792894551436500,58.4344365234375,-6.247660160064697,-13.62772274017334,2.721536636352539
1781792894599959000,58.482958984375,1.0040881633758545,-7.530212879180908,5.684449195861816
1781792894648482000,58.53148193359375,0.5341976284980774,-4.873282432556152,0.89581298828125
1781792894697004800,58.5800048828125,0.7666005492210388,-5.326423168182373,-1.103689432144165
1781792894745527300,58.62852734375,1.4709876775741577,-5.605785369873047,0.7112665176391602
1781792894794050300,58.67705029296875,2.7080769538879395,-6.10169792175293,3.7369906902313232
1781792894842573000,58.72557299804687,1.7641085386276245,-14.942279815673828,5.98026180267334
1781792894891095800,58.774095703125,-0.14446666836738586,-14.272290229797363,8.79212760925293
1781792894939618600,58.82261865234375,-1.6755740642547607,-10.890334129333496,0.06161518394947052
1781792894988141300,58.87114135742188,-0.9044869542121887,-11.922537803649902,-4.145266056060791
1781792895036664000,58.9196640625,-1.456331729888916,-13.639687538146973,3.059821844100952
1781792895085187000,58.96818701171875,-0.1498505175113678,-10.013962745666504,-1.4892330169677734
1781792895133709600,59.01670947265625,1.0752747058868408,-6.626623153686523,-1.033101201057434
1781792895182232600,59.065232666015625,0.9819545745849609,-6.930511474609375,0.40259242057800293
1781792895230755300,59.11375537109375,0.13549357652664185,-9.264111518859863,2.079961061477661
1781792895279278000,59.16227807617187,0.27846473455429077,-9.276374816894531,3.1983065605163574
1781792895327800800,59.21080078125,4.00319242477417,-7.707281589508057,3.565903902053833
1781792895376323600,59.25932348632813,1.944467544555664,-12.206686019897461,1.6112669706344604
1781792895424846300,59.30784643554688,-0.4863412082195282,-11.149955749511719,1.342971682548523
1781792895473369000,59.356369140625,-1.1802598237991333,-8.106285095214844,3.47019100189209
1781792895521891800,59.404891845703126,-3.8327035903930664,-17.664714813232422,0.3604189157485962
1781792895570414600,59.45341455078125,-5.564808368682861,-13.526626586914062,1.1715857982635498
1781792895618937600,59.5019375,-0.35832518339157104,-7.818847179412842,6.152844429016113
1781792895667460000,59.550460205078124,-0.16689938306808472,-4.703691005706787,2.2387847900390625
1781792895715982800,59.59898291015625,0.7363911867141724,-5.486144065856934,-1.8248263597488403
1781792895764505600,59.64750561523437,0.9460622668266296,-4.802394866943359,0.3756731450557709
1781792895813028400,59.6960283203125,2.558525562286377,-6.307480335235596,4.739284515380859
1781792895861551400,59.74455126953125,2.5010979175567627,-16.1937255859375,7.191030025482178
1781792895910074000,59.79307421875,-0.25692933797836304,-13.907085418701172,6.418148517608643
1781792895958596900,59.84159692382813,-2.5139594078063965,-11.534302711486816,-2.5522444248199463
1781792896007119600,59.89011962890625,-1.197009563446045,-13.412368774414062,-2.5124638080596924
1781792896055642400,59.938642333984376,-0.48424747586250305,-11.011171340942383,1.9803597927093506
1781792896152687900,60.03568798828125,1.129412293434143,-6.734300136566162,-0.3774677813053131
1781792896201210600,60.084210693359374,0.6628118753433228,-7.712067604064941,1.4404792785644531
1781792896249733600,60.132733642578124,0.29431718587875366,-9.721440315246582,3.050250768661499
1781792896298256400,60.18125634765625,1.6423736810684204,-9.296713829040527,3.2599217891693115
1781792896395301400,60.27830126953125,1.5520446300506592,-13.809876441955566,1.5394822359085083
1781792896443824400,60.32682446289063,-0.8662018179893494,-6.6592254638671875,3.7567315101623535
1781792896492347100,60.37534716796875,-1.2490534782409668,-10.306485176086426,2.7517459392547607
1781792896540870000,60.423869873046876,-5.229214668273926,-20.260028839111328,-1.103988528251648
1781792896589392600,60.472392578125,-4.044468402862549,-11.530414581298828,3.972085475921631
1781792896637915400,60.520915283203124,1.0082756280899048,-6.536593437194824,4.606781959533691
1781792896686438100,60.569438232421874,0.4905286431312561,-5.030311584472656,0.4289134442806244
1781792896734961000,60.6179609375,0.5757729411125183,-5.097310543060303,-0.6110670566558838
1781792896783484000,60.66648388671875,2.292922258377075,-5.01296329498291,1.3848460912704468
1781792896832006700,60.71500659179687,3.0765717029571533,-7.261618614196777,5.780162334442139
1781792896880529400,60.763529296875,0.7408776879310608,-18.018552780151367,6.634399890899658
1781792896929052000,60.81205200195313,-1.6360924243927002,-13.178770065307617,5.412564754486084
1781792896977574700,60.86057470703125,-0.04546362906694412,-10.185647964477539,-3.904189348220825
1781792897026097400,60.909097412109375,-1.4925230741500854,-13.683056831359863,-0.11066804826259613
1781792897074620400,60.957620361328125,-1.3232308626174927,-12.381959915161133,0.2925225794315338
1781792897123143200,61.00614306640625,1.48055899143219,-7.710272789001465,-2.416750907897949
1781792897171665700,61.05466577148437,1.0701899528503418,-6.803691864013672,-0.39421752095222473
1781792897220188400,61.1031884765625,1.2329018115997314,-8.350353240966797,2.0802602767944336
1781792897268711200,61.15171118164063,0.2144567221403122,-9.835996627807617,4.503890514373779
1781792897317234200,61.20023413085938,1.7222341299057007,-9.226125717163086,4.261617183685303
1781792897365756700,61.24875659179688,3.2039895057678223,-7.251150131225586,2.1343977451324463
1781792897462802400,61.34580249023438,-0.709172785282135,-7.710571765899658,2.792423963546753
1781792897511325200,61.3943251953125,-0.37896329164505005,-9.81117057800293,3.064607620239258
1781792897559848000,61.442847900390625,-5.473282814025879,-20.54387855529785,-0.16031911969184875
1781792897608370700,61.49137060546875,-4.635495662689209,-11.890832901000977,3.438486099243164
1781792897656893200,61.53989306640625,0.9044869542121887,-6.414260387420654,3.4498519897460938
1781792897705416000,61.588416015625,0.24466611444950104,-4.60857629776001,0.2512463629245758
1781792897753939000,61.63693896484375,0.6909275650978088,-5.050650596618652,0.07507480680942535
1781792897802461400,61.68546142578125,2.577967405319214,-5.711667537689209,2.5833511352539062
1781792897899507000,61.7825068359375,1.090528964996338,-15.188740730285645,6.928118705749512
1781792897948030000,61.831030029296876,-0.9768698215484619,-11.83729362487793,4.547260284423828
1781792897996552400,61.879552490234374,-1.3956137895584106,-13.415958404541016,-5.935695648193359
1781792898045075500,61.928075439453124,-1.97407865524292,-12.512069702148438,1.7147564888000488
1781792898093598200,61.97659814453125,-0.32243284583091736,-10.998010635375977,1.6878372430801392
1781792898142121000,62.02512084960937,0.4504488706588745,-9.020044326782227,-0.6786643266677856
1781792898190643500,62.0736435546875,1.2005987167358398,-6.31944465637207,-0.1378864049911499
1781792898239166500,62.12216650390625,0.4001995921134949,-7.863413333892822,0.9427721500396729
1781792898287689200,62.17068920898438,-0.053240302950143814,-9.902996063232422,3.1896326541900635
1781792898336211700,62.219211669921876,1.817647933959961,-9.088837623596191,3.1920254230499268
1781792898384734700,62.267734619140626,4.359723091125488,-10.253843307495117,1.5122638940811157
1781792898433257200,62.31625732421875,1.4165509939193726,-13.211670875549316,1.8951154947280884
1781792898481780000,62.364780029296874,-0.363709032535553,-5.61027193069458,3.5120654106140137
1781792898530302700,62.413302734375,-0.9589236974716187,-10.04447078704834,2.778067111968994
1781792898578825500,62.46182543945312,-5.261219024658203,-19.733009338378906,-0.7546364665031433
1781792898627348200,62.51034814453125,-3.4959139823913574,-11.206186294555664,3.9544384479522705
1781792898675871000,62.55887109375,0.5688936114311218,-6.504589080810547,4.815854549407959
1781792898724393700,62.60739379882813,0.7998009920120239,-4.759324073791504,0.4507479667663574
1781792898772916500,62.65591650390625,0.6068796515464783,-5.970690727233887,-0.33080771565437317
1781792898821439200,62.704439208984375,1.9100706577301025,-6.4094743728637695,1.3917254209518433
1781792898869962000,62.7529619140625,2.562114953994751,-7.594819068908691,4.378267288208008
1781792898918484700,62.80148461914062,1.6845471858978271,-15.732809066772461,6.352345943450928
1781792898967007500,62.85000756835937,-2.5938198566436768,-13.36570930480957,7.487142086029053
1781792899015530200,62.8985302734375,-0.09272187948226929,-11.763115882873535,-3.1375887393951416
1781792899064053000,62.94705297851562,-1.5448660850524902,-11.95454216003418,-1.949552297592163
1781792899112575700,62.99557568359375,-1.709073543548584,-12.874881744384766,1.776371717453003
1781792899161098500,63.04409838867188,1.8442680835723877,-7.883453369140625,-2.5474588871002197
1781792899209621200,63.09262133789063,1.174277663230896,-7.290033340454102,-0.537487804889679
1781792899258144000,63.14114404296875,1.1024930477142334,-8.554341316223145,2.1828525066375732
1781792899306666800,63.189666748046875,0.6215356588363647,-10.036993980407715,4.880760192871094
1781792899355189500,63.238189453125,0.7178468108177185,-8.950054168701172,4.2454657554626465
1781792899403712000,63.2867119140625,3.8638103008270264,-6.118447303771973,1.7222341299057007
1781792899452235000,63.33523510742187,3.061915636062622,-13.745270729064941,0.1094716340303421
1781792899500757500,63.38375756835938,0.3523431420326233,-11.124232292175293,3.1758737564086914
1781792899549280300,63.4322802734375,-0.7806583642959595,-5.4867424964904785,3.2982068061828613
1781792899646326000,63.52932592773438,-6.363412857055664,-15.644872665405273,0.8033902049064636
1781792899694848500,63.5778486328125,-0.3236292600631714,-8.994022369384766,5.504090309143066
1781792899743371300,63.626371337890625,-0.006580262444913387,-6.172883987426758,2.4807589054107666
1781792899791894300,63.674894287109375,0.3125624656677246,-5.762515068054199,-0.4698905348777771
1781792899840416800,63.72341674804687,0.7914260625839233,-6.0640106201171875,0.4091726839542389
1781792899888939500,63.771939453125,2.3976082801818848,-6.02811861038208,2.602792739868164
1781792899937462300,63.82046215820313,2.204387903213501,-10.020543098449707,5.681159019470215
1781792899985985000,63.86898510742188,1.1581261157989502,-16.222440719604492,7.704290866851807
1781792900034507800,63.9175078125,-2.2788643836975098,-11.368300437927246,3.8060834407806396
1781792900083030800,63.96603076171875,-1.067797064781189,-12.862916946411133,-5.4403815269470215
1781792900131553300,64.01455322265625,-0.6643074154853821,-13.083056449890137,1.975873351097107
1781792900180076000,64.06307592773437,-1.1207382678985596,-10.574780464172363,-0.2027917206287384
1781792900228598800,64.11159887695312,1.3776676654815674,-7.440781116485596,-1.342971682548523
1781792900277121500,64.16012158203125,1.0426725149154663,-7.007680416107178,0.7824530005455017
1781792900325644300,64.20864428710938,0.8297112584114075,-8.366803169250488,2.764308452606201
1781792900374167000,64.2571669921875,0.19561325013637543,-10.143773078918457,4.683351993560791
1781792900422689800,64.30568969726562,1.3806586265563965,-9.327820777893066,3.5024940967559814
1781792900471212500,64.35421264648437,3.2273194789886475,-7.637889862060547,-0.07477571070194244
1781792900519735300,64.4027353515625,2.840280532836914,-14.013864517211914,0.45553362369537354
1781792900568258000,64.45125805664063,-0.29042884707450867,-7.82692289352417,3.955335855484009
