time,seconds_elapsed,z,y,x
1781792836313923800,0.196923828125,-0.032910339534282684,-0.11468986421823502,-0.08292489498853683
1781792836362446800,0.24544677734375,-0.043829549103975296,-0.1836412250995636,-0.125074565410614
1781792836410969900,0.293969970703125,-0.009010255336761475,-0.20547963678836823,-0.10468695312738419
1781792836508015900,0.391015869140625,-0.016875140368938446,-0.45990481972694397,-0.2078467458486557
1781792836556539000,0.439538818359375,-0.04650207981467247,-0.3828594982624054,-0.1651625633239746
1781792836605062000,0.488061767578125,0.019624030217528343,0.08972076326608658,0.33979353308677673
1781792836653585000,0.5365849609375,-0.034208428114652634,0.001679878099821508,0.45127636194229126
1781792836702108000,0.58510791015625,0.022525638341903687,0.008857538923621178,0.474260151386261
1781792836750631000,0.633630859375,0.04886918142437935,0.16745330393314362,0.6047561168670654
1781792836799154000,0.68215380859375,0.050778135657310486,0.5634464025497437,-0.04734202101826668
1781792836847677000,0.730677001953125,0.1568395346403122,1.1676679849624634,-0.7257073521614075
1781792836896200000,0.779199951171875,-0.10453423857688904,0.9317978620529175,-0.1375209391117096
1781792836944723000,0.827722900390625,-0.24342961609363556,0.1899789422750473,0.2237292230129242
1781792836993246000,0.876245849609375,-0.13011419773101807,-0.3013090491294861,0.3632354736328125
1781792837041769000,0.92476904296875,-0.08567378669977188,-0.15294526517391205,0.3081812858581543
1781792837090292000,0.9732919921875,-0.07047852128744125,0.09384410083293915,0.2176205813884735
1781792837138815000,1.02181494140625,0.001679878099821508,0.0023671009112149477,0.4021017551422119
1781792837187338000,1.070337890625,0.08048143237829208,0.1101083755493164,0.20838125050067902
1781792837235861000,1.118861083984375,0.10972658544778824,0.21571162343025208,0.12927426397800446
1781792837284384000,1.167384033203125,0.13820815086364746,0.10239620506763458,0.1715002804994583
1781792837332907000,1.215906982421875,0.1303432732820511,0.13271036744117737,0.03061959706246853
1781792837381430300,1.26443017578125,0.1360701322555542,0.05849030241370201,-0.04405862092971802
1781792837429953300,1.312953369140625,0.16470441222190857,-0.06666062027215958,-0.04841103404760361
1781792837478476300,1.361476318359375,0.21029019355773926,0.07681624591350555,-0.08910989761352539
1781792837526999300,1.409999267578125,0.1718057245016098,0.10247256606817245,0.008170315995812416
1781792837575522300,1.458522216796875,0.1571449637413025,0.05833758786320686,0.04993819445371628
1781792837624045300,1.50704541015625,0.20769402384757996,0.15462514758110046,0.004046979360282421
1781792837672568300,1.555568359375,0.25129449367523193,0.24297146499156952,0.09697478264570236
1781792837721091300,1.60409130859375,0.2176205813884735,0.20723587274551392,0.02153298258781433
1781792837769614600,1.652614501953125,0.14004075527191162,0.2199876755475998,-0.019471315667033195
1781792837818137600,1.7011376953125,0.24327689409255981,0.26732969284057617,-0.018173227086663246
1781792837866660600,1.74966064453125,0.26878049969673157,0.3236819803714752,-0.035124726593494415
1781792837915183600,1.79818359375,0.2652680277824402,0.30894485116004944,-0.14798198640346527
1781792837963706600,1.84670654296875,0.19914191961288452,0.08933897316455841,-0.1104138121008873
1781792838012230000,1.89522998046875,0.16760602593421936,-0.09300415962934494,-0.10903936624526978
1781792838060753000,1.9437529296875,0.08712458610534668,-0.04741837829351425,-0.16783510148525238
1781792838109276000,1.99227587890625,0.12018764764070511,0.18600831925868988,-0.0032070400193333626
1781792838157799000,2.040798828125,0.049021899700164795,0.1599702090024948,0.09911280870437622
1781792838206322200,2.089322265625,-0.04245510324835777,-0.02458730712532997,0.053603384643793106
1781792838254845200,2.13784521484375,-0.0386371985077858,-0.03474293276667595,0.05177079141139984
1781792838303368200,2.1863681640625,-0.06154462695121765,-0.03779725730419159,0.04657844081521034
1781792838351891500,2.234891357421875,-0.008246674202382565,-0.042913250625133514,0.02519817277789116
1781792838400414500,2.28341455078125,0.07651081681251526,-0.04841103404760361,-0.05864302068948746
1781792838448937500,2.3319375,0.12415826320648193,-0.016187917441129684,-0.08368847519159317
1781792838545983700,2.428983642578125,0.09789107739925385,-0.06589704006910324,-0.23594652116298676
1781792838594506800,2.4775068359375,0.06971494108438492,-0.22273656725883484,-0.11537708342075348
1781792838643030000,2.526030029296875,-0.02107483521103859,-0.3038288652896881,-0.18295399844646454
1781792838691553000,2.574552978515625,-0.008246674202382565,-0.39965829253196716,-0.054214250296354294
1781792838740076000,2.623075927734375,-0.0639880821108818,-0.25007277727127075,-0.06101011857390404
1781792838788599300,2.671599365234375,-0.16783510148525238,-0.3684278130531311,-0.06643154472112656
1781792838837122300,2.720122314453125,-0.256792277097702,-0.01847865991294384,-0.14637847244739532
1781792838885645600,2.7686455078125,-0.20082180202007294,0.3347539007663727,-0.33001968264579773
1781792838934168600,2.81716845703125,-0.2199876755475998,0.08933897316455841,-0.13698641955852509
1781792838982691800,2.86569189453125,-0.17883066833019257,0.12988512217998505,-0.12240202724933624
1781792839031214800,2.91421484375,-0.1043815165758133,-0.06207913160324097,-0.051618073135614395
1781792839079737900,2.96273779296875,-0.026343543082475662,-0.1637117564678192,-0.08116865903139114
1781792839128260900,3.0112607421875,-0.05787943676114082,-0.10369429737329483,-0.10674861818552017
1781792839176784100,3.0597841796875,-0.06818778067827225,0.1562286615371704,-0.5120574235916138
1781792839225307100,3.10830712890625,0.10461059212684631,0.08842267841100693,-0.4136318266391754
1781792839273830400,3.156830322265625,0.09361502528190613,-0.1510363221168518,-0.1185077652335167
1781792839322353400,3.205353515625,0.012675444595515728,-0.12392919510602951,0.02611446939408779
1781792839370876700,3.253876708984375,-0.05696314200758934,-0.09346231073141098,0.11278090626001358
1781792839419400000,3.30239990234375,-0.05971203371882439,-0.046883873641490936,0.1787542998790741
1781792839467923000,3.3509228515625,-0.027336198836565018,-0.028863361105322838,0.19792018830776215
1781792839516446200,3.3994462890625,-0.0206166859716177,-0.11461350321769714,0.30894485116004944
1781792839564969200,3.44796923828125,-0.039858926087617874,-0.12851068377494812,0.2594648003578186
1781792839613493200,3.4964931640625,-0.0334448479115963,-0.05329795181751251,0.17478369176387787
1781792839662015500,3.545015380859375,-0.037720900028944016,-0.011759147047996521,0.10094540566205978
1781792839710538800,3.593538818359375,-0.06971494108438492,-0.013362666592001915,0.09544762223958969
1781792839759061800,3.642061767578125,-0.04818195849657059,0.01954767294228077,0.06704241037368774
1781792839807585000,3.6905849609375,-0.02672533318400383,-0.029474224895238876,0.05154171586036682
1781792839856108000,3.73910791015625,-0.005955931730568409,-0.021991131827235222,0.06452259421348572
1781792839904631300,3.78763134765625,-0.01000291109085083,0.004581485874950886,0.016340631991624832
1781792839953154300,3.836154296875,-0.0021380267571657896,-0.013362666592001915,0.006566796451807022
1781792840001677600,3.884677490234375,-0.0015271619195118546,-0.013057234697043896,0.019624030217528343
1781792840050200800,3.933200927734375,-0.002443459117785096,-0.006872228812426329,-0.06551524996757507
1781792840098723800,3.981723876953125,0.008781181648373604,-0.01611155830323696,-0.06108647957444191
1781792840147247000,4.0302470703125,0.023976443335413933,-0.03352120518684387,0.004581485874950886
1781792840195770400,4.078770263671875,0.03329212963581085,-0.06337722390890121,-0.016187917441129684
1781792840244293400,4.12729345703125,0.003970621153712273,-0.32070401310920715,0.054443322122097015
1781792840292816600,4.175816650390625,-0.02916879393160343,-0.2585485279560089,-0.028634287416934967
1781792840341340000,4.22433984375,0.059635672718286514,-0.036804601550102234,-0.3597993552684784
1781792840389863000,4.27286279296875,0.006490438245236874,0.189673513174057,-0.4107302129268646
1781792840438386200,4.32138623046875,-0.006337722297757864,0.24549128115177155,-0.46219557523727417
1781792840486918100,4.369918212890625,0.04253146052360535,0.2635118067264557,-0.9859357476234436
1781792840535432400,4.418432373046875,0.083306685090065,0.45883581042289734,-1.0648136138916016
1781792840583955700,4.466955810546875,-0.01206457894295454,0.39591673016548157,-0.3064250349998474
1781792840632479000,4.51547900390625,-0.12034036219120026,0.11232276260852814,-0.1196531355381012
1781792840681002200,4.564002197265625,-0.035964664071798325,0.019471315667033195,0.1253799945116043
1781792840729525200,4.612525146484375,0.0962875634431839,0.2738201320171356,0.047494735568761826
1781792840778048500,4.661048583984375,0.22579088807106018,0.16829325258731842,0.18616104125976562
1781792840826571800,4.70957177734375,0.12286017835140228,-0.17913609743118286,0.23991714417934418
1781792840875095000,4.758094970703125,0.11308634281158447,-0.06520981341600418,0.3006218373775482
1781792840923618000,4.8066181640625,0.05612320080399513,0.10835213959217072,0.20341797173023224
1781792840972141300,4.855141357421875,0.11262819170951843,0.24953825771808624,0.34956738352775574
1781792841020664600,4.90366455078125,0.11812597513198853,0.33918267488479614,0.07345648854970932
1781792841069187800,4.952187744140625,0.08414662629365921,0.0550541877746582,0.23136503994464874
1781792841117711000,5.000711181640625,0.10804671049118042,-0.31551164388656616,0.5768090486526489
1781792841166234000,5.049234130859375,0.37949973344802856,-0.1357647031545639,0.53931725025177
1781792841214757400,5.09775732421875,0.3689623177051544,0.2836703360080719,0.07429642975330353
1781792841263280600,5.14628076171875,0.15004366636276245,0.03649916872382164,-0.25877758860588074
1781792841311804000,5.194803955078125,0.1455385386943817,-0.8672752976417542,0.38438665866851807
1781792841360327000,5.243326904296875,0.1536324918270111,-1.2570070028305054,0.10774127393960953
1781792841408850200,5.29185009765625,0.2277761995792389,-0.499381959438324,0.19356778264045715
1781792841457373400,5.34037353515625,0.0642935186624527,0.36132651567459106,0.04459312930703163
1781792841505896700,5.388896728515625,-0.037033677101135254,0.20601414144039154,-0.07559451460838318
1781792841554420000,5.437419921875,-0.008246674202382565,-0.28993168473243713,-0.10186170041561127
1781792841602943000,5.48594287109375,0.06383536756038666,-0.6332377195358276,0.03588830679655075
1781792841651466200,5.53446630859375,0.13973531126976013,-1.9927936792373657,0.15867212414741516
1781792841699989500,5.582989501953125,0.228921577334404,-5.893699645996094,0.8174898028373718
1781792841748512800,5.6315126953125,-0.2208276242017746,-0.9421061873435974,0.2528980076313019
1781792841797036000,5.6800361328125,-0.1011744812130928,-0.7848848700523376,-0.048792824149131775
1781792841845559300,5.728559326171875,0.07307469844818115,-0.6113229393959045,0.042913250625133514
1781792841894082600,5.77708251953125,0.17974695563316345,-0.7655662894248962,0.07849612087011337
1781792841942605600,5.82560546875,0.23243404924869537,-0.6363683938980103,0.07597630470991135
1781792841991128800,5.87412890625,0.16340632736682892,-0.7922916412353516,0.14393500983715057
1781792842039652000,5.922652099609375,0.10140355676412582,-0.9501237869262695,0.043371398001909256
1781792842088175400,5.97117529296875,-0.014202605932950974,-0.6928733587265015,0.013973532244563103
1781792842136698600,6.01969873046875,0.07078395783901215,-1.0740530490875244,-0.0057268571108579636
1781792842185222000,6.068221923828125,0.22701261937618256,-1.4218641519546509,-0.014737112447619438
1781792842233745200,6.1167451171875,0.28183773159980774,-1.4797435998916626,-0.002825249684974551
1781792842282268200,6.16526806640625,0.5425242781639099,-2.103971004486084,-0.04810560122132301
1781792842330791400,6.21379150390625,0.6556869745254517,-2.8357107639312744,0.2055560052394867
1781792842379314700,6.262314697265625,0.2528980076313019,-2.593273639678955,0.2559523284435272
1781792842427838000,6.310837890625,0.11438442766666412,-2.393597364425659,0.15836669504642487
1781792842476361200,6.359361328125,0.1879936307668686,-2.47407865524292,0.25381430983543396
1781792842524884500,6.407884521484375,0.013897174037992954,-2.032881736755371,0.42195484042167664
1781792842573407700,6.45640771484375,-0.5807033181190491,-3.560119867324829,0.6611084342002869
1781792842621931000,6.504930908203125,-0.5615374445915222,-3.1516804695129395,0.4610501825809479
1781792842670454300,6.553454345703125,0.6791289448738098,0.5190823674201965,0.14660754799842834
1781792842767500800,6.650500732421875,0.7918334603309631,0.0884990319609642,0.147905632853508
1781792842816023800,6.69902392578125,1.0372483730316162,0.07070759683847427,0.6766854524612427
1781792842864547300,6.74754736328125,0.9505056142807007,1.0177006721496582,1.1055889129638672
1781792842920267000,6.80326708984375,-0.7757982611656189,2.643211841583252,0.637742817401886
1781792842968790300,6.851790283203125,-1.7431789636611938,3.3192100524902344,-0.2052505612373352
1781792843017313500,6.9003134765625,-2.7667593955993652,3.796677350997925,-0.648967444896698
1781792843065836800,6.9488369140625,-2.617708206176758,2.7779839038848877,-1.1223113536834717
1781792843114360000,6.997360107421875,-2.10588002204895,2.136423110961914,-1.1726312637329102
1781792843162883300,7.04588330078125,-2.091830015182495,1.8548145294189453,-0.7429642677307129
1781792843259929900,7.142929931640625,-0.9282854199409485,1.3732240200042725,-0.8554397821426392
1781792843308453000,7.191453125,-1.3619993925094604,1.641546368598938,-1.1127665042877197
1781792843356976400,7.239976318359375,-1.2860994338989258,1.7596724033355713,-1.6690353155136108
1781792843405499600,7.288499755859375,-1.170798659324646,1.511508584022522,-1.482187032699585
1781792843454023000,7.33702294921875,-1.5585451126098633,1.89589524269104,-1.6803362369537354
1781792843502546200,7.385546142578125,-1.1655299663543701,1.4589741230010986,-1.4808889627456665
1781792843551069400,7.4340693359375,-1.185917615890503,1.3528363704681396,-1.142469882965088
1781792843648115700,7.53111572265625,-2.7517168521881104,0.8674280047416687,-1.9287291765213013
1781792843745162200,7.628162353515625,-1.8309907913208008,-0.9379065036773682,-0.3530798554420471
1781792843842209000,7.725208984375,-3.728336811065674,-0.3155880272388458,1.5640429258346558
1781792843939255300,7.82225537109375,-2.979187488555908,1.4506511688232422,2.084117889404297
1781792844036301800,7.9193017578125,-4.102720737457275,2.250044107437134,0.41905322670936584
1781792844133348600,8.0163486328125,-3.914421558380127,3.2925610542297363,-5.420966625213623
1781792844230395000,8.113394775390624,0.2707658112049103,-0.4828122556209564,0.9737184643745422
1781792844327441400,8.21044140625,0.31459537148475647,-0.2162461280822754,0.43233954906463623
1781792844424488200,8.30748828125,2.663217782974243,-1.628794550895691,1.9372812509536743
1781792844521534700,8.40453466796875,11.630712509155273,-6.493950843811035,9.573854446411133
1781792844618581200,8.501581298828125,7.861447811126709,-4.860879898071289,10.235268592834473
1781792844715627800,8.598627685546875,-0.194025918841362,0.38156139850616455,-0.7512109875679016
1781792844812674300,8.69567431640625,-1.310152292251587,0.9117920398712158,-2.1940736770629883
1781792844909720600,8.792720458984375,-0.19471314549446106,-0.0025961752980947495,-0.6446150541305542
1781792844958244000,8.841244140625,0.3433060050010681,2.242102861404419,-3.226358652114868
1781792845006767400,8.889767333984375,1.650174856185913,5.034976482391357,-1.3756674528121948
1781792845055290600,8.93829052734375,1.4829505681991577,3.744753837585449,-0.6752346754074097
1781792845103814000,8.98681396484375,0.43837183713912964,0.6459131240844727,-0.49258607625961304
1781792845152337200,9.035337158203125,0.23922991752624512,-1.2622756958007812,-0.3013090491294861
1781792845201248800,9.084248779296875,1.3791799545288086,-0.7837395071983337,-0.41294458508491516
1781792845297907000,9.180906982421876,1.448818564414978,-1.505781650543213,-1.09688401222229
1781792845346430200,9.22943017578125,2.6229007244110107,-2.8900012969970703,-0.9637155532836914
1781792845394953500,9.277953369140626,4.664792537689209,-1.2966368198394775,-0.4147771894931793
1781792845443477000,9.32647705078125,4.62730073928833,0.8839213252067566,-2.383747100830078
1781792845492000300,9.375000244140624,4.412123680114746,1.7346268892288208,-3.734445571899414
1781792845540523500,9.4235234375,3.5840964317321777,1.0291544198989868,-2.4957644939422607
1781792845589046800,9.472046875,2.1021385192871094,0.6434696912765503,-0.20196716487407684
1781792845637570000,9.520570068359374,1.052290916442871,0.910952091217041,0.1651625633239746
1781792845686093300,9.56909326171875,0.9973130822181702,2.0785436630249023,-0.2190713882446289
1781792845734616800,9.617616943359375,0.947909414768219,2.5967862606048584,0.2680169343948364
1781792845783139800,9.666139892578125,1.5108976364135742,3.8606653213500977,1.6375757455825806
1781792845831663400,9.714663330078125,-0.5153408050537109,-0.521831214427948,3.2581236362457275
1781792845880186600,9.7631865234375,0.6540834903717041,0.028863361105322838,-0.030543239787220955
1781792845928710000,9.8117099609375,1.0972658395767212,0.25213444232940674,0.000610864779446274
1781792845977233200,9.860233154296875,0.9103412628173828,0.9435570240020752,-0.09758564829826355
1781792846074280000,9.957280029296875,0.38102689385414124,1.3263401985168457,1.4190388917922974
1781792846122803200,10.00580322265625,0.6328558921813965,0.5579485893249512,1.1726312637329102
1781792846171326500,10.054326416015625,0.15470150113105774,-0.35941755771636963,0.3216966688632965
1781792846219849700,10.102849609375,0.2543488144874573,0.9729548692703247,-0.016340631991624832
1781792846268373200,10.151373291015625,-1.1760674715042114,-0.5732202529907227,2.453843832015991
1781792846316896500,10.199896484375,-1.0128138065338135,0.562377393245697,4.34492826461792
1781792846365419800,10.248419677734375,-0.09392046183347702,-0.8410080671310425,3.7051239013671875
1781792846462466600,10.345466552734376,0.37346744537353516,-0.15370884537696838,-2.091982841491699
1781792846510989800,10.39398974609375,-0.45738500356674194,1.2090541124343872,-0.12179116904735565
1781792846559513300,10.442513427734376,-1.4369829893112183,1.2775473594665527,1.716911792755127
1781792846608036600,10.49103662109375,-2.233550786972046,0.0951421856880188,2.3544256687164307
1781792846656559900,10.539559814453124,-1.9388848543167114,-1.7319543361663818,2.7389650344848633
1781792846705083100,10.588083251953124,-0.014278964139521122,-2.2420265674591064,0.4153880476951599
1781792846753606400,10.6366064453125,0.6464476585388184,-0.14217877388000488,-1.6676608324050903
1781792846802130000,10.6851298828125,0.301003634929657,-1.50196373462677,-3.7910268306732178
1781792846850653200,10.733653076171874,0.08933897316455841,-3.568671941757202,-4.231307506561279
1781792846899176400,10.782176513671875,1.3752093315124512,-2.4466662406921387,-4.946324825286865
1781792846947700000,10.830699951171875,1.234710454940796,-1.3667335510253906,-4.880198955535889
1781792846996223500,10.879223388671875,1.3357322216033936,-1.0768018960952759,-2.3673300743103027
1781792847044746800,10.927746826171875,0.9256892204284668,-0.5535961985588074,-2.9274168014526367
1781792847093270000,10.97627001953125,1.0254892110824585,0.9244675040245056,-1.5196025371551514
1781792847141793300,11.024793212890625,0.916297197341919,1.6216169595718384,1.2108867168426514
1781792847190316800,11.07331689453125,-0.9448550939559937,-0.6992111206054688,3.0952517986297607
1781792847238840000,11.121840087890625,0.8327614068984985,0.38217228651046753,0.8371137976646423
1781792847287363300,11.17036328125,1.3263401985168457,2.170173406600952,0.2309068888425827
1781792847335886800,11.218886962890625,1.6882774829864502,2.333350658416748,0.16760602593421936
1781792847384410400,11.267410400390625,0.5701659321784973,-1.116202712059021,1.0680207014083862
1781792847432933600,11.31593359375,1.90299654006958,-0.23655737936496735,-0.0191658828407526
1781792847481457000,11.364456787109376,1.725234866142273,0.4943423271179199,0.5355756878852844
1781792847578503700,11.461503662109376,1.4891356229782104,1.7652465105056763,1.5112794637680054
1781792847627027200,11.510027099609376,0.09162971377372742,0.14943279325962067,0.502970814704895
1781792847675550500,11.558550537109374,0.27229297161102295,0.722882091999054,-0.3954585790634155
1781792847724073700,11.60707373046875,-0.27023130655288696,-0.049021899700164795,0.24740023910999298
1781792847772597200,11.65559716796875,-0.24694208800792694,0.3092502951622009,0.924238383769989
1781792847821120500,11.70412060546875,0.10216713696718216,-0.4802924394607544,1.327256441116333
1781792847869644000,11.75264404296875,0.14378230273723602,-0.672104001045227,0.8952987194061279
1781792847918167600,11.80116748046875,0.1170569658279419,-0.25793763995170593,0.3883572816848755
1781792847966690600,11.849690673828125,-0.06780599057674408,-0.7273872494697571,0.21723878383636475
1781792848015214000,11.898214111328125,0.7415898442268372,-1.7315726280212402,-1.0722204446792603
1781792848063737300,11.9467373046875,0.5308414697647095,-1.5486949682235718,-0.9060651659965515
1781792848112260900,11.9952607421875,0.5893318057060242,0.3559814393520355,-0.5400044918060303
1781792848160784400,12.043784423828125,0.6229293346405029,0.01588248461484909,-0.966235339641571
1781792848209307600,12.0923076171875,0.3254382014274597,1.2872447967529297,0.1441640853881836
1781792848257831200,12.1408310546875,0.5750528573989868,1.357952356338501,1.6504039764404297
1781792848306354700,12.189354736328125,0.8702532649040222,1.1099413633346558,1.823049545288086
1781792848354878000,12.2378779296875,0.05474875494837761,0.011988221667706966,0.9039271473884583
1781792848403401200,12.286401123046875,-1.133001446723938,-0.8268818259239197,-0.9315688014030457
1781792848451924700,12.3349248046875,-1.9350669384002686,-0.8439860343933105,-1.9759948253631592
1781792848500448000,12.383447998046876,-2.4378085136413574,-2.3744313716888428,-4.196182727813721
1781792848548971500,12.431971435546876,-3.8926594257354736,-0.18058690428733826,-3.6445720195770264
1781792848597495000,12.4804951171875,-0.2836703360080719,-0.14721840620040894,0.7602975964546204
1781792848646018300,12.529018310546874,-0.8413135409355164,-2.6159520149230957,1.2034035921096802
1781792848694541800,12.577541748046874,-0.8394809365272522,-2.198349714279175,-0.33315038681030273
1781792848743065300,12.6260654296875,0.4166097939014435,0.7621301412582397,-0.6498073935508728
1781792848791588600,12.674588623046875,1.152243733406067,1.6139047145843506,-0.3176496922969818
1781792848840112000,12.723112060546875,0.27145302295684814,0.02519817277789116,-0.14515674114227295
1781792848888635400,12.771635498046875,-0.7590758204460144,-1.1490366458892822,-0.2790125012397766
1781792848937158700,12.82015869140625,-1.6295582056045532,-1.6730059385299683,-0.9540180563926697
1781792848985682200,12.86868212890625,-0.7792344093322754,-0.8173370957374573,-1.0975712537765503
1781792849082729200,12.965729248046875,0.7105884552001953,0.40339982509613037,0.040088001638650894
1781792849131252700,13.014252685546875,0.9293544292449951,0.6835576891899109,0.9794453382492065
1781792849179775700,13.062775634765625,1.5670208930969238,0.9949460029602051,1.9258276224136353
1781792849228299300,13.11129931640625,1.5513675212860107,0.7743474841117859,1.775783896446228
1781792849276822800,13.15982275390625,1.022740364074707,1.5322779417037964,0.6232348084449768
1781792849325346000,13.208345947265625,0.6403390169143677,0.9949460029602051,0.5545125007629395
1781792849373869600,13.25686962890625,1.1115448474884033,1.6980513334274292,0.9865466356277466
1781792849422393000,13.30539306640625,1.3044253587722778,0.3252091407775879,1.614668369293213
1781792849470916400,13.353916259765626,1.1638500690460205,0.12095122784376144,0.7867938280105591
1781792849519440000,13.40243994140625,0.8995747566223145,0.7584649920463562,0.49373146891593933
1781792849567963400,13.45096337890625,1.6131411790847778,1.0834450721740723,1.7480659484863281
1781792849616486700,13.499486572265624,0.2286161482334137,0.2390008419752121,0.5112938284873962
1781792849665010200,13.54801025390625,-0.3257436454296112,0.17348559200763702,0.05192350596189499
1781792849713533700,13.59653369140625,-0.9706641435623169,-0.7144827246665955,-0.8495602011680603
1781792849762057000,13.645056884765625,-1.6521601676940918,-0.6837103962898254,-2.3226606845855713
1781792849810580500,13.69358056640625,-1.3351976871490479,-0.8853721618652344,-0.8971312642097473
1781792849859104000,13.74210400390625,-0.7686969637870789,-0.3392590284347534,-1.9464442729949951
1781792849907627300,13.790627197265625,-0.9971603751182556,-0.9014837145805359,-0.7454841136932373
1781792849956150800,13.83915087890625,-0.320933073759079,-0.7144827246665955,-0.5221366882324219
1781792850053197800,13.93619775390625,0.06925679743289948,0.1963166743516922,-0.47174033522605896
1781792850150244600,14.03324462890625,1.4253002405166626,0.7338013052940369,-0.7570905089378357
1781792850247291400,14.13029150390625,1.0896300077438354,-0.28809911012649536,-0.6131555438041687
1781792850344338400,14.22733837890625,2.0820562839508057,-1.0793980360031128,-0.20685409009456635
1781792850441385200,14.32438525390625,0.7122683525085449,0.5510000586509705,-0.3084867000579834
1781792850538432000,14.421431884765624,-0.7513636946678162,0.49136435985565186,-0.014813470654189587
1781792850635478800,14.518478759765625,0.05169443041086197,0.3015381395816803,-0.03581194952130318
1781792850732525800,14.61552587890625,-0.14217877388000488,0.03375028073787689,0.19349141418933868
1781792850829572600,14.712572509765625,0.01893680728971958,0.7308233380317688,-1.4986803531646729
1781792850926619600,14.80961962890625,0.20280711352825165,-0.4347066581249237,0.697760283946991
1781792851023666400,14.90666650390625,0.38530296087265015,-0.14523309469223022,0.2421315312385559
1781792851120713200,15.003713134765626,-0.16798780858516693,0.42539095878601074,-0.1026252806186676
1781792851217760300,15.10076025390625,0.06452259421348572,0.09980003535747528,-0.14317142963409424
1781792851314807000,15.19780712890625,0.41928231716156006,0.3827831447124481,0.8145118355751038
1781792851411854000,15.29485400390625,-0.053985174745321274,0.2341139316558838,-0.2044106274843216
1781792851508900900,15.39190087890625,0.050549060106277466,0.10972658544778824,0.06620246917009354
1781792851605948000,15.488947998046875,-0.041386090219020844,0.1026252806186676,-0.039706211537122726
1781792851702994700,15.58599462890625,0.05070177838206291,0.03558287397027016,0.001450803829357028
1781792851800041700,15.683041748046875,0.0062613640911877155,0.14256057143211365,-0.005345067009329796
1781792851897088500,15.780088623046876,0.012217295356094837,0.16959133744239807,-0.009315688163042068
1781792851994135600,15.877135498046876,-0.007330377586185932,0.15027274191379547,-0.043371398001909256
1781792852091182300,15.974182373046874,-0.13278673589229584,0.35475972294807434,-0.021227551624178886
1781792852188229400,16.0712294921875,-0.01565340906381607,0.3445277214050293,0.09208786487579346
1781792852285276200,16.168276123046876,-0.03222311660647392,0.3950004279613495,-0.04230238497257233
1781792852382323200,16.2653232421875,-0.03993528336286545,0.3119991719722748,0.03375028073787689
1781792852479370000,16.362369873046877,0.017104214057326317,-0.14217877388000488,-0.03932442143559456
1781792852576417000,16.4594169921875,0.04214967042207718,-0.40546149015426636,-0.047265663743019104
1781792852673464000,16.556464111328125,0.028099779039621353,-0.19448406994342804,-0.04459312930703163
1781792852770510800,16.6535107421875,-0.004505127668380737,-0.02909243479371071,-0.0001527161948615685
1781792852867558000,16.750557861328126,0,0.03237583488225937,0.008323032408952713
1781792852964604700,16.847604736328126,-0.0007635809597559273,0.06368265300989151,-0.005039634648710489
1781792853061651700,16.944651611328126,-0.004657844081521034,0.040546149015426636,0.0102319847792387
1781792853158698800,17.04169873046875,-0.008399390615522861,0.0001527161948615685,0.007101302966475487
1781792853255745500,17.13874560546875,-0.003665188793092966,-0.043142326176166534,-0.005955931730568409
1781792853352792600,17.23579248046875,-0.004276053514331579,-0.052916161715984344,-0.009621120058000088
1781792853401316000,17.284316162109373,-0.005268708802759647,-0.03886627033352852,-0.008170315995812416
1781792853449839400,17.33283935546875,-0.00045814859913662076,-0.01908952370285988,-0.009621120058000088
1781792853498363000,17.38136279296875,-0.00755945174023509,-0.01183550525456667,-0.009621120058000088
1781792853546886400,17.429886474609376,-0.008781181648373604,-0.011606430634856224,0.0038179049734026194
1781792853595410000,17.478409912109374,-0.010384701192378998,-0.012446369975805283,0.0062613640911877155
1781792853643933400,17.526933349609376,-0.014813470654189587,-0.011224640533328056,0.001221729558892548
1781792853692456700,17.575456787109374,-0.014508038759231567,-0.002290742937475443,0.0009926552884280682
1781792853740980500,17.62398046875,-0.013209951110184193,0.002443459117785096,0.0010690133785828948
1781792853789504000,17.67250390625,-0.011606430634856224,0.012370011769235134,-0.002901607658714056
1781792853838027500,17.721027587890624,-0.011988221667706966,0.009162971749901772,0.0019853105768561363
1781792853886550800,17.76955078125,-0.01695149764418602,-0.002443459117785096,0.012446369975805283
1781792853935074300,17.81807421875,-0.01954767294228077,-0.006490438245236874,0.01588248461484909
1781792853983597800,17.866597900390627,-0.020387612283229828,-0.013897174037992954,0.017715077847242355
1781792854080644900,17.963644775390627,-0.01565340906381607,-0.011606430634856224,0.012675444595515728
1781792854129168100,18.012168212890625,-0.012446369975805283,-0.009315688163042068,0.007483093533664942
1781792854177691600,18.060691650390623,-0.007483093533664942,-0.008170315995812416,0.00022907429956831038
1781792854226215400,18.10921533203125,-0.010842849500477314,-0.017104214057326317,0.001450803829357028
1781792854274738700,18.15773876953125,-0.01183550525456667,-0.027488915249705315,0.012217295356094837
1781792854323262200,18.20626220703125,-0.015271619893610477,-0.03321577236056328,0.011453714221715927
1781792854371785700,18.25478564453125,-0.008323032408952713,-0.033826638013124466,0.0010690133785828948
1781792854420309000,18.30330908203125,-0.008323032408952713,-0.03436114266514778,0.0001527161948615685
1781792854468832500,18.35183251953125,-0.004046979360282421,-0.04276053607463837,0.000839939049910754
1781792854517356300,18.400356201171874,-0.01183550525456667,-0.03504836559295654,0.004505127668380737
1781792854565879600,18.448879638671876,-0.012446369975805283,-0.02458730712532997,0.010995565913617611
1781792854614403000,18.497403076171874,-0.013209951110184193,-0.006566796451807022,0.009162971749901772
1781792854662926600,18.545926513671876,-0.014049889519810677,0.003665188793092966,0.003512472379952669
1781792854711450000,18.5944501953125,-0.009773836471140385,0.008399390615522861,-0.0025961752980947495
1781792854759973600,18.6429736328125,-0.007941242307424545,0.00022907429956831038,0.00038179047987796366
1781792854808497000,18.691496826171875,-0.008552107028663158,-0.0058795735239982605,0.0013744457392022014
1781792854857020400,18.7400205078125,-0.008323032408952713,-0.006337722297757864,0.0016035200096666813
1781792854905544000,18.7885439453125,-0.0058795735239982605,-0.004123337101191282,-0.00038179047987796366
1781792854954067500,18.8370673828125,-0.004886918235570192,-0.0019853105768561363,-0.004276053514331579
1781792855002591000,18.885591064453124,-0.006108647678047419,-0.007330377586185932,-0.006872228812426329
1781792855051114500,18.934114501953125,-0.0013744457392022014,-0.01282816007733345,-0.006337722297757864
1781792855099638000,18.982637939453124,0.0001527161948615685,-0.009392046369612217,-0.006490438245236874
1781792855148161500,19.03116162109375,-0.0032070400193333626,-0.006566796451807022,-0.00755945174023509
1781792855196685000,19.07968505859375,-0.003894262947142124,-0.000839939049910754,-0.0038179049734026194
1781792855245208300,19.128208251953126,-0.0030543238390237093,-0.003283398225903511,-0.0054977829568088055
1781792855293731800,19.17673193359375,-0.006108647678047419,-0.004886918235570192,-0.006948587018996477
1781792855342255400,19.22525537109375,-0.004046979360282421,-0.006719512399286032,-0.008933897130191326
1781792855390779000,19.27377880859375,-0.005345067009329796,-0.004734201822429895,-0.009773836471140385
1781792855439302400,19.322302490234375,-0.0062613640911877155,-0.001832594396546483,-0.010384701192378998
1781792855487826000,19.370825927734376,-0.006566796451807022,-0.002061668550595641,-0.010155626572668552
1781792855584873000,19.467873046875,-0.008323032408952713,0.000610864779446274,-0.009926552884280682
1781792855633396200,19.516396240234375,-0.006108647678047419,-0.0001527161948615685,-0.009926552884280682
1781792855681919700,19.564919677734373,-0.0077121676877141,0.006566796451807022,-0.0102319847792387
1781792855730443300,19.613443359375,-0.007788525894284248,-0.0007635809597559273,-0.0058795735239982605
1781792855778966500,19.661966552734373,-0.006948587018996477,-0.0034361144062131643,-0.0054977829568088055
1781792855827490300,19.710490234375,-0.0058795735239982605,-0.008323032408952713,-0.010613775812089443
1781792855876013800,19.759013916015626,-0.003665188793092966,-0.01000291109085083,-0.008781181648373604
1781792855924537000,19.807537109375,-0.0025961752980947495,-0.009162971749901772,-0.010155626572668552
1781792855973060600,19.856060546875,-0.004886918235570192,-0.009392046369612217,-0.010842849500477314
1781792856021584100,19.904584228515624,-0.003894262947142124,-0.007330377586185932,-0.007788525894284248
1781792856070107600,19.953107666015626,-0.004505127668380737,-0.005268708802759647,-0.00954476185142994
1781792856118631200,20.001631103515624,-0.003283398225903511,-0.003665188793092966,-0.007177661173045635
1781792856167154700,20.05015478515625,-0.0034361144062131643,-0.0025961752980947495,-0.007941242307424545
1781792856215678000,20.098677978515624,-0.0057268571108579636,-0.0038179049734026194,-0.007177661173045635
1781792856264201500,20.147201416015626,-0.004886918235570192,0.0030543238390237093,-0.0058795735239982605
1781792856312725000,20.19572509765625,-0.0054977829568088055,0.005650499369949102,-0.004657844081521034
1781792856361248500,20.24424853515625,-0.006490438245236874,0.0062613640911877155,-0.0038179049734026194
1781792856409772000,20.29277197265625,-0.007330377586185932,0.003894262947142124,-0.004505127668380737
1781792856458295600,20.341295654296875,-0.006948587018996477,0.001450803829357028,-0.002825249684974551
1781792856506818800,20.38981884765625,-0.006337722297757864,0.001450803829357028,-0.002825249684974551
1781792856555342300,20.43834228515625,-0.010613775812089443,0.0022143847309052944,-0.0007635809597559273
1781792856603866000,20.4868662109375,-0.008323032408952713,-0.0022143847309052944,0.000610864779446274
1781792856652389400,20.535389404296875,-0.007483093533664942,-0.005955931730568409,-0.0034361144062131643
1781792856700913000,20.583912841796874,-0.005039634648710489,-0.013286309316754341,-0.0057268571108579636
1781792856749436400,20.6324365234375,-0.0077121676877141,-0.019929463043808937,-0.001832594396546483
1781792856797959700,20.680959716796874,-0.006490438245236874,-0.015271619893610477,-0.006108647678047419
1781792856846483200,20.729483154296876,-0.007101302966475487,-0.005039634648710489,-0.001832594396546483
1781792856895007000,20.778007080078126,-0.008093958720564842,0.0009926552884280682,-0.0019853105768561363
1781792856943530200,20.8265302734375,-0.007483093533664942,0.003665188793092966,-0.001679878099821508
1781792856992053800,20.8750537109375,-0.005268708802759647,0.007483093533664942,-0.0030543238390237093
1781792857040577300,20.923577392578125,-0.003894262947142124,0.0013744457392022014,-0.001832594396546483
1781792857089100800,20.972100830078126,-0.005955931730568409,-0.009010255336761475,-0.001832594396546483
1781792857137624000,21.0206240234375,-0.008933897130191326,-0.05154171586036682,0.002672533504664898
1781792857186147600,21.069147705078127,-0.008933897130191326,-0.11972949653863907,0.015042545273900032
1781792857234671000,21.117671142578125,-0.0025961752980947495,-0.16386447846889496,0.007483093533664942
1781792857283194600,21.166194580078123,0.00022907429956831038,-0.14737112820148468,-0.006872228812426329
1781792857331718100,21.21471826171875,0.0034361144062131643,-0.10995566099882126,-0.009010255336761475
1781792857380241700,21.26324169921875,-0.0030543238390237093,-0.06925679743289948,0.0032070400193333626
1781792857428765000,21.311764892578125,-0.005345067009329796,-0.01359174121171236,0.004428769461810589
1781792857477288400,21.360288330078124,-0.013668099418282509,0.050319984555244446,0.001221729558892548
1781792857525812000,21.40881201171875,-0.01282816007733345,0.10239620506763458,-0.002825249684974551
1781792857574335500,21.45733544921875,-0.019394956529140472,0.1311832070350647,-0.005268708802759647
1781792857622859000,21.50585888671875,-0.01588248461484909,0.12621992826461792,0.010842849500477314
1781792857671382500,21.554382568359376,-0.01588248461484909,0.09957095980644226,0.0032070400193333626
1781792857719905800,21.60290576171875,-0.016035201027989388,0.06635518372058868,-0.010766491293907166
1781792857768429300,21.65142919921875,-0.0077121676877141,0.0360410213470459,-0.014278964139521122
1781792857816952800,21.699952880859374,-0.004123337101191282,0.019700389355421066,-0.019700389355421066
1781792857865476000,21.74847607421875,-0.002672533504664898,0.002672533504664898,-0.02176205813884735
1781792857913999600,21.79699951171875,-0.001450803829357028,-0.014889828860759735,-0.017562363296747208
1781792857962523400,21.8455234375,0.00022907429956831038,-0.020311253145337105,-0.017867794260382652
1781792858011046700,21.894046630859375,-0.002901607658714056,-0.0191658828407526,-0.01870773360133171
1781792858059570200,21.942570068359377,0,-0.01977674663066864,-0.010842849500477314
1781792858108093700,21.99109375,-0.0022143847309052944,-0.023365577682852745,-0.0062613640911877155
1781792858156617000,22.039616943359373,0.0001527161948615685,-0.026648975908756256,-0.0038179049734026194
1781792858205140500,22.088140380859375,0.0013744457392022014,-0.011988221667706966,-0.012446369975805283
1781792858253664000,22.1366640625,0.0057268571108579636,0.010537417605519295,-0.012675444595515728
1781792858302187500,22.1851875,0.007788525894284248,0.030695954337716103,-0.017562363296747208
1781792858350710800,22.233710693359374,0.00045814859913662076,0.030925029888749123,-0.020998476073145866
1781792858399234300,22.282234375,0.0009926552884280682,0.024052800610661507,-0.019394956529140472
1781792858447757800,22.3307578125,-0.000839939049910754,0.006566796451807022,-0.013668099418282509
1781792858496281300,22.37928125,-0.00045814859913662076,-0.021991131827235222,-0.008933897130191326
1781792858544804900,22.427804931640626,0.0007635809597559273,-0.05520690605044365,-0.0032070400193333626
1781792858593328400,22.476328369140624,-0.004428769461810589,-0.06795870512723923,-0.004886918235570192
1781792858641851600,22.5248515625,-0.002672533504664898,-0.06765327602624893,-0.0058795735239982605
1781792858690375200,22.573375244140625,0.0019853105768561363,-0.05887209251523018,-0.004046979360282421
1781792858738898700,22.621898681640626,0.0057268571108579636,-0.03764454275369644,-0.0058795735239982605
1781792858787422000,22.670421875,-0.001221729558892548,-0.010766491293907166,-0.008781181648373604
1781792858835945500,22.718945556640627,-0.003283398225903511,-0.011606430634856224,0.003894262947142124
1781792858884469000,22.767468994140625,-0.0062613640911877155,-0.005039634648710489,0.003512472379952669
1781792858932992300,22.8159921875,-0.0019853105768561363,0.026419902220368385,-0.012217295356094837
1781792858981515800,22.864515869140625,-0.0057268571108579636,0.05459604039788246,-0.012675444595515728
1781792859030039300,22.913039306640623,-0.01000291109085083,0.05818486958742142,0.004046979360282421
1781792859078562600,22.9615625,-0.013897174037992954,0.03275762498378754,0.009315688163042068
1781792859127086000,23.010086181640624,-0.012675444595515728,-0.006566796451807022,0.007483093533664942
1781792859175609600,23.058609619140626,-0.010537417605519295,-0.02519817277789116,-0.006490438245236874
1781792859224132900,23.1071328125,-0.007788525894284248,-0.011377356946468353,-0.009926552884280682
1781792859272656400,23.155656494140626,-0.008399390615522861,0.010537417605519295,-0.005955931730568409
1781792859321180200,23.20418017578125,-0.009773836471140385,0.025809036567807198,-0.002443459117785096
1781792859369703400,23.252703369140626,-0.011988221667706966,0.0256563201546669,-0.001450803829357028
1781792859418227000,23.30122705078125,-0.013057234697043896,0.018555017188191414,0.000610864779446274
1781792859466750500,23.34975048828125,-0.01565340906381607,0.00511599238961935,0.003665188793092966
1781792859515273700,23.398273681640624,-0.017867794260382652,-0.014278964139521122,0.004046979360282421
1781792859563797200,23.44679736328125,-0.01183550525456667,-0.021380268037319183,0.003512472379952669
1781792859612320800,23.49532080078125,-0.008323032408952713,-0.02176205813884735,-0.001221729558892548
1781792859660844300,23.54384423828125,-0.005268708802759647,-0.01626427471637726,-0.00511599238961935
1781792859709367600,23.592367431640625,-0.007101302966475487,-0.006566796451807022,-0.002825249684974551
1781792859757891000,23.64089111328125,-0.009621120058000088,0.004123337101191282,-0.001832594396546483
1781792859806414600,23.68941455078125,-0.008170315995812416,0.0154243353754282,-0.005039634648710489
1781792859854937900,23.737937744140623,-0.008323032408952713,0.00045814859913662076,-0.0007635809597559273
1781792859903461400,23.78646142578125,-0.006566796451807022,-0.03558287397027016,0.0038179049734026194
1781792859951984600,23.834984619140624,-0.003283398225903511,-0.05177079141139984,0.0016035200096666813
1781792860000508000,23.8835078125,-0.0016035200096666813,-0.009926552884280682,-0.014889828860759735
1781792860049031400,23.932031494140624,-0.003283398225903511,0.05192350596189499,-0.015271619893610477
1781792860097555000,23.980554931640626,-0.008093958720564842,0.07162389904260635,-0.005039634648710489
1781792860146078200,24.029078125,-0.013057234697043896,0.024816380813717842,0.007941242307424545
1781792860194601700,24.077601806640626,-0.007177661173045635,-0.05024362727999687,0.0057268571108579636
1781792860243125200,24.126125244140624,-0.004123337101191282,-0.06001746281981468,-0.014202605932950974
1781792860291648500,24.1746484375,-0.000610864779446274,-0.002672533504664898,-0.018555017188191414
1781792860340172000,24.223172119140624,-0.004734201822429895,0.03825540840625763,-0.005268708802759647
1781792860388695600,24.271695556640626,-0.01259908638894558,0.016646064817905426,0.005268708802759647
1781792860437218800,24.32021875,-0.006490438245236874,-0.03405570983886719,-0.0034361144062131643
1781792860485742300,24.368742431640626,-0.004505127668380737,-0.030695954337716103,-0.018173227086663246
1781792860534265900,24.417265869140625,-0.002901607658714056,0.002290742937475443,-0.010842849500477314
1781792860582789000,24.4657890625,-0.00954476185142994,0.031154103577136993,0.00038179047987796366
1781792860631312600,24.514312744140625,-0.012370011769235134,0.017333287745714188,-0.0001527161948615685
1781792860679836200,24.562836181640623,-0.006719512399286032,-0.007483093533664942,-0.007177661173045635
1781792860728359400,24.611359375,-0.0057268571108579636,-0.013668099418282509,-0.012446369975805283
1781792860776882700,24.659882568359375,-0.004046979360282421,-0.0007635809597559273,-0.014202605932950974
1781792860825406200,24.70840625,-0.004734201822429895,0.0206166859716177,-0.010766491293907166
1781792860873929500,24.756929443359375,-0.005955931730568409,0.020158538594841957,-0.0077121676877141
1781792860922453000,24.805452880859374,-0.008323032408952713,0.005650499369949102,-0.004657844081521034
1781792860970976500,24.8539765625,-0.0057268571108579636,-0.01649334840476513,-0.0032070400193333626
1781792861019499800,24.902499755859374,-0.006566796451807022,-0.030161447823047638,-0.005268708802759647
1781792861068023300,24.951023193359376,-0.00511599238961935,-0.033826638013124466,-0.003894262947142124
1781792861116546800,24.999546875,-0.0057268571108579636,-0.0256563201546669,0.0019853105768561363
1781792861165070000,25.048070068359376,-0.004428769461810589,-0.020311253145337105,-0.0025961752980947495
1781792861213593300,25.09659326171875,-0.004123337101191282,-0.013439024798572063,-0.00755945174023509
1781792861262116900,25.145116943359376,-0.005268708802759647,-0.002061668550595641,-0.0058795735239982605
1781792861310640400,25.193640380859375,-0.006566796451807022,0.015271619893610477,-0.0038179049734026194
1781792861359163600,25.24216357421875,-0.006108647678047419,0.024205517023801804,-0.002290742937475443
1781792861407687200,25.290687255859375,-0.00755945174023509,0.023212861269712448,-0.005345067009329796
1781792861456210400,25.33921044921875,-0.00755945174023509,0.015500693581998348,-0.0038179049734026194
1781792861504733700,25.387733642578127,-0.004505127668380737,0.0058795735239982605,-0.003894262947142124
1781792861601780700,25.48478076171875,-0.005268708802759647,-0.008781181648373604,-0.005345067009329796
1781792861650304000,25.533303955078125,-0.004657844081521034,-0.011453714221715927,-0.009010255336761475
1781792861698827500,25.58182763671875,-0.0034361144062131643,-0.006719512399286032,-0.009773836471140385
1781792861747350800,25.630350830078125,-0.002825249684974551,-0.009926552884280682,-0.007101302966475487
1781792861795874000,25.6788740234375,-0.006337722297757864,-0.01000291109085083,-0.0058795735239982605
1781792861844397600,25.7273974609375,-0.004276053514331579,-0.01954767294228077,-0.002672533504664898
1781792861892921000,25.775921142578124,-0.005039634648710489,-0.011988221667706966,-0.006872228812426329
1781792861941444000,25.824444091796874,-0.004276053514331579,-0.00511599238961935,-0.006337722297757864
1781792861989967600,25.872967529296876,-0.005268708802759647,0.004276053514331579,-0.0057268571108579636
1781792862038491100,25.9214912109375,-0.006108647678047419,0.011377356946468353,-0.006872228812426329
1781792862087014400,25.970014404296876,-0.006719512399286032,0.012980876490473747,-0.004657844081521034
1781792862135538000,26.018537841796874,-0.00755945174023509,0.006566796451807022,-0.003665188793092966
1781792862184061200,26.067061279296876,-0.006490438245236874,-0.00038179047987796366,-0.003894262947142124
1781792862232584400,26.11558447265625,-0.005650499369949102,-0.006490438245236874,-0.005650499369949102
1781792862281108000,26.16410791015625,-0.007177661173045635,-0.009315688163042068,-0.004657844081521034
1781792862329631500,26.212631591796875,-0.005650499369949102,-0.002672533504664898,-0.004428769461810589
1781792862378154800,26.26115478515625,-0.007788525894284248,0.000610864779446274,-0.004276053514331579
1781792862426678000,26.309677978515627,-0.006719512399286032,-0.001679878099821508,-0.0022143847309052944
1781792862475201500,26.358201416015625,-0.006108647678047419,-0.007483093533664942,-0.004428769461810589
1781792862523724800,26.406724853515627,-0.00511599238961935,-0.0058795735239982605,-0.0077121676877141
1781792862572248000,26.455248046875,-0.004734201822429895,-0.004657844081521034,-0.008552107028663158
1781792862620771600,26.503771484375,-0.005268708802759647,-0.006490438245236874,-0.006566796451807022
1781792862669294800,26.552294921875,-0.006108647678047419,-0.009010255336761475,-0.008552107028663158
1781792862717818000,26.600818115234375,-0.006337722297757864,-0.006566796451807022,-0.0058795735239982605
1781792862766341600,26.649341552734374,-0.006719512399286032,-0.0032070400193333626,-0.004734201822429895
1781792862814865000,26.697864990234375,-0.0054977829568088055,-0.0019853105768561363,-0.007483093533664942
1781792862863388200,26.74638818359375,-0.0062613640911877155,-0.003512472379952669,-0.006490438245236874
1781792862911911700,26.79491162109375,-0.006108647678047419,-0.007483093533664942,-0.007101302966475487
1781792862960435000,26.84343505859375,-0.007101302966475487,-0.0034361144062131643,-0.008704823441803455
1781792863008958200,26.891958251953124,-0.006108647678047419,-0.001221729558892548,-0.008933897130191326
1781792863057481700,26.940481689453126,-0.006948587018996477,-0.001832594396546483,-0.0077121676877141
1781792863106005000,26.9890048828125,-0.006719512399286032,-0.005268708802759647,-0.007483093533664942
1781792863154528300,27.0375283203125,-0.005650499369949102,-0.007330377586185932,-0.0102319847792387
1781792863203051800,27.0860517578125,-0.003283398225903511,-0.007330377586185932,-0.010613775812089443
1781792863251575000,27.134574951171874,-0.00511599238961935,-0.005345067009329796,-0.011148282326757908
1781792863300098300,27.183098388671876,-0.007101302966475487,-0.002672533504664898,-0.008781181648373604
1781792863348621800,27.231621826171875,-0.005650499369949102,0.0016035200096666813,-0.0038179049734026194
1781792863397145000,27.28014501953125,-0.0077121676877141,0.011988221667706966,-0.005345067009329796
1781792863445668400,27.32866845703125,-0.004886918235570192,0.01183550525456667,-0.005650499369949102
1781792863494191900,27.37719189453125,-0.005650499369949102,0.0054977829568088055,-0.004046979360282421
1781792863542715100,27.425715087890627,-0.006948587018996477,0.000839939049910754,-0.005650499369949102
1781792863591238400,27.47423828125,-0.0062613640911877155,0.008170315995812416,-0.004657844081521034
1781792863639761700,27.52276171875,-0.005955931730568409,0.008170315995812416,-0.001450803829357028
1781792863688285000,27.571284912109373,-0.006566796451807022,0.003283398225903511,-0.0030543238390237093
1781792863736808400,27.619808349609375,-0.005650499369949102,-0.010384701192378998,-0.005345067009329796
1781792863785331700,27.668331787109373,-0.00511599238961935,-0.02000582218170166,-0.002672533504664898
1781792863833855000,27.71685498046875,-0.002061668550595641,-0.019700389355421066,-0.005268708802759647
1781792863882378200,27.765378173828125,-0.003665188793092966,-0.011148282326757908,-0.007101302966475487
1781792863930901800,27.81390185546875,-0.00511599238961935,-0.0054977829568088055,-0.0034361144062131643
1781792863979425000,27.862425048828126,-0.0057268571108579636,-0.00038179047987796366,-0.002061668550595641
1781792864027948300,27.9109482421875,-0.006490438245236874,0.0009926552884280682,-0.004734201822429895
1781792864076471800,27.959471923828126,-0.002901607658714056,-0.00022907429956831038,-0.005039634648710489
1781792864124995000,28.0079951171875,-0.00511599238961935,-0.002290742937475443,-0.0058795735239982605
1781792864173518300,28.056518310546874,-0.005268708802759647,-0.001679878099821508,-0.007941242307424545
1781792864222041600,28.10504150390625,-0.004505127668380737,0.0025961752980947495,-0.005039634648710489
1781792864270565000,28.153565185546874,-0.005650499369949102,0.002443459117785096,-0.004886918235570192
1781792864319088000,28.202088134765624,-0.006337722297757864,-0.0013744457392022014,-0.003894262947142124
1781792864367611600,28.250611572265626,-0.004276053514331579,-0.002443459117785096,-0.007788525894284248
1781792864416135000,28.299135009765624,-0.0030543238390237093,-0.0016035200096666813,-0.010613775812089443
1781792864464658200,28.347658203125,-0.003894262947142124,-0.0009926552884280682,-0.0062613640911877155
1781792864513181400,28.396181396484376,-0.005268708802759647,-0.0038179049734026194,-0.0058795735239982605
1781792864561705000,28.444705078125,-0.00511599238961935,-0.0058795735239982605,-0.006490438245236874
1781792864610228000,28.49322802734375,-0.005039634648710489,-0.0062613640911877155,-0.0038179049734026194
1781792864658751500,28.54175146484375,-0.005268708802759647,-0.00038179047987796366,-0.004046979360282421
1781792864707274800,28.590274658203125,-0.004505127668380737,-0.0001527161948615685,-0.004505127668380737
1781792864755798000,28.638798095703127,-0.007330377586185932,-0.0030543238390237093,-0.00755945174023509
1781792864804321300,28.6873212890625,-0.004505127668380737,-0.0030543238390237093,-0.0058795735239982605
1781792864852844500,28.735844482421875,-0.005039634648710489,0.001832594396546483,-0.007101302966475487
1781792864901367800,28.784367919921873,-0.006872228812426329,0.000839939049910754,-0.005039634648710489
1781792864949891000,28.83289111328125,-0.0054977829568088055,-0.009621120058000088,-0.005955931730568409
1781792864998414600,28.88141455078125,-0.0054977829568088055,-0.011148282326757908,-0.008323032408952713
1781792865046937600,28.9299375,-0.004657844081521034,-0.014278964139521122,-0.006948587018996477
1781792865095461000,28.978461181640625,-0.005955931730568409,-0.01000291109085083,-0.007941242307424545
1781792865143984400,29.026984375,-0.007483093533664942,-0.003894262947142124,-0.006490438245236874
1781792865192507400,29.07550732421875,-0.006872228812426329,-0.001221729558892548,-0.0034361144062131643
1781792865241031000,29.124031005859376,-0.009010255336761475,-0.00038179047987796366,-0.006872228812426329
1781792865289554200,29.17255419921875,-0.006337722297757864,-0.003894262947142124,-0.00511599238961935
1781792865338077400,29.221077392578124,-0.007788525894284248,-0.0030543238390237093,-0.005955931730568409
1781792865386600700,29.2696005859375,-0.008170315995812416,-0.003665188793092966,-0.008552107028663158
1781792865435124000,29.3181240234375,-0.0054977829568088055,0.00038179047987796366,-0.008552107028663158
1781792865483647200,29.366647216796874,-0.008323032408952713,-0.00038179047987796366,-0.008093958720564842
1781792865532170500,29.41517041015625,-0.007101302966475487,0.00038179047987796366,-0.0057268571108579636
1781792865580694000,29.463694091796874,-0.006872228812426329,-0.008093958720564842,-0.006719512399286032
1781792865629217000,29.512217041015624,-0.008170315995812416,-0.009315688163042068,-0.008552107028663158
1781792865677740300,29.560740234375,-0.005955931730568409,-0.012217295356094837,-0.004734201822429895
1781792865726263800,29.609263916015625,-0.00755945174023509,-0.003665188793092966,-0.0034361144062131643
1781792865774786800,29.657786865234375,-0.00954476185142994,0.005955931730568409,-0.002443459117785096
1781792865823310000,29.70631005859375,-0.011453714221715927,0.011377356946468353,0.00045814859913662076
1781792865871833600,29.75483349609375,-0.007330377586185932,-0.0054977829568088055,0.0062613640911877155
1781792865920356600,29.803356689453125,-0.003894262947142124,-0.03375028073787689,0.00022907429956831038
1781792865968879900,29.8518798828125,-0.004734201822429895,-0.0449749194085598,-0.00755945174023509
1781792866017403400,29.9004033203125,0.001679878099821508,-0.04153880476951599,-0.001450803829357028
1781792866065926400,29.948926513671875,0.001679878099821508,-0.040088001638650894,-0.008933897130191326
1781792866114449700,29.99744970703125,-0.006566796451807022,-0.020158538594841957,-0.002061668550595641
1781792866162973200,30.04597314453125,-0.0001527161948615685,-0.03405570983886719,0.004886918235570192
1781792866211496200,30.09449609375,-0.0054977829568088055,-0.05352702736854553,-0.007483093533664942
1781792866260019500,30.14301953125,0.0025961752980947495,-0.07780890166759491,-0.006948587018996477
1781792866308542700,30.191542724609373,0.004046979360282421,-0.0513126403093338,-0.00045814859913662076
1781792866357066000,30.24006591796875,-0.010995565913617611,0.0154243353754282,0.004734201822429895
1781792866405589200,30.28858935546875,-0.01206457894295454,0.07964149862527847,0.006948587018996477
1781792866454112500,30.337112548828124,-0.010384701192378998,0.1081230640411377,-0.001450803829357028
1781792866502635800,30.3856357421875,-0.014660755172371864,0.08834631741046906,-0.001679878099821508
1781792866551159000,30.434158935546876,-0.01847865991294384,0.0527634471654892,0.0010690133785828948
1781792866599682300,30.482682373046874,-0.0191658828407526,0.020311253145337105,0.004428769461810589
1781792866648205300,30.531205322265624,-0.020998476073145866,-0.01359174121171236,0.011606430634856224
1781792866696728800,30.579728759765626,-0.023976443335413933,-0.03588830679655075,0.014508038759231567
1781792866745252000,30.628252197265624,-0.014813470654189587,-0.043753188103437424,0.012446369975805283
1781792866793775000,30.676775146484374,-0.016035201027989388,-0.0386371985077858,0.002290742937475443
1781792866842298400,30.72529833984375,-0.014431680552661419,-0.03375028073787689,0.007941242307424545
1781792866890822000,30.77382177734375,-0.008933897130191326,-0.02932151034474373,-0.007330377586185932
1781792866939345000,30.822344970703124,-0.009010255336761475,-0.01282816007733345,-0.020922118797898293
1781792866987868200,30.8708681640625,-0.012217295356094837,-0.018096869811415672,-0.004657844081521034
1781792867036391400,30.919391357421876,-0.017333287745714188,-0.017715077847242355,0.0077121676877141
1781792867084914400,30.96791455078125,-0.013897174037992954,-0.001679878099821508,0.002290742937475443
1781792867133438000,31.01643798828125,-0.01206457894295454,0.004886918235570192,-0.0054977829568088055
1781792867181961200,31.064961181640626,-0.015729768201708794,0.013820815831422806,-0.0009926552884280682
1781792867230484200,31.113484130859376,-0.01588248461484909,0.03581194952130318,0.004886918235570192
1781792867279007500,31.162007568359375,-0.010842849500477314,0.040546149015426636,0.001221729558892548
1781792867327530800,31.21053076171875,-0.005345067009329796,0.025045456364750862,-0.012675444595515728
1781792867376053800,31.2590537109375,-0.010384701192378998,-0.001832594396546483,-0.013897174037992954
1781792867424577300,31.307577392578125,-0.0057268571108579636,-0.027870705351233482,-0.000839939049910754
1781792867473100500,31.3561005859375,-0.004276053514331579,-0.03260490670800209,0.004046979360282421
1781792867521623600,31.40462353515625,-0.011148282326757908,-0.023212861269712448,0.00022907429956831038
1781792867570146800,31.453146728515627,-0.009162971749901772,-0.006872228812426329,0.001450803829357028
1781792867618670000,31.501670166015625,0.0010690133785828948,0.008170315995812416,-0.01672242395579815
1781792867667193000,31.550193115234375,-0.0007635809597559273,0.012370011769235134,-0.017715077847242355
1781792867715716600,31.598716552734373,-0.011606430634856224,0.024816380813717842,0.00045814859913662076
1781792867764240000,31.647239990234375,-0.015271619893610477,0.061850059777498245,0.014431680552661419
1781792867812763000,31.695762939453125,-0.017867794260382652,0.12140937149524689,0.011224640533328056
1781792867861286100,31.7442861328125,-0.01908952370285988,0.1755472719669342,-0.004276053514331579
1781792867909809400,31.792809326171874,-0.021380268037319183,0.17577634751796722,-0.006566796451807022
1781792867958332400,31.84133251953125,-0.021838415414094925,0.1608865112066269,-0.014431680552661419
1781792868006855700,31.889855712890625,-0.027259841561317444,0.11499529331922531,-0.010842849500477314
1781792868055379000,31.93837890625,-0.019394956529140472,0.04657844081521034,-0.010842849500477314
1781792868103902000,31.98690185546875,-0.002825249684974551,-0.04535670951008797,-0.0077121676877141
1781792868152425200,32.03542529296875,0.01183550525456667,-0.1156061589717865,-0.014202605932950974
1781792868200948500,32.083948486328126,0.018555017188191414,-0.13645191490650177,-0.0345902182161808
1781792868249471700,32.1324716796875,0.02214384824037552,-0.12767073512077332,-0.04993819445371628
1781792868297995000,32.1809951171875,0.012217295356094837,-0.1337793916463852,-0.039706211537122726
1781792868346518300,32.22951831054687,0.008933897130191326,-0.1766926348209381,-0.0009926552884280682
1781792868395041300,32.27804125976562,0.009315688163042068,-0.20647229254245758,0.017867794260382652
1781792868443564500,32.326564453125,0.00022907429956831038,-0.1608865112066269,-0.001832594396546483
1781792868492087800,32.375087890625,-0.007330377586185932,-0.057039499282836914,-0.0013744457392022014
1781792868540610800,32.42361083984375,-0.005039634648710489,0.04230238497257233,0.009773836471140385
1781792868589134000,32.472134033203126,-0.01908952370285988,0.10361793637275696,0.01672242395579815
1781792868637657300,32.5206572265625,-0.020922118797898293,0.11194097250699997,0.021991131827235222
1781792868686180400,32.56918041992188,-0.024892739951610565,0.12072215229272842,0.008552107028663158
1781792868734703600,32.61770361328125,-0.01511890348047018,0.08796452730894089,0.010537417605519295
1781792868783227000,32.66622680664062,-0.014431680552661419,0.0642935186624527,-0.001450803829357028
1781792868831750000,32.71475,-0.010155626572668552,0.021838415414094925,0.000839939049910754
1781792868880273200,32.763273193359375,-0.009010255336761475,-0.00954476185142994,0.0010690133785828948
1781792868928796400,32.81179638671875,-0.012675444595515728,-0.03130681812763214,-0.0013744457392022014
1781792868977319400,32.8603193359375,-0.0077121676877141,-0.03955349326133728,-0.008399390615522861
1781792869025842700,32.9088427734375,-0.005039634648710489,-0.03810269013047218,-0.007788525894284248
1781792869074366000,32.95736596679688,-0.009010255336761475,-0.031001387163996696,0.002290742937475443
1781792869122889000,33.00588891601563,-0.012370011769235134,-0.022449281066656113,-0.002901607658714056
1781792869171412200,33.054412109375,-0.010537417605519295,-0.012675444595515728,-0.005650499369949102
1781792869219935500,33.102935546875,-0.010537417605519295,-0.005955931730568409,-0.0001527161948615685
1781792869268458500,33.15145849609375,-0.01206457894295454,0.002901607658714056,-0.004734201822429895
1781792869316981800,33.199981689453125,-0.013897174037992954,0.007330377586185932,0.00045814859913662076
1781792869365504800,33.2485048828125,-0.01359174121171236,0.006719512399286032,0.0010690133785828948
1781792869414028000,33.29702807617188,-0.011606430634856224,0.005039634648710489,-0.006719512399286032
1781792869462551300,33.34555126953125,-0.008323032408952713,-0.004046979360282421,-0.001832594396546483
1781792869511074300,33.39407421875,-0.010995565913617611,-0.002443459117785096,-0.006337722297757864
1781792869559597600,33.44259765625,-0.011759147047996521,-0.001679878099821508,-0.0034361144062131643
1781792869608120800,33.49112084960937,-0.011377356946468353,-0.005039634648710489,0.002443459117785096
1781792869656643800,33.53964379882812,-0.014431680552661419,-0.00038179047987796366,0.001221729558892548
1781792869705167000,33.5881669921875,-0.011606430634856224,-0.003665188793092966,-0.0016035200096666813
1781792869753690400,33.6366904296875,-0.008170315995812416,-0.004276053514331579,-0.004657844081521034
1781792869802213400,33.68521337890625,-0.009773836471140385,-0.003283398225903511,-0.005039634648710489
1781792869850736400,33.733736328125,-0.007788525894284248,-0.003665188793092966,-0.003894262947142124
1781792869899259600,33.782259765625,-0.008704823441803455,0.002290742937475443,-0.0054977829568088055
1781792869947782700,33.83078271484375,-0.008323032408952713,0.002061668550595641,-0.00045814859913662076
1781792869996306000,33.87930590820312,-0.008933897130191326,0.004276053514331579,-0.0007635809597559273
1781792870044829200,33.9278291015625,-0.006566796451807022,0.0007635809597559273,-0.002901607658714056
1781792870093352200,33.976352294921874,-0.007177661173045635,-0.002825249684974551,-0.0030543238390237093
1781792870141875500,34.02487548828125,-0.00755945174023509,0.006566796451807022,-0.005268708802759647
1781792870190398700,34.073398681640626,-0.003894262947142124,0.0058795735239982605,-0.005039634648710489
1781792870238921700,34.121921630859376,-0.009010255336761475,0.005650499369949102,0.00022907429956831038
1781792870287444700,34.17044482421875,-0.007788525894284248,-0.003283398225903511,0.0016035200096666813
1781792870335968000,34.21896801757813,-0.006719512399286032,-0.006490438245236874,-0.000839939049910754
1781792870384491000,34.26749096679688,-0.005955931730568409,-0.007788525894284248,-0.0022143847309052944
1781792870433014300,34.31601416015625,-0.004657844081521034,-0.008170315995812416,-0.006566796451807022
1781792870481537500,34.36453759765625,-0.004428769461810589,-0.006948587018996477,-0.008093958720564842
1781792870530060500,34.413060546875,-0.005268708802759647,-0.007177661173045635,-0.006872228812426329
1781792870578583600,34.46158349609375,-0.007101302966475487,-0.0025961752980947495,-0.0062613640911877155
1781792870627106800,34.51010693359375,-0.0054977829568088055,-0.0013744457392022014,-0.008399390615522861
1781792870675629800,34.5586298828125,-0.003665188793092966,-0.0016035200096666813,-0.0102319847792387
1781792870724153000,34.607153076171876,-0.003512472379952669,-0.005039634648710489,-0.0102319847792387
1781792870772676400,34.65567626953125,-0.002443459117785096,0.0010690133785828948,-0.011453714221715927
1781792870821199400,34.70419946289063,-0.0032070400193333626,-0.003894262947142124,-0.00954476185142994
1781792870869722400,34.75272241210938,-0.0038179049734026194,-0.006108647678047419,-0.008399390615522861
1781792870918245600,34.80124560546875,-0.0019853105768561363,-0.010842849500477314,-0.01206457894295454
1781792870966768600,34.8497685546875,-0.000610864779446274,-0.011453714221715927,-0.01588248461484909
1781792871015292000,34.8982919921875,0.001832594396546483,-0.008933897130191326,-0.017486004158854485
1781792871063815200,34.946815185546875,-0.000839939049910754,-0.00755945174023509,-0.01565340906381607
1781792871112338000,34.995337890625,0.000839939049910754,-0.005650499369949102,-0.016646064817905426
1781792871160861200,35.043861083984375,0.001221729558892548,-0.006108647678047419,-0.015729768201708794
1781792871209384400,35.09238452148438,0.0009926552884280682,-0.0058795735239982605,-0.017333287745714188
1781792871257907500,35.14090747070313,0.0016035200096666813,-0.0030543238390237093,-0.0193185992538929
1781792871306430500,35.18943041992188,0.0001527161948615685,-0.002061668550595641,-0.017867794260382652
1781792871354953500,35.23795336914063,-0.002061668550595641,-0.004886918235570192,-0.018096869811415672
1781792871403476700,35.28647680664063,0.001832594396546483,-0.0009926552884280682,-0.020998476073145866
1781792871452000000,35.335,0.0022143847309052944,0.004657844081521034,-0.020387612283229828
1781792871500523000,35.38352294921875,-0.0019853105768561363,0.000839939049910754,-0.016875140368938446
1781792871549046000,35.4320458984375,-0.0034361144062131643,-0.007330377586185932,-0.00954476185142994
1781792871597569300,35.4805693359375,-0.006872228812426329,-0.009926552884280682,-0.010155626572668552
1781792871646092300,35.52909228515625,-0.004046979360282421,-0.011453714221715927,-0.012370011769235134
1781792871694615300,35.577615234375,-0.004123337101191282,-0.008781181648373604,-0.011988221667706966
1781792871743138600,35.626138671875,-0.004428769461810589,-0.008170315995812416,-0.01000291109085083
1781792871791661600,35.67466162109375,-0.004046979360282421,-0.002672533504664898,-0.009162971749901772
1781792871840184800,35.72318481445313,-0.009926552884280682,0.0009926552884280682,-0.004123337101191282
1781792871888707800,35.77170776367188,-0.006872228812426329,-0.00022907429956831038,-0.0022143847309052944
1781792871937230800,35.82023095703125,-0.0054977829568088055,-0.002290742937475443,-0.007177661173045635
1781792871985754000,35.86875415039062,-0.006872228812426329,-0.005345067009329796,-0.006490438245236874
1781792872034277000,35.91727709960937,-0.006948587018996477,-0.003894262947142124,-0.0054977829568088055
1781792872082800000,35.96580004882812,-0.008170315995812416,0.0010690133785828948,-0.002901607658714056
1781792872131323400,36.014323486328124,-0.008399390615522861,0.0019853105768561363,0.000839939049910754
1781792872179846700,36.0628466796875,-0.011453714221715927,0.0010690133785828948,0.002672533504664898
1781792872228369400,36.111369384765624,-0.011606430634856224,-0.0010690133785828948,0.001679878099821508
1781792872276892700,36.159892578125,-0.009315688163042068,-0.004657844081521034,0.001450803829357028
1781792872325416000,36.208416015625,-0.008552107028663158,-0.002061668550595641,0.00045814859913662076
1781792872373938700,36.256938720703126,-0.010384701192378998,-0.0030543238390237093,0
1781792872422462000,36.3054619140625,-0.009010255336761475,-0.0038179049734026194,0.002061668550595641
1781792872470985200,36.35398510742188,-0.011606430634856224,-0.0034361144062131643,0.004046979360282421
1781792872519508000,36.40250805664063,-0.010384701192378998,-0.004657844081521034,0.004428769461810589
1781792872568031200,36.45103125,-0.010995565913617611,-0.005345067009329796,0.002901607658714056
1781792872616554500,36.49955444335937,-0.010613775812089443,-0.009315688163042068,0.000839939049910754
1781792872665077200,36.5480771484375,-0.009315688163042068,-0.005955931730568409,-0.0007635809597559273
1781792872713600500,36.5966005859375,-0.010155626572668552,0.001450803829357028,0.001832594396546483
1781792872762123500,36.64512353515625,-0.012446369975805283,0.0009926552884280682,0.003512472379952669
1781792872810646500,36.693646484375,-0.012370011769235134,-0.0022143847309052944,0.0054977829568088055
1781792872859169800,36.742169677734374,-0.011606430634856224,0.0007635809597559273,0.002290742937475443
1781792872907692800,36.79069287109375,-0.012675444595515728,-0.0030543238390237093,0.006337722297757864
1781792872956215800,36.8392158203125,-0.01183550525456667,-0.006108647678047419,0.002672533504664898
1781792873004739000,36.887739013671876,-0.010842849500477314,-0.0102319847792387,-0.00038179047987796366
1781792873053262000,36.936261962890626,-0.010537417605519295,-0.007177661173045635,0.001832594396546483
1781792873101785000,36.98478515625,-0.009621120058000088,-0.004657844081521034,-0.0001527161948615685
1781792873150308000,37.03330810546875,-0.009773836471140385,-0.001221729558892548,-0.0001527161948615685
1781792873198831000,37.0818310546875,-0.008781181648373604,-0.0032070400193333626,-0.001832594396546483
1781792873247354400,37.13035424804688,-0.01000291109085083,-0.006719512399286032,-0.0022143847309052944
1781792873295877400,37.17887744140625,-0.008093958720564842,-0.008781181648373604,-0.003894262947142124
1781792873344400400,37.227400390625,-0.004428769461810589,0.000610864779446274,-0.008552107028663158
1781792873392923400,37.27592333984375,-0.0054977829568088055,0.001832594396546483,-0.00755945174023509
1781792873441446700,37.32444677734375,-0.005039634648710489,-0.0001527161948615685,-0.002443459117785096
1781792873489969400,37.37296948242187,-0.008933897130191326,-0.003665188793092966,-0.006337722297757864
1781792873538492700,37.42149267578125,-0.005345067009329796,-0.005955931730568409,-0.0032070400193333626
1781792873587016000,37.470015869140624,-0.005650499369949102,-0.0030543238390237093,-0.0058795735239982605
1781792873635538700,37.51853857421875,-0.007330377586185932,-0.0038179049734026194,-0.0058795735239982605
1781792873684062000,37.56706201171875,-0.0058795735239982605,-0.002901607658714056,-0.004276053514331579
1781792873732585000,37.6155849609375,-0.007177661173045635,-0.004886918235570192,-0.003512472379952669
1781792873781108000,37.66410791015625,-0.006108647678047419,-0.005955931730568409,-0.004123337101191282
1781792873829631000,37.712630859375,-0.006872228812426329,-0.004276053514331579,-0.004657844081521034
1781792873878154200,37.761154296875,-0.007330377586185932,-0.002901607658714056,-0.003283398225903511
1781792873926677000,37.809677001953126,-0.007330377586185932,-0.004428769461810589,-0.0038179049734026194
1781792873975200300,37.8582001953125,-0.006108647678047419,0.000839939049910754,-0.006337722297757864
1781792874023723300,37.90672314453125,-0.006948587018996477,-0.00045814859913662076,-0.004657844081521034
1781792874072246300,37.95524633789063,-0.010613775812089443,-0.001221729558892548,-0.0001527161948615685
1781792874120769300,38.00376928710938,-0.009010255336761475,-0.006948587018996477,-0.002443459117785096
1781792874169292300,38.05229223632813,-0.007177661173045635,-0.007101302966475487,-0.006337722297757864
1781792874217815300,38.10081518554688,-0.007177661173045635,-0.008170315995812416,-0.0054977829568088055
1781792874266338600,38.14933862304687,-0.008781181648373604,-0.007330377586185932,-0.0038179049734026194
1781792874314861600,38.19786157226562,-0.008704823441803455,-0.004657844081521034,-0.004734201822429895
1781792874363384600,38.24638452148437,-0.009162971749901772,-0.0013744457392022014,-0.0013744457392022014
1781792874411907600,38.29490747070312,-0.01282816007733345,-0.002290742937475443,0.003283398225903511
1781792874460430600,38.3434306640625,-0.011759147047996521,-0.005268708802759647,0.003283398225903511
1781792874508953600,38.39195361328125,-0.009162971749901772,-0.004123337101191282,-0.00045814859913662076
1781792874557476900,38.440476806640625,-0.0057268571108579636,-0.007101302966475487,-0.001832594396546483
1781792874605999600,38.48899951171875,-0.007101302966475487,-0.006490438245236874,-0.004276053514331579
1781792874654523000,38.53752294921875,-0.007330377586185932,-0.002443459117785096,-0.004657844081521034
1781792874703046000,38.5860458984375,-0.007788525894284248,-0.005268708802759647,-0.001221729558892548
1781792874751569000,38.63456884765625,-0.008093958720564842,-0.004886918235570192,-0.0009926552884280682
1781792874800092000,38.683091796875,-0.010155626572668552,-0.006872228812426329,-0.0038179049734026194
1781792874848615200,38.731615234375,-0.0077121676877141,-0.008933897130191326,-0.003283398225903511
1781792874897138000,38.78013793945313,-0.00755945174023509,-0.009162971749901772,-0.0022143847309052944
1781792874945661200,38.8286611328125,-0.010384701192378998,-0.005955931730568409,-0.0032070400193333626
1781792874994184200,38.87718408203125,-0.009926552884280682,-0.001450803829357028,-0.001450803829357028
1781792875042707000,38.92570703125,-0.012446369975805283,0.002901607658714056,0.001679878099821508
1781792875091230200,38.97423022460937,-0.011148282326757908,0.0054977829568088055,0.001221729558892548
1781792875139753200,39.02275317382812,-0.0102319847792387,0.004123337101191282,0.0034361144062131643
1781792875188276200,39.07127612304687,-0.011377356946468353,0.0009926552884280682,0.004428769461810589
1781792875236799200,39.11979931640625,-0.010842849500477314,0.0025961752980947495,-0.0009926552884280682
1781792875285322200,39.168322265625,-0.008704823441803455,0.0034361144062131643,-0.0001527161948615685
1781792875333845200,39.21684521484375,-0.008933897130191326,-0.001450803829357028,0.00038179047987796366
1781792875382368300,39.2653681640625,-0.010537417605519295,-0.004886918235570192,0.00022907429956831038
1781792875430891300,39.31389135742187,-0.010842849500477314,-0.006948587018996477,0.001221729558892548
1781792875479414300,39.36241430664062,-0.008781181648373604,-0.006719512399286032,0.001450803829357028
1781792875527937500,39.4109375,-0.008323032408952713,-0.0025961752980947495,-0.000610864779446274
1781792875576460300,39.45946020507812,-0.00511599238961935,0,-0.003512472379952669
1781792875624983300,39.5079833984375,-0.009392046369612217,0.006337722297757864,-0.0057268571108579636
1781792875673506600,39.556506591796875,-0.008399390615522861,0.007177661173045635,-0.003665188793092966
1781792875722029300,39.605029296875,-0.008781181648373604,0.008933897130191326,0.0001527161948615685
1781792875770552600,39.653552490234375,-0.009392046369612217,0.010766491293907166,-0.004046979360282421
1781792875819075600,39.70207568359375,-0.006108647678047419,0.006948587018996477,-0.011377356946468353
1781792875867598300,39.750598388671875,-0.004657844081521034,0.011224640533328056,-0.014889828860759735
1781792875916121600,39.79912158203125,-0.00511599238961935,0.002672533504664898,-0.005955931730568409
1781792875964644600,39.84764453125,-0.009162971749901772,-0.004276053514331579,0.003512472379952669
1781792876013167400,39.89616748046875,-0.010766491293907166,-0.010995565913617611,0.004657844081521034
1781792876061690600,39.94469067382813,-0.006108647678047419,-0.011453714221715927,-0.0001527161948615685
1781792876110213600,39.99321362304688,-0.004734201822429895,-0.009773836471140385,-0.0032070400193333626
1781792876158736400,40.041736328125,-0.002901607658714056,-0.007101302966475487,-0.007330377586185932
1781792876207259600,40.090259765625,-0.001679878099821508,-0.005345067009329796,-0.014278964139521122
1781792876255782700,40.13878271484375,-0.0010690133785828948,-0.000610864779446274,-0.012446369975805283
1781792876304305700,40.1873056640625,-0.00038179047987796366,-0.004657844081521034,-0.010842849500477314
1781792876352828700,40.23582861328125,-0.00022907429956831038,-0.006108647678047419,-0.01954767294228077
1781792876401351700,40.2843515625,-0.005955931730568409,0.009773836471140385,-0.03787361457943916
1781792876449874700,40.33287475585937,-0.002061668550595641,0.02626718580722809,-0.05497783049941063
1781792876498397700,40.38139770507812,0.006337722297757864,0.039858926087617874,-0.06856957077980042
1781792876546920400,40.42992041015625,0.021151192486286163,0.06192641705274582,-0.0873536616563797
1781792876595443700,40.47844360351562,0.05803215503692627,0.08575014024972916,-0.08536835014820099
1781792876643966700,40.526966796875,0.04802924394607544,0.13332124054431915,-0.06154462695121765
1781792876692489500,40.57548950195312,0.051159925758838654,0.14721840620040894,-0.037262752652168274
1781792876741012500,40.62401245117187,0.039477135986089706,0.13332124054431915,-0.020158538594841957
1781792876789535700,40.67253564453125,0.04153880476951599,0.08575014024972916,-0.015729768201708794
1781792876838058500,40.72105859375,0.0295505840331316,0.0639880821108818,0.008399390615522861
1781792876886581500,40.76958154296875,0.031001387163996696,0.07941242307424545,0.036651886999607086
1781792876935104500,40.8181044921875,0.016340631991624832,0.07246383279561996,0.043982263654470444
1781792876983627500,40.86662744140625,0.01977674663066864,0.005955931730568409,0.043371398001909256
1781792877032150500,40.915150634765624,0.02306014485657215,-0.12362375855445862,-0.0032070400193333626
1781792877080673500,40.963673583984374,0.014889828860759735,-0.21403174102306366,-0.08819360285997391
1781792877129196500,41.012196533203124,0.04321868345141411,-0.23907721042633057,-0.08689551800489426
1781792877177719600,41.060719482421874,0.0319940410554409,-0.29306238889694214,-0.1870773434638977
1781792877226242600,41.10924267578125,0.022220205515623093,-0.3199404180049896,-0.22556181252002716
1781792877274765600,41.157765625,0.1153007298707962,-0.35445427894592285,-0.16187916696071625
1781792877323288600,41.20628857421875,0.21403174102306366,-0.4805978536605835,-0.1651625633239746
1781792877371811300,41.254811279296874,0.22151483595371246,-0.6281980872154236,-0.25068363547325134
1781792877420334300,41.303334228515624,0.16760602593421936,-0.5951350331306458,-0.3021489977836609
1781792877468857600,41.351857666015626,0.09086613357067108,-0.45219266414642334,-0.23419028520584106
1781792877517380400,41.40038037109375,0.009621120058000088,-0.3536907136440277,-0.18226677179336548
1781792877565903400,41.4489033203125,-0.031154103577136993,-0.3559814393520355,-0.1891390085220337
1781792877614426400,41.49742626953125,-0.04169152304530144,-0.23189954459667206,-0.2386954128742218
1781792877662949400,41.545949462890626,-0.21685700118541718,0.22708898782730103,-0.4042397737503052
1781792877711472400,41.594472412109376,-0.4860956370830536,0.44348782300949097,-0.5261836647987366
1781792877759995400,41.642995361328126,-0.35124725103378296,-0.25702136754989624,-0.29367324709892273
1781792877808518100,41.69151806640625,-0.1539379209280014,-1.0987166166305542,-0.036193739622831345
1781792877857041400,41.74004150390625,-0.3133736252784729,-1.810374140739441,0.3155880272388458
1781792877905564400,41.788564453125,-0.36224281787872314,-2.2114832401275635,0.6277399063110352
1781792877954087200,41.837087158203126,-0.8167262077331543,-1.9828671216964722,0.28206682205200195
1781792878002610200,41.885610107421876,-1.0389282703399658,-2.1080944538116455,0.3459021747112274
1781792878051133200,41.93413330078125,-0.8242856860160828,-2.107330799102783,0.6564505696296692
1781792878099656200,41.98265625,-0.721431314945221,-1.6355141401290894,0.6672934293746948
1781792878148179200,42.03117919921875,-0.3559814393520355,-1.3655118942260742,0.5768090486526489
1781792878196702200,42.0797021484375,0.10384701192378998,-0.9020945429801941,0.21609342098236084
1781792878245225000,42.128224853515626,0.5111411213874817,-0.7480802536010742,-0.1776089370250702
1781792878293748200,42.17674829101563,0.49373146891593933,-0.708145022392273,-0.06681333482265472
1781792878342271000,42.22527099609375,0.2942841053009033,-0.9804379940032959,0.44089165329933167
1781792878390794000,42.2737939453125,0.014202605932950974,-0.903850793838501,0.2484692484140396
1781792878439317000,42.32231689453125,-0.31230461597442627,0.21403174102306366,0.2528980076313019
1781792878487840000,42.37084008789063,-0.3678933084011078,-0.1677587330341339,0.3274235129356384
1781792878536363000,42.41936303710938,-0.17997603118419647,0.012217295356094837,-0.26129740476608276
1781792878584886000,42.46788598632813,0.40927940607070923,-0.09422589093446732,-0.49968740344047546
1781792878633408800,42.51640869140625,0.5082395076751709,0.5011382102966309,-0.4094321131706238
1781792878681931800,42.56493188476563,0.44577857851982117,0.6385827660560608,-0.22907429933547974
1781792878730454800,42.61345483398438,0.3920224606990814,0.7194460034370422,-0.34903284907341003
1781792878778977800,42.66197778320313,0.26939135789871216,0.41149377822875977,-0.8597158193588257
1781792878827500800,42.71050073242188,-0.3964512348175049,1.019762396812439,-0.9082031846046448
1781792878876023800,42.75902392578125,-0.7040980458259583,1.072678565979004,-0.2635118067264557
1781792878924546600,42.80754663085938,0.017486004158854485,0.6505709886550903,-0.21914774179458618
1781792878973069600,42.85606958007813,0.14477495849132538,-0.1573740392923355,0.26855143904685974
1781792879021592300,42.90459228515625,0.23258677124977112,-1.6801072359085083,0.9179770350456238
1781792879070115600,42.95311547851563,0.42531460523605347,-2.49843692779541,1.6709442138671875
1781792879118638600,43.001638671875,0.027259841561317444,-1.3178644180297852,0.7788525819778442
1781792879167161300,43.05016137695313,-0.8568905591964722,-1.2095122337341309,-0.2386954128742218
1781792879215684400,43.09868432617188,-1.1867575645446777,-1.4088069200515747,0.21487168967723846
1781792879264207400,43.14720727539063,-0.3447568118572235,-1.8785618543624878,0.29214608669281006
1781792879312730000,43.19573022460938,0.3589594066143036,-1.377500057220459,-0.09208786487579346
1781792879361253400,43.24425341796875,0.6860011219978333,-0.7391464114189148,-0.14782927930355072
1781792879409776400,43.2927763671875,0.6601921319961548,-0.6886736750602722,0.2156352698802948
1781792879458299100,43.34129907226563,0.15745039284229279,-0.8268818259239197,0.5503891706466675
1781792879506822100,43.389822265625,-0.08613193035125732,-0.3776671588420868,-0.060704685747623444
1781792879555345200,43.43834521484375,-0.14049890637397766,0.4500546157360077,0.07353284955024719
1781792879603868000,43.48686791992188,-0.4494437575340271,0.2683223485946655,-0.2683223485946655
1781792879652391000,43.53539086914063,0.3251327872276306,0.11866047978401184,-0.2328922003507614
1781792879700914000,43.58391381835938,0.5868119597434998,0.39484772086143494,-0.7916807532310486
1781792879749437000,43.63243701171875,0.43661558628082275,0.9537126421928406,-0.3979020416736603
1781792879797960000,43.6809599609375,0.30077454447746277,1.0914626121520996,-0.06246092543005943
1781792879846482700,43.72948266601563,0.09995274990797043,1.3320670127868652,-0.366060733795166
1781792879895005700,43.77800561523438,0.09529490768909454,0.8639918565750122,-1.005865216255188
1781792879943528700,43.82652880859375,-0.7191405892372131,1.5389974117279053,-0.9204205274581909
1781792879992051500,43.87505151367188,-0.5615374445915222,1.2318851947784424,-0.20693044364452362
1781792880040574500,43.92357446289063,0.37491825222969055,0.48907360434532166,0.13439024984836578
1781792880089097500,43.97209741210938,0.7191405892372131,-0.9062942862510681,1.1042908430099487
1781792880137620200,44.0206201171875,0.5551233887672424,-2.196211576461792,1.8858922719955444
1781792880186143200,44.06914331054688,-0.12202023714780807,-0.9916626214981079,0.9515746235847473
1781792880234666200,44.11766625976563,-0.9175189137458801,-0.4880809485912323,-0.26129740476608276
1781792880283189200,44.16618920898438,-1.3980404138565063,-0.4298197329044342,0.20257803797721863
1781792880331712300,44.21471215820313,-0.6564505696296692,-1.0222058296203613,0.2467893660068512
1781792880380235300,44.2632353515625,0.17936517298221588,-0.8724676370620728,-0.10079269111156464
1781792880428758000,44.31175805664063,0.9784526824951172,-0.6922625303268433,-0.19463679194450378
1781792880477281000,44.36028100585938,0.8855248689651489,-0.9071341753005981,0.23373213410377502
1781792880525803800,44.4088037109375,0.047494735568761826,-0.77618008852005,0.48853909969329834
1781792880574326800,44.45732690429688,-0.26167920231819153,0.25702136754989624,0.0888044685125351
1781792880622849800,44.50584985351563,-0.5992583632469177,0.5986474752426147,0.32818710803985596
1781792880671372500,44.55437255859375,-0.00022907429956831038,0.7108175158500671,-0.38705918192863464
1781792880719895600,44.6028955078125,0.49075350165367126,0.7234929800033569,-1.1608721017837524
1781792880768418800,44.65141870117188,0.7297543287277222,1.1928662061691284,-0.6174315810203552
1781792880816941600,44.69994165039063,0.38705918192863464,1.7696752548217773,-0.24946190416812897
1781792880865464600,44.74846459960938,0.10827577859163284,1.5835142135620117,-0.43661558628082275
1781792880913987600,44.79698754882813,-0.125074565410614,1.018311619758606,-1.0803906917572021
1781792880962510300,44.84551025390625,-0.668515145778656,1.2438733577728271,-0.9390518665313721
1781792881011033300,44.89403344726563,-0.9743293523788452,0.9660062789916992,-0.1997527778148651
1781792881059556400,44.94255639648438,0.32559093832969666,0.131717711687088,-0.11988221108913422
1781792881108079000,44.9910791015625,0.8174898028373718,-1.282586932182312,1.0551925897598267
1781792881156602000,45.03960205078125,0.5354993343353271,-2.616562843322754,1.8610758781433105
1781792881205125000,45.088125,-0.056199558079242706,-1.5782455205917358,1.0928370952606201
1781792881253648000,45.13664794921875,-0.8733075857162476,-0.894076943397522,-0.30604326725006104
1781792881302171000,45.1851708984375,-1.5712969303131104,-0.40950846672058105,0.2893971800804138
1781792881350693600,45.233693603515626,-0.858646810054779,-0.6870701313018799,0.3070359230041504
1781792881399216600,45.282216552734376,0.21952952444553375,-0.5866592526435852,0.1623373180627823
1781792881447739600,45.33073974609375,1.0631338357925415,-0.4719693958759308,0.024205517023801804
1781792881496262400,45.379262451171876,0.8232166767120361,-0.8840740323066711,0.4431060254573822
1781792881544785400,45.427785400390626,-0.16882775723934174,-0.5304597020149231,0.12751802802085876
1781792881593308400,45.476308349609376,-0.19020801782608032,0.7176133990287781,-0.40171995759010315
1781792881641831200,45.5248310546875,-0.32009315490722656,0.8232166767120361,0.3367392122745514
1781792881690354200,45.573354248046876,-0.20219624042510986,1.2003493309020996,-0.41783151030540466
1781792881738877200,45.621877197265626,0.5898662805557251,0.5090031027793884,-0.9272927641868591
1781792881787401000,45.67040087890625,0.7790052890777588,1.0413717031478882,-0.6937133073806763
1781792881835923700,45.718923828125,0.4741837978363037,1.4571415185928345,-0.2690095901489258
1781792881884446700,45.76744677734375,0.36712974309921265,1.341230034828186,-0.3121519088745117
1781792881932969700,45.8159697265625,-0.10797034949064255,1.3060288429260254,-0.9893718957901001
1781792881981492500,45.86449243164063,-0.7485384345054626,1.0946696996688843,-1.0648900270462036
1781792882030015500,45.91301538085938,-1.0864993333816528,0.8138245940208435,-0.3995055556297302
1781792882078538200,45.96153833007813,0.21914774179458618,0.056810423731803894,-0.1415679156780243
1781792882127061200,46.01006127929688,0.44616037607192993,-1.1976767778396606,0.5946004986763
1781792882175584300,46.05858422851563,0.173256516456604,-2.826700448989868,1.6245185136795044
1781792882224107000,46.10710693359375,-0.17791436612606049,-2.123976945877075,1.2300525903701782
1781792882272630000,46.15563012695313,-0.9253074526786804,-1.417969822883606,-0.16447533667087555
1781792882321153000,46.20415307617188,-1.6723949909210205,-0.8387173414230347,0.40401068329811096
1781792882369675800,46.25267578125,-0.8896481990814209,-1.0102176666259766,0.8394809365272522
1781792882418198800,46.30119873046875,0.033826638013124466,-0.8478803038597107,0.5642863512039185
1781792882466721800,46.3497216796875,1.0270164012908936,-0.7273872494697571,0.0784197673201561
1781792882515244500,46.39824462890625,0.8953750729560852,-1.020984172821045,0.36224281787872314
1781792882563767600,46.446767578125,-0.19501857459545135,-0.30833399295806885,0.15592323243618011
1781792882612290600,46.49529052734375,-0.07559451460838318,0.17310380935668945,-0.28183773159980774
1781792882660813300,46.543813232421876,-0.6025417447090149,1.1380411386489868,0.23113596439361572
1781792882709336300,46.59233642578125,-0.001679878099821508,0.6813433170318604,-0.05971203371882439
1781792882757859000,46.640859130859376,0.6533962488174438,0.33368489146232605,-0.8862120509147644
1781792882806381800,46.6893818359375,0.646905779838562,0.46364638209342957,-1.0586286783218384
1781792882854904800,46.73790478515625,0.5115228891372681,1.0822997093200684,-0.401949018239975
1781792882903427600,46.786427490234374,0.42164942622184753,0.948520302772522,-0.2828303873538971
1781792882951950600,46.83495068359375,0.19364413619041443,1.1335359811782837,-0.7560214996337891
1781792883000473600,46.8834736328125,-0.41126471757888794,1.6048945188522339,-0.8914044499397278
1781792883048996400,46.931996337890624,-1.1443787813186646,1.2621994018554688,-0.3903425931930542
1781792883097519400,46.980519287109374,0.15515965223312378,-0.10468695312738419,-0.11255183815956116
1781792883146042400,47.02904248046875,0.8336777091026306,-1.3703224658966064,0.6373610496520996
1781792883194565000,47.077565185546874,0.4554760456085205,-2.999727964401245,1.7987676858901978
1781792883243088100,47.126088134765624,0.19425499439239502,-2.3402230739593506,1.5892410278320312
1781792883291611100,47.174611083984374,-0.5468766689300537,-0.8918625712394714,-0.2828303873538971
1781792883340134000,47.2231337890625,-1.5288418531417847,-0.42943793535232544,0.027717988938093185
1781792883388657000,47.271656982421874,-1.163468360900879,-0.502894401550293,0.3516290485858917
1781792883437179600,47.3201796875,-0.1464548259973526,-0.7045561671257019,0.2274707704782486
1781792883485702400,47.36870239257812,0.8492547869682312,-0.20906847715377808,0.12935061752796173
1781792883534225400,47.41722534179687,0.6629409790039062,-0.5005273222923279,0.49373146891593933
1781792883582748200,47.465748046875,0.06979130208492279,-0.4237874448299408,0.3309359848499298
1781792883631271200,47.51427124023437,0.13240493834018707,0.18753549456596375,-0.21945317089557648
1781792883679794200,47.56279418945312,-0.2502254843711853,0.834059476852417,0.15370884537696838
1781792883728317000,47.61131689453125,-0.4846448302268982,1.153923511505127,-0.23136503994464874
1781792883776840000,47.65983984375,0.4332558512687683,0.6632464528083801,-0.5927678942680359
1781792883825363000,47.70836303710937,0.8083268404006958,0.6548470258712769,-0.815122663974762
1781792883873885700,47.7568857421875,0.4310414493083954,1.2105048894882202,-0.6953168511390686
1781792883922408700,47.80540869140625,0.30711227655410767,1.4524837732315063,-0.2747364342212677
1781792883970931500,47.85393139648438,0.22098033130168915,0.9999856352806091,-0.7155517339706421
1781792884019454200,47.9024541015625,-0.29245150089263916,1.3445134162902832,-1.1170426607131958
1781792884067977200,47.95097729492188,-1.121776819229126,1.3214532136917114,-0.5267181396484375
1781792884116500000,47.9995,0.034437503665685654,0.4776962697505951,-0.1366809904575348
1781792884165023000,48.04802294921875,0.6391936540603638,-0.33276858925819397,0.26962044835090637
1781792884213546000,48.0965458984375,0.6184242367744446,-1.927736520767212,1.4538581371307373
1781792884262068700,48.14506884765625,0.6461422443389893,-2.2701263427734375,2.249814987182617
1781792884310591500,48.193591552734375,-0.4076758921146393,-0.5155698657035828,0.13698641955852509
1781792884359114500,48.242114501953125,-1.4243075847625732,-0.1482110619544983,-0.4938078224658966
1781792884407637200,48.29063720703125,-1.404149055480957,-0.06131555140018463,0.29703301191329956
1781792884456160300,48.33916015625,-0.45127636194229126,-0.6795107126235962,0.2067013680934906
1781792884504683300,48.387683349609375,0.6359102129936218,-0.32352927327156067,-0.007177661173045635
1781792884553206000,48.4362060546875,0.8218421936035156,-0.4469239413738251,0.23396120965480804
1781792884601729000,48.48472900390625,0.009010255336761475,-0.42394015192985535,0.4062250852584839
1781792884650251800,48.53325170898437,0.14798198640346527,-0.3854556679725647,-0.14660754799842834
1781792884698774500,48.5817744140625,0.06902772188186646,0.864220917224884,-0.08758273720741272
1781792884747297500,48.63029760742187,-0.25068363547325134,0.8981239199638367,0.13049599528312683
1781792884795820300,48.6788203125,-0.004734201822429895,1.1195623874664307,-0.8517745733261108
1781792884844343300,48.72734326171875,0.8482621312141418,0.5131264328956604,-0.641866147518158
1781792884892866300,48.7758662109375,0.7141009569168091,1.2493711709976196,-0.6361393332481384
1781792884941389000,48.82438916015625,0.23258677124977112,1.6312379837036133,-0.33108872175216675
1781792884989912000,48.872912109375,0.05543597787618637,1.5731295347213745,-0.6097957491874695
1781792885038434800,48.92143481445312,-0.21479532122612,1.022740364074707,-1.1095595359802246
1781792885086957600,48.96995751953125,-0.939357340335846,1.149800181388855,-0.7601448893547058
1781792885135480600,49.01848046875,-0.41928231716156006,0.7922916412353516,-0.203799769282341
1781792885184003600,49.06700366210937,0.3618610203266144,0.2929860055446625,0.03481929376721382
1781792885232526300,49.1155263671875,0.5270236134529114,-1.4721840620040894,1.2029454708099365
1781792885281049000,49.16404907226563,0.34903284907341003,-2.4961462020874023,2.24416446685791
1781792885329571800,49.21257177734375,-0.28183773159980774,-0.9671516418457031,0.6690496206283569
1781792885378094800,49.2610947265625,-1.0890191793441772,-1.012966513633728,-0.4182133078575134
1781792885426617900,49.30961791992188,-1.487837553024292,-0.4644099473953247,0.19165882468223572
1781792885475140600,49.358140625,-0.566500723361969,-0.6978366374969482,0.20975568890571594
1781792885523663600,49.40666357421875,0.5927678942680359,-0.7102830410003662,0.17776164412498474
1781792885572186400,49.455186279296875,1.0890191793441772,-0.5302306413650513,0.287106454372406
1781792885620709000,49.503709228515625,0.330706924200058,-0.39767298102378845,0.8118392825126648
1781792885669232000,49.552232177734375,-0.407599538564682,-0.34429866075515747,-0.03176496922969818
1781792885717755100,49.600755126953125,-0.23189954459667206,1.0174716711044312,-0.45730865001678467
1781792885766278000,49.64927783203125,-0.35468336939811707,0.9696714878082275,0.16187916696071625
1781792885814801000,49.69780078125,-0.24816381931304932,1.166369915008545,-0.5945241451263428
1781792885863323600,49.74632373046875,0.6873756051063538,0.2981020212173462,-0.821384072303772
1781792885911846400,49.79484643554687,0.9107993841171265,0.8157335519790649,-0.8637627959251404
1781792885960369400,49.84336938476562,0.40026915073394775,1.3854413032531738,-0.4825831651687622
1781792886008892200,49.89189208984375,0.3462076187133789,1.1726312637329102,-0.5383245944976807
1781792886057415200,49.94041528320312,0.04108065739274025,0.8859066367149353,-1.065959095954895
1781792886105938000,49.98893798828125,-1.0093777179718018,1.123227596282959,-0.9578359723091125
1781792886154460700,50.03746069335938,-0.7061597108840942,0.8141300082206726,-0.2099084109067917
1781792886202983700,50.08598364257813,0.3545306324958801,0.4762454628944397,-0.29626941680908203
1781792886251506700,50.13450659179688,0.32047492265701294,-0.9352339506149292,0.8737657070159912
1781792886300029200,50.183029296875,0.3549124300479889,-2.6428301334381104,2.205451011657715
1781792886348552200,50.23155224609375,-0.20624321699142456,-1.2758674621582031,1.0334304571151733
1781792886397075200,50.2800751953125,-1.1687370538711548,-1.6073379516601562,-0.4459312856197357
1781792886445598000,50.328597900390626,-1.7117958068847656,-1.0178533792495728,0.39080074429512024
1781792886494121000,50.377120849609376,-0.6898190379142761,-1.4117084741592407,0.6395754218101501
1781792886542643700,50.425643798828126,0.3681987524032593,-1.2343286275863647,0.31299182772636414
1781792886591166500,50.47416650390625,1.130099892616272,-0.5852084755897522,0.030772313475608826
1781792886639689500,50.522689453125,0.854218065738678,-0.31871870160102844,0.22579088807106018
1781792886688212200,50.571212158203124,0.03321577236056328,-0.3038288652896881,0.5678751468658447
1781792886736735200,50.6197353515625,-0.004657844081521034,0.052076224237680435,-0.012675444595515728
1781792886785258000,50.668258056640624,-0.30138540267944336,0.5283980369567871,0.25755587220191956
1781792886833780700,50.71678076171875,-0.16226094961166382,0.5562687516212463,-0.12324196845293045
1781792886882303700,50.7653037109375,0.5523744821548462,0.26679518818855286,-0.9188933372497559
1781792886930826800,50.81382666015625,0.827874481678009,0.4147771894931793,-0.986393928527832
1781792886979349200,50.86234936523437,0.41706791520118713,1.236237645149231,-0.6595812439918518
1781792887027872300,50.91087231445312,0.1233946830034256,1.496389627456665,-0.4298960864543915
1781792887076395000,50.95939501953125,0.16539163887500763,1.073289394378662,-0.6424770355224609
1781792887124918000,51.00791796875,-0.3104720115661621,1.3337469100952148,-0.9329432249069214
1781792887173440800,51.05644067382813,-1.042517066001892,1.2153918743133545,-0.5716167092323303
1781792887221963500,51.10496362304688,0.4595993757247925,-0.19501857459545135,-0.0616973415017128
1781792887270486500,51.15348657226563,0.7399863004684448,-1.2655590772628784,1.0873392820358276
1781792887319009500,51.20200952148438,0.29184064269065857,-2.3547310829162598,2.0459389686584473
1781792887367532300,51.2505322265625,-0.3223838806152344,-0.9936479330062866,0.9788344502449036
1781792887416055000,51.299054931640626,-0.8873574733734131,-0.7871756553649902,-0.2771035432815552
1781792887464578000,51.347578125,-1.4890592098236084,-0.36079201102256775,0.19463679194450378
1781792887513100800,51.396100830078126,-0.6850084662437439,-0.5490147471427917,0.36430448293685913
1781792887561623600,51.44462353515625,0.42653632164001465,-0.6101012229919434,0.24396412074565887
1781792887610146600,51.493146484375,1.0859649181365967,-0.4467712342739105,0.046883873641490936
1781792887658669300,51.54166943359375,0.551152765750885,-0.6130791902542114,0.5312996506690979
1781792887707192300,51.5901923828125,-0.2641226649284363,-0.46547895669937134,0.4724275469779968
1781792887755715000,51.638715087890624,-0.5128973126411438,0.7883973717689514,-0.24885104596614838
1781792887804237800,51.68723779296875,-0.6565269231796265,0.44470956921577454,0.06765327602624893
1781792887852760800,51.7357607421875,0.2086866796016693,0.7194460034370422,-0.34903284907341003
1781792887901283600,51.78428369140625,0.5722275972366333,0.36796966195106506,-1.1376593112945557
1781792887949806300,51.83280639648437,0.6265945434570312,0.8743002414703369,-0.8553634285926819
1781792887998329300,51.88132934570312,0.37407833337783813,1.2724313735961914,-0.43722647428512573
1781792888046852000,51.92985205078125,0.23716825246810913,1.0206023454666138,-0.49602219462394714
1781792888095375000,51.978375,0.026878049597144127,0.5770381689071655,-0.9152281284332275
1781792888143897900,52.02689794921875,-0.69722580909729,0.9476040005683899,-0.883768618106842
1781792888192420600,52.07542065429688,-0.8069523572921753,0.623845636844635,-0.3748418986797333
1781792888240943600,52.12394360351563,0.36285367608070374,-0.45242172479629517,-0.1547778695821762
1781792888289466400,52.17246630859375,0.3972911834716797,-1.7670027017593384,0.9344704151153564
1781792888337989000,52.220989013671876,0.13881902396678925,-2.997971534729004,2.1213042736053467
1781792888386512100,52.26951220703125,-0.17944152653217316,-1.6759839057922363,1.255937933921814
1781792888435035000,52.318034912109376,-0.8067232966423035,-1.742339015007019,-0.15187625586986542
1781792888483557600,52.3665576171875,-1.4593559503555298,-1.1662936210632324,0.2435823380947113
1781792888532080600,52.41508056640625,-0.7210494875907898,-1.3155736923217773,0.5607738494873047
1781792888580603400,52.463603271484374,0.34956738352775574,-1.22234046459198,0.3093266487121582
1781792888629126100,52.512126220703124,1.0462586879730225,-0.42882707715034485,0.10789398849010468
1781792888677649200,52.560649169921874,0.5251910090446472,-0.12805253267288208,0.3937787115573883
1781792888726172000,52.609171875,-0.23212862014770508,-0.006490438245236874,0.7860302329063416
1781792888774695000,52.65769482421875,-0.2643517255783081,0.24144430458545685,-0.18058690428733826
1781792888823217700,52.7062177734375,-0.5355756878852844,0.1450040340423584,0.3058141767978668
1781792888871740400,52.75474047851562,0.20402882993221283,-0.08384118974208832,-0.15699224174022675
1781792888920263400,52.80326342773437,0.5892554521560669,-0.32818710803985596,-1.0963495969772339
1781792888968786200,52.8517861328125,0.5768854022026062,0.08811724185943604,-0.9256128668785095
1781792889017309000,52.90030883789063,0.4111120104789734,0.5731438994407654,-0.3150535225868225
1781792889065832000,52.94883203125,0.37178757786750793,0.8126792311668396,-0.3813323378562927
1781792889114354400,52.9973544921875,0.30199626088142395,0.5031998753547668,-0.9272927641868591
1781792889162877400,53.04587744140625,-0.6246855854988098,0.6908880472183228,-1.2339468002319336
1781792889211400400,53.094400390625,-0.8200095891952515,0.7525854110717773,-0.35048365592956543
1781792889259923000,53.1429228515625,0.407599538564682,-0.22212570905685425,-0.25702136754989624
1781792889308446000,53.191446044921875,0.287106454372406,-1.366275429725647,0.8521563410758972
1781792889356968700,53.23996875,-0.07780890166759491,-2.7749295234680176,2.161010503768921
1781792889405491700,53.28849169921875,-0.43172869086265564,-1.584201455116272,1.3290126323699951
1781792889454014500,53.33701440429687,-1.0266345739364624,-2.065333843231201,-0.1545487940311432
1781792889502537200,53.385537109375,-1.538004755973816,-1.293811559677124,0.5048033595085144
1781792889551060200,53.43406030273437,-0.6736311316490173,-1.3237439393997192,0.9608902931213379
1781792889599583000,53.4825830078125,0.33460119366645813,-1.2895355224609375,0.6446150541305542
1781792889648105700,53.53110571289063,1.2089014053344727,-0.8358157277107239,0.16294817626476288
1781792889696628700,53.57962866210938,0.8747583627700806,-0.5116755962371826,0.28550294041633606
1781792889745151500,53.6281513671875,-0.03222311660647392,-0.2667188346385956,0.7528144717216492
1781792889793674200,53.67667431640625,-0.47991064190864563,0.18753549456596375,-0.06940951198339462
1781792889842197200,53.725197265625,-0.4886918365955353,0.25007277727127075,0.35384342074394226
1781792889890720000,53.77371997070313,0.3687332570552826,0.10201441496610641,0.0657443255186081
1781792889939242800,53.82224267578125,0.5037343502044678,0.10705405473709106,-1.1111630201339722
1781792889987765800,53.87076586914063,0.8251255750656128,0.4185950756072998,-0.8175661563873291
1781792890036288500,53.91928857421875,0.65935218334198,1.0102176666259766,-0.4448622763156891
1781792890084811300,53.967811279296875,0.45364347100257874,1.2927426099777222,-0.5273290276527405
1781792890133334300,54.016334228515625,0.07819069176912308,1.1655299663543701,-0.9975422024726868
1781792890181857000,54.06485693359375,-0.6012436747550964,0.8969785571098328,-1.2025636434555054
1781792890230379800,54.1133798828125,-0.9311106204986572,0.8132137656211853,-0.28787001967430115
1781792890278902800,54.16190283203125,0.32352927327156067,0.28611379861831665,-0.1712712198495865
1781792890327425300,54.21042529296875,0.3105483949184418,-0.38446301221847534,0.6426297426223755
1781792890375948300,54.2589482421875,0.4070650041103363,-2.471940755844116,2.121915102005005
1781792890424471300,54.30747119140625,-0.11743875592947006,-1.3976585865020752,1.8700097799301147
1781792890472993800,54.35599389648438,-0.8456659317016602,-1.2715914249420166,-0.3358229100704193
1781792890521516800,54.40451684570313,-1.4265220165252686,-1.0558034181594849,0.07681624591350555
1781792890570039600,54.45303955078125,-0.8174898028373718,-0.6681333780288696,0.6073523163795471
1781792890618562300,54.501562255859376,0.14744748175144196,-0.9103412628173828,0.34865108132362366
1781792890667085300,54.550085205078126,1.0071632862091064,-0.5345066785812378,0.0907897800207138
1781792890715608000,54.598608154296876,0.5325213670730591,-0.27427828311920166,0.15233440697193146
1781792890764130800,54.647130859375,-0.16103923320770264,-0.3017672002315521,0.6168206930160522
1781792890812653800,54.69565380859375,-0.20318889617919922,0.23312127590179443,-0.1401171088218689
1781792890861176300,54.74417626953125,-0.5012909173965454,0.47991064190864563,0.13881902396678925
1781792890909699300,54.79269921875,-0.22189663350582123,0.40171995759010315,-0.22479823231697083
1781792890958222300,54.841222412109374,0.5309942364692688,-0.09468404203653336,-1.0852776765823364
1781792891006744800,54.88974487304687,0.6861538887023926,0.1519526094198227,-0.9684497714042664
1781792891055267800,54.93826782226562,0.401949018239975,0.5978075265884399,-0.6171261668205261
1781792891103790600,54.98679052734375,0.3787361681461334,0.8413135409355164,-0.3161988854408264
1781792891152313300,55.03531323242188,0.3816377818584442,0.7874047160148621,-0.6133082509040833
1781792891200836400,55.08383642578125,-0.11018473654985428,0.9934952259063721,-1.052061915397644
1781792891249359000,55.13235913085938,-0.9391282200813293,1.1624757051467896,-0.4995346665382385
1781792891297881900,55.1808818359375,0.26679518818855286,-0.09735657274723053,0.09491311758756638
1781792891346404600,55.229404541015626,0.7938951253890991,-1.188590168952942,0.9598212838172913
1781792891394927400,55.27792724609375,0.2444986253976822,-2.0319652557373047,1.8629084825515747
1781792891443450400,55.326450439453126,-0.028099779039621353,-1.2251657247543335,1.820376992225647
1781792891491973000,55.37497314453125,-0.449138343334198,-0.8710931539535522,-0.007483093533664942
1781792891540496000,55.423495849609374,-1.35657799243927,-0.7126501202583313,-0.18646647036075592
1781792891589019000,55.472018798828124,-1.052290916442871,-0.34865108132362366,0.19570580124855042
1781792891637541600,55.520541748046874,0.13209950923919678,-0.8216131329536438,0.10629047453403473
1781792891686064400,55.569064453125,1.073289394378662,-0.3748418986797333,-0.06940951198339462
1781792891734587100,55.61758715820312,1.1456005573272705,-0.3303251266479492,0.22098033130168915
1781792891783110000,55.66610986328125,0.03436114266514778,-0.2612210512161255,0.6543889045715332
1781792891831633000,55.7146328125,-0.09002619981765747,-0.304974228143692,0.24495677649974823
1781792891880155600,55.76315576171875,-0.13622283935546875,0.5682569742202759,-0.03711003437638283
1781792891928678400,55.81167846679688,-0.14721840620040894,0.5667297840118408,-0.03275762498378754
1781792891977201200,55.860201171875,0.13362666964530945,0.8086322546005249,-0.5290089249610901
1781792892025724200,55.90872412109375,0.6846266984939575,0.5636754631996155,-0.9075923562049866
1781792892074247000,55.957246826171875,0.5628355145454407,1.032743215560913,-0.9866993427276611
1781792892122769700,56.005769775390625,0.3453676700592041,1.2909862995147705,-0.5984184145927429
1781792892171292400,56.05429248046875,0.26939135789871216,1.2731949090957642,-0.8120683431625366
1781792892219815200,56.10281518554687,-0.09124792367219925,1.3217586278915405,-0.9628756046295166
1781792892268338200,56.15133813476562,-1.0985639095306396,1.399720311164856,-0.5477929711341858
1781792892316861000,56.19986083984375,-0.18829907476902008,0.5929206013679504,-0.09605848789215088
1781792892365383700,56.2483837890625,0.5487092733383179,-0.14744748175144196,0.35674503445625305
1781792892413906400,56.29690649414062,0.41500625014305115,-1.5027273893356323,1.6955316066741943
1781792892462429200,56.34542919921875,0.22464552521705627,-1.2815942764282227,2.139859437942505
1781792892510952200,56.3939521484375,-0.29184064269065857,-0.2703840136528015,0.10980294644832611
1781792892559475000,56.44247485351563,-1.3765074014663696,-0.19608759880065918,-0.3632354736328125
1781792892607997700,56.49099780273438,-1.3927717208862305,0.16539163887500763,0.3396408259868622
1781792892656520400,56.5395205078125,-0.3655261993408203,-0.14637847244739532,0.023212861269712448
1781792892705043200,56.588043212890625,0.6911171674728394,-0.07101303339004517,-0.2790125012397766
1781792892753566000,56.63656591796875,1.0950515270233154,-0.4269944727420807,-0.0206166859716177
1781792892802089000,56.6850888671875,0.07589995115995407,-0.36911505460739136,0.5242747068405151
1781792892850611700,56.73361181640625,-0.3842339515686035,-0.4350884258747101,0.01359174121171236
1781792892899134500,56.78213452148437,-0.37491825222969055,0.6743947267532349,-0.11927134543657303
1781792892947657500,56.83065747070312,-0.21517711877822876,0.6678279042243958,0.2626718580722809
1781792892996180000,56.87917993164063,0.358348548412323,0.4797579348087311,-0.750981867313385
1781792893044703000,56.92770288085938,0.750981867313385,0.2162461280822754,-1.0890191793441772
1781792893093225700,56.97622583007813,0.6992111206054688,1.0615302324295044,-0.7194460034370422
1781792893141748500,57.02474853515625,0.27977606654167175,1.4857758283615112,-0.5734493136405945
1781792893190271200,57.07327124023438,0.14882193505764008,1.1308634281158447,-0.7738129496574402
1781792893238794000,57.1217939453125,-0.03810269013047218,1.0859649181365967,-1.198898434638977
1781792893287316700,57.170316650390625,-0.8415426015853882,1.3109158277511597,-0.718224287033081
1781792893335839700,57.21883984375,-0.1997527778148651,0.43020153045654297,-0.22159120440483093
1781792893384362500,57.267362548828125,0.6128500699996948,-0.4949531853199005,0.47296205163002014
1781792893432885200,57.31588525390625,0.5544361472129822,-2.004476308822632,1.8364886045455933
1781792893481408000,57.36440795898437,0.143553227186203,-2.0972514152526855,2.327394723892212
1781792893529930800,57.4129306640625,-0.5502364635467529,-0.3669770061969757,0.28466299176216125
1781792893578453800,57.46145385742187,-1.331685185432434,-0.771064043045044,-0.27023130655288696
1781792893626976500,57.5099765625,-1.3868920803070068,-0.16455170512199402,0.42103853821754456
1781792893675499300,57.55849926757813,-0.3946186602115631,-0.5200750231742859,0.24312418699264526
1781792893724022000,57.60702197265625,0.820773184299469,-0.30398157238960266,-0.08063415437936783
1781792893772544800,57.655544677734376,1.0398445129394531,-0.41523534059524536,0.320933073759079
1781792893821067500,57.704067626953126,-0.02260199747979641,-0.10797034949064255,0.7533490061759949
1781792893869590500,57.752590576171876,-0.4137081801891327,-0.17608177661895752,-0.41905322670936584
1781792893918113300,57.80111328125,-0.6635518670082092,1.1177297830581665,-0.07490729540586472
1781792893966636000,57.849635986328124,-0.5125155448913574,0.7484620809555054,-0.16638429462909698
1781792894015158800,57.89815869140625,0.2809978127479553,0.6990583539009094,-0.850934624671936
1781792894063681500,57.946681640625,0.9142354726791382,0.7819069027900696,-0.9753220081329346
1781792894112204300,57.99520434570312,0.6717985272407532,1.522733211517334,-0.7316632866859436
1781792894160727000,58.04372705078125,0.5866592526435852,1.5525891780853271,-0.5337430834770203
1781792894209249800,58.09224975585938,0.32681265473365784,1.1419353485107422,-0.7602975964546204
1781792894257772800,58.14077270507813,-0.1366809904575348,1.0810779333114624,-1.1140646934509277
1781792894306295600,58.18929565429688,-1.0891718864440918,1.2262346744537354,-0.8774309158325195
1781792894354818300,58.237818359375,-0.3551415205001831,0.03802633285522461,-0.15493057668209076
1781792894403341000,58.286341064453126,0.5595521330833435,-0.27633994817733765,0.22098033130168915
1781792894451863800,58.33486376953125,0.2655734717845917,-1.2129483222961426,1.4708096981048584
1781792894500386600,58.383386474609374,0.27000224590301514,-2.1583380699157715,2.3324344158172607
1781792894548909600,58.43190966796875,-0.015271619893610477,-0.8874338269233704,0.9246965646743774
1781792894597432000,58.48043212890625,-1.155145287513733,-1.324583888053894,-0.5978838801383972
1781792894645955000,58.528955078125,-1.475467562675476,-0.5838339924812317,0.16714787483215332
1781792894694477800,58.57747778320312,-0.39255696535110474,-0.8301652073860168,0.39018988609313965
1781792894743000300,58.62600024414063,0.7267763614654541,-0.7308233380317688,-0.030390523374080658
1781792894791523300,58.6745234375,1.1772891283035278,-0.4503600597381592,-0.02893971838057041
1781792894840046000,58.72304614257813,0.23480114340782166,0.19501857459545135,0.6591231226921082
1781792894888568800,58.77156884765625,-0.28443390130996704,-0.24335326254367828,0.3874409794807434
1781792894937091600,58.820091552734375,-0.4647153913974762,0.5204567909240723,-0.5542834401130676
1781792894985614300,58.8686142578125,-0.6550761461257935,0.31787875294685364,0.1914297491312027
1781792895034137000,58.91713720703125,0.10690133273601532,0.31871870160102844,-0.2675587832927704
1781792895082660000,58.96566015625,0.7440332770347595,-0.21151192486286163,-1.0080796480178833
1781792895131182600,59.0141826171875,0.709595799446106,0.7307469844818115,-0.9673807621002197
1781792895179705600,59.06270556640625,0.4225656986236572,1.2251657247543335,-0.5960513353347778
1781792895228228400,59.11122827148437,0.5127446055412292,1.1213949918746948,-0.812221109867096
1781792895276751000,59.15975122070312,0.2805396616458893,0.7297543287277222,-1.1606431007385254
1781792895373796600,59.25679663085938,-0.6963858604431152,0.8355103135108948,-0.37178757786750793
1781792895422319400,59.3053193359375,0.49541133642196655,-0.09101885557174683,0.1026252806186676
1781792895470842000,59.353842041015625,0.47120583057403564,-1.3822343349456787,1.4361430406570435
1781792895519364900,59.40236474609375,-0.017486004158854485,-1.7372994422912598,2.3997058868408203
1781792895567887600,59.4508876953125,-0.4595993757247925,-0.18058690428733826,0.9497420191764832
1781792895616410600,59.49941064453125,-1.0296889543533325,-0.9728785157203674,-0.26656612753868103
1781792895664933000,59.54793310546875,-1.6550617218017578,-0.3578140437602997,0.2926042377948761
1781792895713455900,59.59645581054688,-0.6892082095146179,-0.6360629796981812,0.3070359230041504
1781792895761978600,59.644978515625,0.6809614896774292,-0.8476512432098389,0.11652245372533798
1781792895810501400,59.69350146484375,1.430416226387024,-0.5562687516212463,0.10384701192378998
1781792895859024400,59.7420244140625,0.39744389057159424,-0.38240134716033936,0.6989820003509521
1781792895907547100,59.790547119140626,-0.19463679194450378,-0.3738492429256439,0.38385215401649475
1781792895956070000,59.83906982421875,-0.2698495090007782,0.6171261668205261,-0.024281874299049377
1781792896004592600,59.887592529296874,-0.44470956921577454,0.7942769527435303,-0.1219438835978508
1781792896053115400,59.936115478515624,0.20731224119663239,0.7134900689125061,-0.7186060547828674
1781792896150161000,60.03316088867187,0.5076286196708679,1.2056180238723755,-1.0025818347930908
1781792896198683600,60.08168359375,0.15416699647903442,1.500512957572937,-0.5451204776763916
1781792896247206700,60.13020654296875,0.28298309445381165,1.1858412027359009,-0.6721803545951843
1781792896295729400,60.1787294921875,-0.021227551624178886,1.0400736331939697,-1.1030690670013428
1781792896392774400,60.2757744140625,0.07345648854970932,0.26389357447624207,-0.18524473905563354
1781792896441297400,60.32429736328125,0.7612902522087097,-0.5605447888374329,0.4866301417350769
1781792896489820200,60.372820068359374,0.5300779342651367,-2.077780246734619,1.8885648250579834
1781792896538343000,60.421343017578124,0.08353576064109802,-1.6444480419158936,2.341597318649292
1781792896586865700,60.46986572265625,-0.3211621642112732,-0.7431933879852295,0.2787834107875824
1781792896635388400,60.51838842773437,-1.300912857055664,-1.1070396900177002,-0.41011935472488403
1781792896683911200,60.5669111328125,-1.2809834480285645,-0.3673588037490845,0.32620179653167725
1781792896732434000,60.61543383789063,-0.13339759409427643,-0.8339831233024597,0.24633121490478516
1781792896780957000,60.66395703125,1.0877974033355713,-0.7105884552001953,-0.04276053607463837
1781792896829479700,60.71247973632813,1.100778341293335,-0.6210967898368835,0.30604326725006104
1781792896878002400,60.76100244140625,-0.10751219838857651,-0.04176788032054901,0.8608611822128296
1781792896926525000,60.80952490234375,-0.4520399272441864,0.059024810791015625,0.03825540840625763
1781792896975047700,60.858047607421874,-0.7413607835769653,0.8584941029548645,-0.12110394239425659
1781792897023570400,60.9065703125,-0.26771149039268494,0.5986474752426147,-0.07345648854970932
1781792897072093400,60.955093505859374,0.4139372408390045,0.6338485479354858,-1.0040326118469238
1781792897120616200,61.0036162109375,0.7328850030899048,0.9778417944908142,-1.1908044815063477
1781792897169138700,61.052138671875,0.5845975875854492,1.7969350814819336,-0.7689260244369507
1781792897217661400,61.10066137695313,0.4687623679637909,1.7635666131973267,-0.5838339924812317
1781792897266184200,61.14918408203125,0.41271552443504333,0.8820887207984924,-0.7777835726737976
1781792897314707200,61.19770727539063,-0.24144430458545685,0.9308052062988281,-1.4433207511901855
1781792897363229700,61.246229736328125,-1.0844377279281616,1.0343468189239502,-0.9963204264640808
1781792897460275500,61.343275390625,0.5687150955200195,-0.11896591633558273,0.48036879301071167
1781792897508798200,61.39179809570312,0.5031235218048096,-1.6922481060028076,1.7723478078842163
1781792897557321000,61.44032104492187,0.1787542998790741,-1.6635375022888184,2.529820203781128
1781792897605843700,61.48884375,-0.3888917863368988,-0.5871937870979309,0.2648862302303314
1781792897654366200,61.5373662109375,-1.3608540296554565,-0.8470403552055359,-0.4738783538341522
1781792897702889000,61.58588891601563,-1.261283040046692,-0.050090912729501724,0.45326167345046997
1781792897751412000,61.63441186523438,-0.31925320625305176,-0.45104727149009705,0.2738964855670929
1781792897799934500,61.6829345703125,0.6908880472183228,-0.38644832372665405,-0.081015944480896
1781792897896980000,61.77997998046875,-0.18959715962409973,-0.2909243404865265,0.6137663722038269
1781792897945503000,61.8285029296875,-0.24541492760181427,-0.03588830679655075,-0.1178968995809555
1781792897994025500,61.877025390625,-0.48220139741897583,0.7441860437393188,-0.10980294644832611
