time,seconds_elapsed,z,y,x
1781792836313923800,0.196923828125,-0.026572618633508682,-0.11140646785497665,-0.0807105079293251
1781792836362446800,0.24544677734375,-0.037491824477910995,-0.18028147518634796,-0.12278381735086441
1781792836410969900,0.293969970703125,-0.002672533504664898,-0.20219624042510986,-0.10247256606817245
1781792836508015900,0.391015869140625,-0.010537417605519295,-0.4566214084625244,-0.2055560052394867
1781792836556539000,0.439538818359375,-0.04016435891389847,-0.37949973344802856,-0.16294817626476288
1781792836605062000,0.488061767578125,0.025961752980947495,0.09308052062988281,0.34208428859710693
1781792836653585000,0.5365849609375,-0.027870705351233482,0.005039634648710489,0.4535670876502991
1781792836702108000,0.58510791015625,0.028863361105322838,0.012217295356094837,0.4764745235443115
1781792836750631000,0.633630859375,0.05520690605044365,0.17073670029640198,0.606970489025116
1781792836799154000,0.68215380859375,0.05711585655808449,0.5668061375617981,-0.04512763395905495
1781792836847677000,0.730677001953125,0.1631772518157959,1.1710277795791626,-0.7234929800033569
1781792836896200000,0.779199951171875,-0.09819651395082474,0.9351575970649719,-0.13530655205249786
1781792836944723000,0.827722900390625,-0.23709189891815186,0.19333870708942413,0.2260199636220932
1781792836993246000,0.876245849609375,-0.12377647310495377,-0.2980256676673889,0.36544984579086304
1781792837041769000,0.92476904296875,-0.07933606207370758,-0.1496618688106537,0.31039565801620483
1781792837090292000,0.9732919921875,-0.06414080411195755,0.09712749719619751,0.21991132199764252
1781792837138815000,1.02181494140625,0.007941242307424545,0.0057268571108579636,0.40431612730026245
1781792837187338000,1.070337890625,0.08674279600381851,0.11346813291311264,0.21059563755989075
1781792837235861000,1.118861083984375,0.11606431007385254,0.21899501979351044,0.1314886510372162
1781792837284384000,1.167384033203125,0.14454588294029236,0.10567960888147354,0.1737910360097885
1781792837332907000,1.215906982421875,0.1366809904575348,0.1360701322555542,0.03283398225903511
1781792837381430300,1.26443017578125,0.14233149588108063,0.06177370250225067,-0.041844237595796585
1781792837429953300,1.312953369140625,0.17104214429855347,-0.06330086290836334,-0.0461202897131443
1781792837478476300,1.361476318359375,0.21655155718326569,0.08009964227676392,-0.08689551800489426
1781792837526999300,1.409999267578125,0.1781434416770935,0.10583232343196869,0.010384701192378998
1781792837575522300,1.458522216796875,0.1634826809167862,0.0616973415017128,0.05215258151292801
1781792837624045300,1.50704541015625,0.21403174102306366,0.15790854394435883,0.0062613640911877155
1781792837672568300,1.555568359375,0.25763222575187683,0.24633121490478516,0.09918916970491409
1781792837721091300,1.60409130859375,0.22388194501399994,0.21059563755989075,0.023747367784380913
1781792837769614600,1.652614501953125,0.14630211889743805,0.22327107191085815,-0.017256930470466614
1781792837818137600,1.7011376953125,0.2496146261692047,0.2706131041049957,-0.015958841890096664
1781792837866660600,1.74966064453125,0.27511823177337646,0.32704174518585205,-0.032910339534282684
1781792837915183600,1.79818359375,0.2716057598590851,0.312228262424469,-0.14569124579429626
1781792837963706600,1.84670654296875,0.20547963678836823,0.09269873052835464,-0.10819942504167557
1781792838012230000,1.89522998046875,0.17394374310970306,-0.08972076326608658,-0.10682497918605804
1781792838060753000,1.9437529296875,0.09346231073141098,-0.04405862092971802,-0.16554436087608337
1781792838109276000,1.99227587890625,0.1265253722667694,0.1893680840730667,-0.0009162971982732415
1781792838157799000,2.040798828125,0.0553596206009388,0.16332997381687164,0.10140355676412582
1781792838206322200,2.089322265625,-0.03611737862229347,-0.02130390889942646,0.05581776797771454
1781792838254845200,2.13784521484375,-0.03237583488225937,-0.03145953640341759,0.053985174745321274
1781792838303368200,2.1863681640625,-0.05520690605044365,-0.03451386094093323,0.048792824149131775
1781792838351891500,2.234891357421875,-0.0019089524867013097,-0.03955349326133728,0.027488915249705315
1781792838400414500,2.28341455078125,0.08277218043804169,-0.04505127668380737,-0.056428633630275726
1781792838448937500,2.3319375,0.13041962683200836,-0.01282816007733345,-0.08147408813238144
1781792838497460700,2.380460693359375,0.14508038759231567,-0.0007635809597559273,-0.143553227186203
1781792838545983700,2.428983642578125,0.10422880202531815,-0.06261363625526428,-0.23373213410377502
1781792838594506800,2.4775068359375,0.07605266571044922,-0.2193768173456192,-0.11316270381212234
1781792838643030000,2.526030029296875,-0.014737112447619438,-0.30054548382759094,-0.1807396113872528
1781792838691553000,2.574552978515625,-0.0019089524867013097,-0.39629852771759033,-0.05192350596189499
1781792838740076000,2.623075927734375,-0.057726722210645676,-0.2467893660068512,-0.058795735239982605
1781792838788599300,2.671599365234375,-0.16157373785972595,-0.36506807804107666,-0.06421715766191483
1781792838837122300,2.720122314453125,-0.25045454502105713,-0.01511890348047018,-0.1441640853881836
1781792838885645600,2.7686455078125,-0.19448406994342804,0.3381136655807495,-0.3278053104877472
1781792838934168600,2.81716845703125,-0.2136499583721161,0.09262236952781677,-0.13469567894935608
1781792838982691800,2.86569189453125,-0.17256930470466614,0.1331685185432434,-0.12018764764070511
1781792839031214800,2.91421484375,-0.09804379940032959,-0.05871937796473503,-0.04940368980169296
1781792839079737900,2.96273779296875,-0.02000582218170166,-0.16035200655460358,-0.07895427197217941
1781792839128260900,3.0112607421875,-0.051618073135614395,-0.1003345400094986,-0.10445787757635117
1781792839176784100,3.0597841796875,-0.061850059777498245,0.15958842635154724,-0.5097666382789612
1781792839225307100,3.10830712890625,0.11087195575237274,0.09178243577480316,-0.4114174246788025
1781792839273830400,3.156830322265625,0.09995274990797043,-0.14767655730247498,-0.11629338562488556
1781792839322353400,3.205353515625,0.019013166427612305,-0.12064579129219055,0.028405211865901947
1781792839370876700,3.253876708984375,-0.05070177838206291,-0.09010255336761475,0.11499529331922531
1781792839419400000,3.30239990234375,-0.053374309092760086,-0.0435241162776947,0.18096868693828583
1781792839467923000,3.3509228515625,-0.02107483521103859,-0.025579962879419327,0.20013457536697388
1781792839516446200,3.3994462890625,-0.014278964139521122,-0.11125374585390091,0.31115925312042236
1781792839564969200,3.44796923828125,-0.033597562462091446,-0.12522727251052856,0.26167920231819153
1781792839613493200,3.4964931640625,-0.02718348242342472,-0.05001455545425415,0.1769980639219284
1781792839662015500,3.545015380859375,-0.03145953640341759,-0.008399390615522861,0.10315979272127151
1781792839710538800,3.593538818359375,-0.06337722390890121,-0.010079269297420979,0.09766200929880142
1781792839759061800,3.642061767578125,-0.041844237595796585,0.022907428443431854,0.06933315098285675
1781792839807585000,3.6905849609375,-0.020387612283229828,-0.02611446939408779,0.053756099194288254
1781792839856108000,3.73910791015625,0.000305432389723137,-0.018631376326084137,0.06673697382211685
1781792839904631300,3.78763134765625,-0.003665188793092966,0.007941242307424545,0.018555017188191414
1781792839953154300,3.836154296875,0.004199695307761431,-0.010079269297420979,0.008781181648373604
1781792840001677600,3.884677490234375,0.004810560029000044,-0.009773836471140385,0.021838415414094925
1781792840050200800,3.933200927734375,0.003894262947142124,-0.0035888305865228176,-0.06330086290836334
1781792840098723800,3.981723876953125,0.01511890348047018,-0.01282816007733345,-0.05887209251523018
1781792840147247000,4.0302470703125,0.030314164236187935,-0.03023780696094036,0.00679587060585618
1781792840195770400,4.078770263671875,0.03962985426187515,-0.060093823820352554,-0.013973532244563103
1781792840244293400,4.12729345703125,0.01030834298580885,-0.3173442482948303,0.056657709181308746
1781792840292816600,4.175816650390625,-0.02283107116818428,-0.2551887631416321,-0.026419902220368385
1781792840341340000,4.22433984375,0.06597339361906052,-0.0334448479115963,-0.35758498311042786
1781792840389863000,4.27286279296875,0.01282816007733345,0.19303326308727264,-0.4085158109664917
1781792840438386200,4.32138623046875,0,0.24885104596614838,-0.45998117327690125
1781792840486918100,4.369918212890625,0.04886918142437935,0.26687154173851013,-0.9837213754653931
1781792840535432400,4.418432373046875,0.0896444097161293,0.4621191918849945,-1.0625993013381958
1781792840583955700,4.466955810546875,-0.005803215317428112,0.3992001414299011,-0.3042106628417969
1781792840632479000,4.51547900390625,-0.11400263756513596,0.11568251997232437,-0.11743875592947006
1781792840681002200,4.564002197265625,-0.029626941308379173,0.02283107116818428,0.12767073512077332
1781792840729525200,4.612525146484375,0.1026252806186676,0.27717989683151245,0.04978547990322113
1781792840778048500,4.661048583984375,0.23212862014770508,0.17165300250053406,0.18837542831897736
1781792840826571800,4.70957177734375,0.129197895526886,-0.1758527010679245,0.24220788478851318
1781792840875095000,4.758094970703125,0.11942406743764877,-0.061850059777498245,0.30283620953559875
1781792840923618000,4.8066181640625,0.06246092543005943,0.11171189695596695,0.20563235878944397
1781792840972141300,4.855141357421875,0.11896591633558273,0.2528980076313019,0.3517817556858063
1781792841020664600,4.90366455078125,0.12446369975805283,0.342542439699173,0.07574722915887833
1781792841069187800,4.952187744140625,0.09048434346914291,0.05833758786320686,0.23365578055381775
1781792841117711000,5.000711181640625,0.11438442766666412,-0.3121519088745117,0.5790234804153442
1781792841166234000,5.049234130859375,0.38583746552467346,-0.13248129189014435,0.5415316224098206
1781792841214757400,5.09775732421875,0.3753000497817993,0.28703010082244873,0.07651081681251526
1781792841263280600,5.14628076171875,0.15638138353824615,0.0397825688123703,-0.2565632164478302
1781792841311804000,5.194803955078125,0.15179990231990814,-0.8639918565750122,0.38667741417884827
1781792841360327000,5.243326904296875,0.1599702090024948,-1.2536472082138062,0.10995566099882126
1781792841408850200,5.29185009765625,0.2341139316558838,-0.49602219462394714,0.1957821547985077
1781792841457373400,5.34037353515625,0.07055488228797913,0.3646862804889679,0.046807512640953064
1781792841505896700,5.388896728515625,-0.030695954337716103,0.20937390625476837,-0.07338013499975204
1781792841554420000,5.437419921875,-0.0019089524867013097,-0.2865719497203827,-0.09964732080698013
1781792841602943000,5.48594287109375,0.07017309218645096,-0.6298779249191284,0.03817904740571976
1781792841651466200,5.53446630859375,0.14607304334640503,-1.9894338846206665,0.16096286475658417
1781792841699989500,5.582989501953125,0.2352592945098877,-5.8903398513793945,0.8197805285453796
1781792841748512800,5.6315126953125,-0.2144898921251297,-0.938746452331543,0.2551124095916748
1781792841797036000,5.6800361328125,-0.0948367565870285,-0.7816014885902405,-0.04657844081521034
1781792841845559300,5.728559326171875,0.07941242307424545,-0.6080395579338074,0.04512763395905495
1781792841894082600,5.77708251953125,0.18608468770980835,-0.7622829079627991,0.0807105079293251
1781792841942605600,5.82560546875,0.23877176642417908,-0.6330850124359131,0.07819069176912308
1781792841991128800,5.87412890625,0.16974404454231262,-0.7889318466186523,0.1461493968963623
1781792842039652000,5.922652099609375,0.10774127393960953,-0.9468404054641724,0.04558578506112099
1781792842088175400,5.97117529296875,-0.007941242307424545,-0.689513623714447,0.016187917441129684
1781792842136698600,6.01969873046875,0.07712167501449585,-1.0707695484161377,-0.003512472379952669
1781792842185222000,6.068221923828125,0.23335035145282745,-1.4185043573379517,-0.012522728182375431
1781792842233745200,6.1167451171875,0.28817546367645264,-1.4764602184295654,-0.000610864779446274
1781792842282268200,6.16526806640625,0.5488619804382324,-2.1006112098693848,-0.04589121788740158
1781792842330791400,6.21379150390625,0.6620246767997742,-2.832350969314575,0.20777037739753723
1781792842379314700,6.262314697265625,0.2592357397079468,-2.5899903774261475,0.25816673040390015
1781792842427838000,6.310837890625,0.12064579129219055,-2.3903138637542725,0.16065743565559387
1781792842476361200,6.359361328125,0.19425499439239502,-2.4707188606262207,0.2560287117958069
1781792842524884500,6.407884521484375,0.020158538594841957,-2.0295982360839844,0.42416924238204956
1781792842573407700,6.45640771484375,-0.5743656158447266,-3.55676007270813,0.6633228063583374
1781792842621931000,6.504930908203125,-0.5551997423171997,-3.1483969688415527,0.4632645845413208
1781792842670454300,6.553454345703125,0.6854666471481323,0.522442102432251,0.14882193505764008
1781792842767500800,6.650500732421875,0.7981712222099304,0.09185878932476044,0.15012001991271973
1781792842816023800,6.69902392578125,1.0435861349105835,0.07399099320173264,0.6788998246192932
1781792842920267000,6.80326708984375,-0.7694605588912964,2.646571636199951,0.6399571895599365
1781792842968790300,6.851790283203125,-1.7368413209915161,3.322493553161621,-0.20303617417812347
1781792843017313500,6.9003134765625,-2.7604215145111084,3.7999606132507324,-0.6467530727386475
1781792843065836800,6.9488369140625,-2.61137056350708,2.7812674045562744,-1.1200206279754639
1781792843114360000,6.997360107421875,-2.0995421409606934,2.1397829055786133,-1.1704169511795044
1781792843162883300,7.04588330078125,-2.0854923725128174,1.8581743240356445,-0.7406735420227051
1781792843211406600,7.094406494140625,-1.300912857055664,1.5528182983398438,-0.7298306822776794
1781792843259929900,7.142929931640625,-0.9219476580619812,1.3765838146209717,-0.8532254099845886
1781792843308453000,7.191453125,-1.3556616306304932,1.6448297500610352,-1.110552191734314
1781792843356976400,7.239976318359375,-1.2797616720199585,1.7629557847976685,-1.666744589805603
1781792843405499600,7.288499755859375,-1.1644610166549683,1.5148682594299316,-1.4799726009368896
1781792843454023000,7.33702294921875,-1.552207350730896,1.8991786241531372,-1.6781219244003296
1781792843502546200,7.385546142578125,-1.1591923236846924,1.4623339176177979,-1.4785982370376587
1781792843551069400,7.4340693359375,-1.1795798540115356,1.3561197519302368,-1.14017915725708
1781792843648115700,7.53111572265625,-2.7453789710998535,0.8707877397537231,-1.926514744758606
1781792843745162200,7.628162353515625,-1.824653148651123,-0.934623122215271,-0.3508654534816742
1781792843842209000,7.725208984375,-3.721999168395996,-0.312228262424469,1.5662572383880615
1781792843939255300,7.82225537109375,-2.9728498458862305,1.4540108442306519,2.0864086151123047
1781792844036301800,7.9193017578125,-4.0963826179504395,2.253403902053833,0.42126762866973877
1781792844133348600,8.0163486328125,-3.90808367729187,3.2959208488464355,-5.418675899505615
1781792844230395000,8.113394775390624,0.2770271897315979,-0.47952884435653687,0.9759328365325928
1781792844327441400,8.21044140625,0.320933073759079,-0.21288637816905975,0.43463030457496643
1781792844424488200,8.30748828125,2.669555425643921,-1.6255111694335938,1.9394956827163696
1781792844521534700,8.40453466796875,11.63705062866211,-6.490667343139648,9.576068878173828
1781792844618581200,8.501581298828125,7.867785453796387,-4.8575968742370605,10.237483024597168
1781792844715627800,8.598627685546875,-0.1876882016658783,0.3848448097705841,-0.7489965558052063
1781792844812674300,8.69567431640625,-1.3038908243179321,0.915075421333313,-2.191859245300293
1781792844909720600,8.792720458984375,-0.18845178186893463,0.0007635809597559273,-0.6423243284225464
1781792844958244000,8.841244140625,0.349643737077713,2.245462656021118,-3.224144220352173
1781792845006767400,8.889767333984375,1.6565126180648804,5.038336277008057,-1.373453140258789
1781792845055290600,8.93829052734375,1.489288330078125,3.748037099838257,-0.6730202436447144
1781792845103814000,8.98681396484375,0.44470956921577454,0.6492729187011719,-0.4903717041015625
1781792845152337200,9.035337158203125,0.24556763470172882,-1.258992314338684,-0.29901832342147827
1781792845201248800,9.084248779296875,1.3855177164077759,-0.7803797721862793,-0.4107302129268646
1781792845297907000,9.180906982421876,1.4551562070846558,-1.5024219751358032,-1.0946696996688843
1781792845346430200,9.22943017578125,2.6292383670806885,-2.886641502380371,-0.9615011811256409
1781792845394953500,9.277953369140626,4.671130180358887,-1.2932771444320679,-0.4125627875328064
1781792845443477000,9.32647705078125,4.633638381958008,0.8872811198234558,-2.3814563751220703
1781792845492000300,9.375000244140624,4.418461322784424,1.737910270690918,-3.7322311401367188
1781792845540523500,9.4235234375,3.590357780456543,1.032514214515686,-2.4935500621795654
1781792845589046800,9.472046875,2.1083998680114746,0.6468294262886047,-0.1997527778148651
1781792845637570000,9.520570068359374,1.0586286783218384,0.9142354726791382,0.16737695038318634
1781792845686093300,9.56909326171875,1.0036507844924927,2.081827163696289,-0.21685700118541718
1781792845734616800,9.617616943359375,0.9542471170425415,2.6001458168029785,0.27030766010284424
1781792845783139800,9.666139892578125,1.5172353982925415,3.864025115966797,1.6398664712905884
1781792845831663400,9.714663330078125,-0.5090031027793884,-0.5184714794158936,3.260338068008423
1781792845880186600,9.7631865234375,0.6604211926460266,0.03214675933122635,-0.028328854590654373
1781792845928710000,9.8117099609375,1.1035271883010864,0.25549420714378357,0.002825249684974551
1781792845977233200,9.860233154296875,0.916602611541748,0.9468404054641724,-0.09537126123905182
1781792846074280000,9.957280029296875,0.38736462593078613,1.3296235799789429,1.4212533235549927
1781792846122803200,10.00580322265625,0.6391936540603638,0.5613083839416504,1.1748456954956055
1781792846171326500,10.054326416015625,0.16096286475658417,-0.35613417625427246,0.32391104102134705
1781792846219849700,10.102849609375,0.2606865465641022,0.9763146042823792,-0.014126247726380825
1781792846268373200,10.151373291015625,-1.1697297096252441,-0.5699368119239807,2.4560582637786865
1781792846316896500,10.199896484375,-1.0064760446548462,0.5656607747077942,4.347218990325928
1781792846365419800,10.248419677734375,-0.08765909820795059,-0.8377246856689453,3.707338333129883
1781792846462466600,10.345466552734376,0.37980517745018005,-0.15034909546375275,-2.089768409729004
1781792846510989800,10.39398974609375,-0.4511236250400543,1.2123374938964844,-0.11957678198814392
1781792846559513300,10.442513427734376,-1.4306453466415405,1.2809070348739624,1.7191262245178223
1781792846608036600,10.49103662109375,-2.227212905883789,0.09850194305181503,2.356639862060547
1781792846656559900,10.539559814453124,-1.9325470924377441,-1.7285946607589722,2.741255760192871
1781792846705083100,10.588083251953124,-0.007941242307424545,-2.2386667728424072,0.41760244965553284
1781792846753606400,10.6366064453125,0.6527090072631836,-0.13889537751674652,-1.6654465198516846
1781792846802130000,10.6851298828125,0.3073413372039795,-1.4986803531646729,-3.7888123989105225
1781792846850653200,10.733653076171874,0.09560033679008484,-3.565312385559082,-4.229093074798584
1781792846899176400,10.782176513671875,1.3814706802368164,-2.4433064460754395,-4.944034099578857
1781792846947700000,10.830699951171875,1.2409718036651611,-1.3634501695632935,-4.877984523773193
1781792846996223500,10.879223388671875,1.3420698642730713,-1.0735185146331787,-2.3651156425476074
1781792847044746800,10.927746826171875,0.9320269227027893,-0.5502364635467529,-2.925126075744629
1781792847093270000,10.97627001953125,1.0318269729614258,0.9278272390365601,-1.517388105392456
1781792847141793300,11.024793212890625,0.9226348996162415,1.6249003410339355,1.2131011486053467
1781792847190316800,11.07331689453125,-0.9385937452316284,-0.6958513259887695,3.097466230392456
1781792847238840000,11.121840087890625,0.8390227556228638,0.3854556679725647,0.8393282294273376
1781792847287363300,11.17036328125,1.332601547241211,2.173456907272339,0.23312127590179443
1781792847335886800,11.218886962890625,1.6946152448654175,2.3367104530334473,0.1698204129934311
1781792847384410400,11.267410400390625,0.5765036344528198,-1.1128429174423218,1.0702351331710815
1781792847432933600,11.31593359375,1.9092578887939453,-0.2331976294517517,-0.01695149764418602
1781792847481457000,11.364456787109376,1.7314962148666382,0.4976257085800171,0.5378664135932922
1781792847578503700,11.461503662109376,1.4954733848571777,1.7686063051223755,1.5134938955307007
1781792847627027200,11.510027099609376,0.09796743839979172,0.15271618962287903,0.5051851868629456
1781792847675550500,11.558550537109374,0.27863070368766785,0.7262418866157532,-0.393244206905365
1781792847724073700,11.60707373046875,-0.26389357447624207,-0.04566214233636856,0.2496146261692047
1781792847772597200,11.65559716796875,-0.24060437083244324,0.3125337064266205,0.9264528155326843
1781792847821120500,11.70412060546875,0.10842850059270859,-0.47693267464637756,1.3295471668243408
1781792847869644000,11.75264404296875,0.15012001991271973,-0.6687442064285278,0.8975130915641785
1781792847918167600,11.80116748046875,0.1233946830034256,-0.2545779049396515,0.3906480371952057
1781792847966690600,11.849690673828125,-0.06146826967597008,-0.7241038084030151,0.21945317089557648
1781792848015214000,11.898214111328125,0.7479275465011597,-1.728212833404541,-1.0699297189712524
1781792848063737300,11.9467373046875,0.5371792316436768,-1.5453351736068726,-0.9037744402885437
1781792848112260900,11.9952607421875,0.5956695079803467,0.35934120416641235,-0.537790060043335
1781792848160784400,12.043784423828125,0.6292670965194702,0.019242240116000175,-0.9640209674835205
1781792848209307600,12.0923076171875,0.3317759335041046,1.2905281782150269,0.14637847244739532
1781792848257831200,12.1408310546875,0.5813905596733093,1.3613121509552002,1.6526947021484375
1781792848306354700,12.189354736328125,0.8765909671783447,1.1133010387420654,1.8252639770507812
1781792848354878000,12.2378779296875,0.06108647957444191,0.015271619893610477,0.9062178730964661
1781792848403401200,12.286401123046875,-1.1267400979995728,-0.8235220909118652,-0.9293544292449951
1781792848451924700,12.3349248046875,-1.9288055896759033,-0.8406262993812561,-1.9737805128097534
1781792848500448000,12.383447998046876,-2.431547164916992,-2.3710715770721436,-4.193892002105713
1781792848548971500,12.431971435546876,-3.886321783065796,-0.17722713947296143,-3.6422812938690186
1781792848597495000,12.4804951171875,-0.277332603931427,-0.1438586562871933,0.7625119686126709
1781792848646018300,12.529018310546874,-0.8349757790565491,-2.612668752670288,1.2056180238723755
1781792848694541800,12.577541748046874,-0.8331431746482849,-2.195066213607788,-0.3309359848499298
1781792848743065300,12.6260654296875,0.422947496175766,0.7654135823249817,-0.6475930213928223
1781792848791588600,12.674588623046875,1.1585050821304321,1.6172645092010498,-0.3154352903366089
1781792848840112000,12.723112060546875,0.27779075503349304,0.02848157100379467,-0.14294235408306122
1781792848888635400,12.771635498046875,-0.7527381181716919,-1.145676851272583,-0.2767980992794037
1781792848937158700,12.82015869140625,-1.623220443725586,-1.669722557067871,-0.9518036842346191
1781792848985682200,12.86868212890625,-0.7728966474533081,-0.8139773011207581,-1.0953569412231445
1781792849082729200,12.965729248046875,0.7168498039245605,0.4067595899105072,0.04230238497257233
1781792849131252700,13.014252685546875,0.9356921315193176,0.6869174242019653,0.9816597104072571
1781792849179775700,13.062775634765625,1.573282241821289,0.9983057379722595,1.928041934967041
1781792849228299300,13.11129931640625,1.5577051639556885,0.7776308655738831,1.7779983282089233
1781792849276822800,13.15982275390625,1.0290017127990723,1.5356377363204956,0.6254491806030273
1781792849325346000,13.208345947265625,0.6466003656387329,0.9983057379722595,0.5568032264709473
1781792849373869600,13.25686962890625,1.117882490158081,1.7014111280441284,0.9887610077857971
1781792849422393000,13.30539306640625,1.3107631206512451,0.3285689055919647,1.6168826818466187
1781792849470916400,13.353916259765626,1.1701115369796753,0.12431098520755768,0.7890082001686096
1781792849519440000,13.40243994140625,0.905912458896637,0.7617483735084534,0.49594584107398987
1781792849567963400,13.45096337890625,1.6194789409637451,1.0867284536361694,1.7502802610397339
1781792849616486700,13.499486572265624,0.23487751185894012,0.24228423833847046,0.5135082006454468
1781792849665010200,13.54801025390625,-0.3194059133529663,0.17684535682201385,0.05413788929581642
1781792849713533700,13.59653369140625,-0.9643264412879944,-0.711122989654541,-0.8473458290100098
1781792849762057000,13.645056884765625,-1.6458224058151245,-0.680350661277771,-2.3203699588775635
1781792849810580500,13.69358056640625,-1.3289363384246826,-0.8820887207984924,-0.8949168920516968
1781792849859104000,13.74210400390625,-0.7623592615127563,-0.33597561717033386,-1.9442298412322998
1781792849907627300,13.790627197265625,-0.9908226728439331,-0.898200273513794,-0.7432697415351868
1781792849956150800,13.83915087890625,-0.31459537148475647,-0.711122989654541,-0.5199222564697266
1781792850053197800,13.93619775390625,0.07559451460838318,0.19967642426490784,-0.46944957971572876
1781792850150244600,14.03324462890625,1.4315615892410278,0.737084686756134,-0.7548761367797852
1781792850247291400,14.13029150390625,1.0959677696228027,-0.28473934531211853,-0.6109411120414734
1781792850344338400,14.22733837890625,2.0883939266204834,-1.0760383605957031,-0.20463970303535461
1781792850441385200,14.32438525390625,0.7186060547828674,0.5543597936630249,-0.30627232789993286
1781792850538432000,14.421431884765624,-0.7450259327888489,0.4947241246700287,-0.012522728182375431
1781792850635478800,14.518478759765625,0.05803215503692627,0.30482152104377747,-0.033597562462091446
1781792850732525800,14.61552587890625,-0.13591741025447845,0.037033677101135254,0.1957821547985077
1781792850829572600,14.712572509765625,0.025274530053138733,0.734183132648468,-1.496466040611267
1781792850926619600,14.80961962890625,0.20914483070373535,-0.4313468933105469,0.6999746561050415
1781792851023666400,14.90666650390625,0.39164069294929504,-0.14194969832897186,0.24434591829776764
1781792851120713200,15.003713134765626,-0.16165009140968323,0.4287507236003876,-0.10041090101003647
1781792851217760300,15.10076025390625,0.07086031138896942,0.10315979272127151,-0.1409570425748825
1781792851314807000,15.19780712890625,0.42562004923820496,0.3860665261745453,0.8167262077331543
1781792851411854000,15.29485400390625,-0.04764745384454727,0.23739732801914215,-0.20219624042510986
1781792851508900900,15.39190087890625,0.05688678100705147,0.1130099818110466,0.06841685622930527
1781792851605948000,15.488947998046875,-0.035124726593494415,0.10598503798246384,-0.037491824477910995
1781792851702994700,15.58599462890625,0.057039499282836914,0.03886627033352852,0.003665188793092966
1781792851800041700,15.683041748046875,0.012522728182375431,0.14592032134532928,-0.0031306820455938578
1781792851897088500,15.780088623046876,0.018555017188191414,0.17287473380565643,-0.007024944759905338
1781792851994135600,15.877135498046876,-0.0009926552884280682,0.1536324918270111,-0.041157014667987823
1781792852091182300,15.974182373046874,-0.12644900381565094,0.35811948776245117,-0.019013166427612305
1781792852188229400,16.0712294921875,-0.009315688163042068,0.34788748621940613,0.09437860548496246
1781792852285276200,16.168276123046876,-0.025961752980947495,0.39828383922576904,-0.04001164436340332
1781792852382323200,16.2653232421875,-0.033597562462091446,0.3153589367866516,0.035964664071798325
1781792852479370000,16.362369873046877,0.023441936820745468,-0.13889537751674652,-0.03711003437638283
1781792852576417000,16.4594169921875,0.04848739132285118,-0.4021781086921692,-0.04505127668380737
1781792852673464000,16.556464111328125,0.034437503665685654,-0.19120067358016968,-0.0423787422478199
1781792852770510800,16.6535107421875,0.001832594396546483,-0.025732679292559624,0.0021380267571657896
1781792852867558000,16.750557861328126,0.006337722297757864,0.035735588520765305,0.010537417605519295
1781792852964604700,16.847604736328126,0.005574141163378954,0.06696604937314987,-0.0027488914784044027
1781792853061651700,16.944651611328126,0.001679878099821508,0.04390590637922287,0.012522728182375431
1781792853158698800,17.04169873046875,-0.0021380267571657896,0.0034361144062131643,0.009315688163042068
1781792853255745500,17.13874560546875,0.002672533504664898,-0.0397825688123703,-0.003741546766832471
1781792853352792600,17.23579248046875,0.002061668550595641,-0.04955640435218811,-0.007406735327094793
1781792853401316000,17.284316162109373,0.0010690133785828948,-0.03550651669502258,-0.005955931730568409
1781792853449839400,17.33283935546875,0.005803215317428112,-0.015729768201708794,-0.007406735327094793
1781792853498363000,17.38136279296875,-0.001221729558892548,-0.008552107028663158,-0.007406735327094793
1781792853546886400,17.429886474609376,-0.002443459117785096,-0.008246674202382565,0.00603228947147727
1781792853595410000,17.478409912109374,-0.004046979360282421,-0.009162971749901772,0.00847574882209301
1781792853643933400,17.526933349609376,-0.00847574882209301,-0.007941242307424545,0.0034361144062131643
1781792853692456700,17.575456787109374,-0.008246674202382565,0.0009926552884280682,0.0032070400193333626
1781792853740980500,17.62398046875,-0.006872228812426329,0.005803215317428112,0.003359756199643016
1781792853789504000,17.67250390625,-0.005268708802759647,0.01565340906381607,-0.0006872228696011007
1781792853838027500,17.721027587890624,-0.005650499369949102,0.012522728182375431,0.004199695307761431
1781792853886550800,17.76955078125,-0.010690134018659592,0.0009162971982732415,0.014660755172371864
1781792853935074300,17.81807421875,-0.013209951110184193,-0.0031306820455938578,0.018096869811415672
1781792853983597800,17.866597900390627,-0.014049889519810677,-0.010613775812089443,0.019929463043808937
1781792854080644900,17.963644775390627,-0.009315688163042068,-0.008246674202382565,0.014966187067329884
1781792854129168100,18.012168212890625,-0.006108647678047419,-0.005955931730568409,0.009697478264570236
1781792854177691600,18.060691650390623,-0.0011453714687377214,-0.004886918235570192,0.002443459117785096
1781792854226215400,18.10921533203125,-0.004581485874950886,-0.013744457624852657,0.003665188793092966
1781792854274738700,18.15773876953125,-0.0054977829568088055,-0.02412915788590908,0.014431680552661419
1781792854323262200,18.20626220703125,-0.008933897130191326,-0.029932374134659767,0.013744457624852657
1781792854371785700,18.25478564453125,-0.0019853105768561363,-0.030543239787220955,0.003359756199643016
1781792854420309000,18.30330908203125,-0.0019853105768561363,-0.031001387163996696,0.0023671009112149477
1781792854468832500,18.35183251953125,0.002290742937475443,-0.03940077871084213,0.0030543238390237093
1781792854517356300,18.400356201171874,-0.0054977829568088055,-0.03176496922969818,0.006719512399286032
1781792854565879600,18.448879638671876,-0.006108647678047419,-0.021227551624178886,0.013209951110184193
1781792854614403000,18.497403076171874,-0.006872228812426329,-0.003283398225903511,0.011377356946468353
1781792854662926600,18.545926513671876,-0.0077121676877141,0.007024944759905338,0.005803215317428112
1781792854711450000,18.5944501953125,-0.0034361144062131643,0.011759147047996521,-0.000305432389723137
1781792854759973600,18.6429736328125,-0.0016035200096666813,0.0035888305865228176,0.0025961752980947495
1781792854808497000,18.691496826171875,-0.0022143847309052944,-0.0025198173243552446,0.0035888305865228176
1781792854857020400,18.7400205078125,-0.0019853105768561363,-0.0030543238390237093,0.0038179049734026194
1781792854905544000,18.7885439453125,0.00045814859913662076,-0.000839939049910754,0.001832594396546483
1781792854954067500,18.8370673828125,0.001450803829357028,0.0013744457392022014,-0.002061668550595641
1781792855002591000,18.885591064453124,0.00022907429956831038,-0.003970621153712273,-0.004581485874950886
1781792855051114500,18.934114501953125,0.004963276442140341,-0.00946840364485979,-0.004123337101191282
1781792855099638000,18.982637939453124,0.006414080038666725,-0.006108647678047419,-0.004276053514331579
1781792855148161500,19.03116162109375,0.0031306820455938578,-0.003283398225903511,-0.005345067009329796
1781792855196685000,19.07968505859375,0.002443459117785096,0.002443459117785096,-0.0015271619195118546
1781792855245208300,19.128208251953126,0.003283398225903511,0,-0.003283398225903511
1781792855293731800,19.17673193359375,0.00022907429956831038,-0.0015271619195118546,-0.004734201822429895
1781792855342255400,19.22525537109375,0.002290742937475443,-0.003359756199643016,-0.006719512399286032
1781792855390779000,19.27377880859375,0.0009162971982732415,-0.001450803829357028,-0.00755945174023509
1781792855439302400,19.322302490234375,0.00007635809743078426,0.0015271619195118546,-0.008170315995812416
1781792855487826000,19.370825927734376,-0.000305432389723137,0.001221729558892548,-0.007941242307424545
1781792855584873000,19.467873046875,-0.0019853105768561363,0.003970621153712273,-0.007635809946805239
1781792855633396200,19.516396240234375,0.00022907429956831038,0.0032070400193333626,-0.007635809946805239
1781792855681919700,19.564919677734373,-0.0013744457392022014,0.009926552884280682,-0.008017600513994694
1781792855730443300,19.613443359375,-0.0015271619195118546,0.0025961752980947495,-0.003665188793092966
1781792855778966500,19.661966552734373,-0.000610864779446274,-0.00007635809743078426,-0.003283398225903511
1781792855827490300,19.710490234375,0.00045814859913662076,-0.004963276442140341,-0.008399390615522861
1781792855876013800,19.759013916015626,0.002672533504664898,-0.006719512399286032,-0.006566796451807022
1781792855924537000,19.807537109375,0.003741546766832471,-0.005803215317428112,-0.007941242307424545
1781792855973060600,19.856060546875,0.001450803829357028,-0.006108647678047419,-0.008628465235233307
1781792856021584100,19.904584228515624,0.002443459117785096,-0.003970621153712273,-0.005574141163378954
1781792856070107600,19.953107666015626,0.001832594396546483,-0.0019089524867013097,-0.007330377586185932
1781792856118631200,20.001631103515624,0.0030543238390237093,-0.000305432389723137,-0.004963276442140341
1781792856167154700,20.05015478515625,0.002901607658714056,0.0007635809597559273,-0.0057268571108579636
1781792856215678000,20.098677978515624,0.000610864779446274,-0.00045814859913662076,-0.004963276442140341
1781792856264201500,20.147201416015626,0.001450803829357028,0.006414080038666725,-0.003665188793092966
1781792856312725000,20.19572509765625,0.000839939049910754,0.008933897130191326,-0.002443459117785096
1781792856361248500,20.24424853515625,-0.0001527161948615685,0.00954476185142994,-0.0015271619195118546
1781792856409772000,20.29277197265625,-0.0009926552884280682,0.007254019379615784,-0.002290742937475443
1781792856458295600,20.341295654296875,-0.000610864779446274,0.004810560029000044,-0.000610864779446274
1781792856506818800,20.38981884765625,0,0.004810560029000044,-0.000610864779446274
1781792856555342300,20.43834228515625,-0.004276053514331579,0.0054977829568088055,0.0015271619195118546
1781792856603866000,20.4868662109375,-0.0019853105768561363,0.0011453714687377214,0.002825249684974551
1781792856652389400,20.535389404296875,-0.0011453714687377214,-0.002672533504664898,-0.001221729558892548
1781792856700913000,20.583912841796874,0.0012980876490473747,-0.01000291109085083,-0.003512472379952669
1781792856749436400,20.6324365234375,-0.0013744457392022014,-0.016569707542657852,0.00038179047987796366
1781792856797959700,20.680959716796874,-0.0001527161948615685,-0.011911863461136818,-0.003894262947142124
1781792856846483200,20.729483154296876,-0.0007635809597559273,-0.001679878099821508,0.00038179047987796366
1781792856895007000,20.778007080078126,-0.0017562361899763346,0.004276053514331579,0.000305432389723137
1781792856943530200,20.8265302734375,-0.0011453714687377214,0.007024944759905338,0.0005345066892914474
1781792856992053800,20.8750537109375,0.0010690133785828948,0.010766491293907166,-0.000839939049910754
1781792857040577300,20.923577392578125,0.002443459117785096,0.004657844081521034,0.00038179047987796366
1781792857089100800,20.972100830078126,0.000305432389723137,-0.0057268571108579636,0.00038179047987796366
1781792857137624000,21.0206240234375,-0.0025961752980947495,-0.04825831577181816,0.004886918235570192
1781792857186147600,21.069147705078127,-0.0025961752980947495,-0.11636973917484283,0.017256930470466614
1781792857234671000,21.117671142578125,0.003741546766832471,-0.16050471365451813,0.009697478264570236
1781792857283194600,21.166194580078123,0.006566796451807022,-0.14401137828826904,-0.004581485874950886
1781792857331718100,21.21471826171875,0.009773836471140385,-0.10659590363502502,-0.00679587060585618
1781792857380241700,21.26324169921875,0.003283398225903511,-0.06597339361906052,0.005421424750238657
1781792857428765000,21.311764892578125,0.0009162971982732415,-0.0102319847792387,0.0066431546583771706
1781792857477288400,21.360288330078124,-0.007330377586185932,0.05367974191904068,0.0034361144062131643
1781792857525812000,21.40881201171875,-0.006490438245236874,0.10567960888147354,-0.000610864779446274
1781792857574335500,21.45733544921875,-0.013133592903614044,0.13454297184944153,-0.0030543238390237093
1781792857622859000,21.50585888671875,-0.00954476185142994,0.12950333952903748,0.013133592903614044
1781792857671382500,21.554382568359376,-0.00954476185142994,0.1029307171702385,0.005421424750238657
1781792857719905800,21.60290576171875,-0.009697478264570236,0.06963858753442764,-0.008552107028663158
1781792857768429300,21.65142919921875,-0.0013744457392022014,0.03940077871084213,-0.01206457894295454
1781792857816952800,21.699952880859374,0.0021380267571657896,0.022983787581324577,-0.01740964688360691
1781792857865476000,21.74847607421875,0.003665188793092966,0.00603228947147727,-0.01954767294228077
1781792857913999600,21.79699951171875,0.004886918235570192,-0.011606430634856224,-0.015347977168858051
1781792857962523400,21.8455234375,0.006566796451807022,-0.01695149764418602,-0.015577051788568497
1781792858011046700,21.894046630859375,0.003359756199643016,-0.01588248461484909,-0.01649334840476513
1781792858059570200,21.942570068359377,0.006337722297757864,-0.01649334840476513,-0.008628465235233307
1781792858108093700,21.99109375,0.004123337101191282,-0.02000582218170166,-0.003970621153712273
1781792858156617000,22.039616943359373,0.006414080038666725,-0.02328922040760517,-0.0015271619195118546
1781792858205140500,22.088140380859375,0.007635809946805239,-0.008628465235233307,-0.0102319847792387
1781792858253664000,22.1366640625,0.01206457894295454,0.013820815831422806,-0.010461059398949146
1781792858302187500,22.1851875,0.014126247726380825,0.033979352563619614,-0.015347977168858051
1781792858350710800,22.233710693359374,0.00679587060585618,0.034208428114652634,-0.018784092739224434
1781792858399234300,22.282234375,0.007330377586185932,0.02741255611181259,-0.01718057133257389
1781792858447757800,22.3307578125,0.0054977829568088055,0.009926552884280682,-0.011453714221715927
1781792858496281300,22.37928125,0.005803215317428112,-0.018631376326084137,-0.006719512399286032
1781792858544804900,22.427804931640626,0.007024944759905338,-0.05192350596189499,-0.0009162971982732415
1781792858593328400,22.476328369140624,0.0019089524867013097,-0.064598947763443,-0.002672533504664898
1781792858641851600,22.5248515625,0.003665188793092966,-0.06436987966299057,-0.003665188793092966
1781792858690375200,22.573375244140625,0.008246674202382565,-0.05558869615197182,-0.001832594396546483
1781792858738898700,22.621898681640626,0.01206457894295454,-0.03428478538990021,-0.003665188793092966
1781792858787422000,22.670421875,0.00511599238961935,-0.007406735327094793,-0.006566796451807022
1781792858835945500,22.718945556640627,0.0030543238390237093,-0.008246674202382565,0.006108647678047419
1781792858884469000,22.767468994140625,0.00007635809743078426,-0.001679878099821508,0.005803215317428112
1781792858932992300,22.8159921875,0.004352411720901728,0.029703300446271896,-0.01000291109085083
1781792858981515800,22.864515869140625,0.000610864779446274,0.057955797761678696,-0.010461059398949146
1781792859030039300,22.913039306640623,-0.003665188793092966,0.06146826967597008,0.0062613640911877155
1781792859078562600,22.9615625,-0.007635809946805239,0.0360410213470459,0.011530072428286076
1781792859127086000,23.010086181640624,-0.006414080038666725,-0.003283398225903511,0.009697478264570236
1781792859175609600,23.058609619140626,-0.004199695307761431,-0.021838415414094925,-0.004276053514331579
1781792859224132900,23.1071328125,-0.0015271619195118546,-0.008017600513994694,-0.007635809946805239
1781792859272656400,23.155656494140626,-0.0021380267571657896,0.013820815831422806,-0.003741546766832471
1781792859321180200,23.20418017578125,-0.0034361144062131643,0.02909243479371071,-0.00022907429956831038
1781792859369703400,23.252703369140626,-0.005650499369949102,0.029016077518463135,0.0007635809597559273
1781792859418227000,23.30122705078125,-0.006719512399286032,0.021914774551987648,0.002825249684974551
1781792859466750500,23.34975048828125,-0.009315688163042068,0.00847574882209301,0.0058795735239982605
1781792859515273700,23.398273681640624,-0.011530072428286076,-0.010995565913617611,0.0062613640911877155
1781792859563797200,23.44679736328125,-0.0054977829568088055,-0.01802051067352295,0.005803215317428112
1781792859612320800,23.49532080078125,-0.0019853105768561363,-0.018402300775051117,0.0009926552884280682
1781792859660844300,23.54384423828125,0.0010690133785828948,-0.012904518283903599,-0.002901607658714056
1781792859709367600,23.592367431640625,-0.0007635809597559273,-0.003283398225903511,-0.000610864779446274
1781792859757891000,23.64089111328125,-0.003359756199643016,0.007483093533664942,0.00038179047987796366
1781792859806414600,23.68941455078125,-0.001832594396546483,0.01870773360133171,-0.0027488914784044027
1781792859854937900,23.737937744140623,-0.0019853105768561363,0.0038179049734026194,0.0015271619195118546
1781792859903461400,23.78646142578125,-0.000305432389723137,-0.03222311660647392,0.00603228947147727
1781792859951984600,23.834984619140624,0.0030543238390237093,-0.04848739132285118,0.0038179049734026194
1781792860000508000,23.8835078125,0.004734201822429895,-0.006566796451807022,-0.012675444595515728
1781792860049031400,23.932031494140624,0.0030543238390237093,0.05528326332569122,-0.013057234697043896
1781792860097555000,23.980554931640626,-0.0017562361899763346,0.07490729540586472,-0.0027488914784044027
1781792860146078200,24.029078125,-0.006719512399286032,0.028099779039621353,0.010155626572668552
1781792860194601700,24.077601806640626,-0.0009162971982732415,-0.046883873641490936,0.007941242307424545
1781792860243125200,24.126125244140624,0.0021380267571657896,-0.056657709181308746,-0.011911863461136818
1781792860291648500,24.1746484375,0.0057268571108579636,0.000610864779446274,-0.016340631991624832
1781792860340172000,24.223172119140624,0.0015271619195118546,0.04153880476951599,-0.0030543238390237093
1781792860388695600,24.271695556640626,-0.0062613640911877155,0.019929463043808937,0.007483093533664942
1781792860437218800,24.32021875,-0.0001527161948615685,-0.030772313475608826,-0.001221729558892548
1781792860485742300,24.368742431640626,0.001832594396546483,-0.027336198836565018,-0.015958841890096664
1781792860534265900,24.417265869140625,0.003359756199643016,0.005650499369949102,-0.008628465235233307
1781792860582789000,24.4657890625,-0.0032070400193333626,0.03451386094093323,0.0025961752980947495
1781792860631312600,24.514312744140625,-0.00603228947147727,0.020693045109510422,0.0021380267571657896
1781792860679836200,24.562836181640623,-0.00038179047987796366,-0.004123337101191282,-0.004963276442140341
1781792860728359400,24.611359375,0.000610864779446274,-0.010384701192378998,-0.0102319847792387
1781792860776882700,24.659882568359375,0.002290742937475443,0.0025961752980947495,-0.011911863461136818
1781792860825406200,24.70840625,0.0015271619195118546,0.023976443335413933,-0.008552107028663158
1781792860873929500,24.756929443359375,0.000305432389723137,0.023518294095993042,-0.0054977829568088055
1781792860922453000,24.805452880859374,-0.0019853105768561363,0.008933897130191326,-0.002443459117785096
1781792860970976500,24.8539765625,0.000610864779446274,-0.013133592903614044,-0.0009162971982732415
1781792861019499800,24.902499755859374,-0.000305432389723137,-0.026878049597144127,-0.0030543238390237093
1781792861068023300,24.951023193359376,0.001221729558892548,-0.030543239787220955,-0.001679878099821508
1781792861116546800,24.999546875,0.000610864779446274,-0.022296564653515816,0.004199695307761431
1781792861165070000,25.048070068359376,0.0019089524867013097,-0.01695149764418602,-0.000305432389723137
1781792861213593300,25.09659326171875,0.0021380267571657896,-0.010079269297420979,-0.005345067009329796
1781792861262116900,25.145116943359376,0.0010690133785828948,0.001221729558892548,-0.003665188793092966
1781792861310640400,25.193640380859375,-0.000305432389723137,0.018631376326084137,-0.0015271619195118546
1781792861359163600,25.24216357421875,0.00022907429956831038,0.027488915249705315,-0.00007635809743078426
1781792861407687200,25.290687255859375,-0.001221729558892548,0.026572618633508682,-0.0031306820455938578
1781792861456210400,25.33921044921875,-0.001221729558892548,0.018860450014472008,-0.0015271619195118546
1781792861504733700,25.387733642578127,0.001832594396546483,0.009162971749901772,-0.001679878099821508
1781792861601780700,25.48478076171875,0.0010690133785828948,-0.0054977829568088055,-0.0031306820455938578
1781792861650304000,25.533303955078125,0.001679878099821508,-0.008170315995812416,-0.00679587060585618
1781792861698827500,25.58182763671875,0.002901607658714056,-0.003359756199643016,-0.00755945174023509
1781792861747350800,25.630350830078125,0.003512472379952669,-0.006566796451807022,-0.004886918235570192
1781792861795874000,25.6788740234375,0,-0.006719512399286032,-0.003665188793092966
1781792861844397600,25.7273974609375,0.002061668550595641,-0.016187917441129684,-0.00045814859913662076
1781792861892921000,25.775921142578124,0.0012980876490473747,-0.008628465235233307,-0.004581485874950886
1781792861941444000,25.824444091796874,0.002061668550595641,-0.001832594396546483,-0.004123337101191282
1781792861989967600,25.872967529296876,0.0010690133785828948,0.007635809946805239,-0.003512472379952669
1781792862038491100,25.9214912109375,0.00022907429956831038,0.014660755172371864,-0.004581485874950886
1781792862087014400,25.970014404296876,-0.00038179047987796366,0.01626427471637726,-0.002443459117785096
1781792862135538000,26.018537841796874,-0.001221729558892548,0.009926552884280682,-0.001450803829357028
1781792862184061200,26.067061279296876,-0.0001527161948615685,0.0029779658652842045,-0.001679878099821508
1781792862232584400,26.11558447265625,0.0006872228696011007,-0.0031306820455938578,-0.003359756199643016
1781792862281108000,26.16410791015625,-0.0009162971982732415,-0.005955931730568409,-0.002443459117785096
1781792862329631500,26.212631591796875,0.0006872228696011007,0.000610864779446274,-0.0021380267571657896
1781792862378154800,26.26115478515625,-0.0015271619195118546,0.003970621153712273,-0.002061668550595641
1781792862426678000,26.309677978515627,-0.00038179047987796366,0.0016035200096666813,0
1781792862475201500,26.358201416015625,0.00022907429956831038,-0.004123337101191282,-0.0021380267571657896
1781792862523724800,26.406724853515627,0.001221729558892548,-0.0025198173243552446,-0.0054977829568088055
1781792862572248000,26.455248046875,0.0015271619195118546,-0.0012980876490473747,-0.006337722297757864
1781792862620771600,26.503771484375,0.0010690133785828948,-0.0031306820455938578,-0.004352411720901728
1781792862669294800,26.552294921875,0.00022907429956831038,-0.0057268571108579636,-0.006337722297757864
1781792862717818000,26.600818115234375,0,-0.003283398225903511,-0.003665188793092966
1781792862766341600,26.649341552734374,-0.00038179047987796366,0.0001527161948615685,-0.0025198173243552446
1781792862814865000,26.697864990234375,0.000839939049910754,0.0013744457392022014,-0.005192350596189499
1781792862863388200,26.74638818359375,0.00007635809743078426,-0.00022907429956831038,-0.004276053514331579
1781792862911911700,26.79491162109375,0.00022907429956831038,-0.004123337101191282,-0.004886918235570192
1781792862960435000,26.84343505859375,-0.0007635809597559273,-0.00007635809743078426,-0.006414080038666725
1781792863008958200,26.891958251953124,0.00022907429956831038,0.0021380267571657896,-0.006719512399286032
1781792863057481700,26.940481689453126,-0.000610864779446274,0.0015271619195118546,-0.0054977829568088055
1781792863106005000,26.9890048828125,-0.00038179047987796366,-0.0019089524867013097,-0.005192350596189499
1781792863154528300,27.0375283203125,0.0006872228696011007,-0.003970621153712273,-0.008017600513994694
1781792863203051800,27.0860517578125,0.0030543238390237093,-0.003970621153712273,-0.008399390615522861
1781792863251575000,27.134574951171874,0.001221729558892548,-0.002061668550595641,-0.008857538923621178
1781792863300098300,27.183098388671876,-0.0007635809597559273,0.000610864779446274,-0.006566796451807022
1781792863348621800,27.231621826171875,0.0006872228696011007,0.004886918235570192,-0.0015271619195118546
1781792863397145000,27.28014501953125,-0.0013744457392022014,0.015271619893610477,-0.0031306820455938578
1781792863445668400,27.32866845703125,0.001450803829357028,0.015195261687040329,-0.003359756199643016
1781792863494191900,27.37719189453125,0.0006872228696011007,0.008857538923621178,-0.001832594396546483
1781792863542715100,27.425715087890627,-0.000610864779446274,0.004199695307761431,-0.003359756199643016
1781792863591238400,27.47423828125,0.00007635809743078426,0.011530072428286076,-0.002443459117785096
1781792863639761700,27.52276171875,0.000305432389723137,0.011530072428286076,0.0007635809597559273
1781792863688285000,27.571284912109373,-0.000305432389723137,0.0066431546583771706,-0.000839939049910754
1781792863736808400,27.619808349609375,0.0006872228696011007,-0.007024944759905338,-0.0031306820455938578
1781792863785331700,27.668331787109373,0.001221729558892548,-0.01672242395579815,-0.00045814859913662076
1781792863833855000,27.71685498046875,0.004276053514331579,-0.016340631991624832,-0.0030543238390237093
1781792863882378200,27.765378173828125,0.002672533504664898,-0.007788525894284248,-0.004886918235570192
1781792863930901800,27.81390185546875,0.001221729558892548,-0.0021380267571657896,-0.001221729558892548
1781792863979425000,27.862425048828126,0.000610864779446274,0.0029779658652842045,0.0001527161948615685
1781792864027948300,27.9109482421875,-0.0001527161948615685,0.004276053514331579,-0.0025198173243552446
1781792864076471800,27.959471923828126,0.003359756199643016,0.0030543238390237093,-0.0027488914784044027
1781792864124995000,28.0079951171875,0.001221729558892548,0.0009926552884280682,-0.003665188793092966
1781792864173518300,28.056518310546874,0.0010690133785828948,0.0016035200096666813,-0.0057268571108579636
1781792864222041600,28.10504150390625,0.001832594396546483,0.0058795735239982605,-0.0027488914784044027
1781792864270565000,28.153565185546874,0.0006872228696011007,0.005803215317428112,-0.002672533504664898
1781792864319088000,28.202088134765624,0,0.0019853105768561363,-0.001679878099821508
1781792864367611600,28.250611572265626,0.002061668550595641,0.0009162971982732415,-0.005574141163378954
1781792864416135000,28.299135009765624,0.003283398225903511,0.0017562361899763346,-0.008399390615522861
1781792864464658200,28.347658203125,0.002443459117785096,0.0023671009112149477,-0.003970621153712273
1781792864513181400,28.396181396484376,0.0010690133785828948,-0.00045814859913662076,-0.003665188793092966
1781792864561705000,28.444705078125,0.001221729558892548,-0.0025198173243552446,-0.004276053514331579
1781792864610228000,28.49322802734375,0.0012980876490473747,-0.002901607658714056,-0.0015271619195118546
1781792864658751500,28.54175146484375,0.0010690133785828948,0.0029779658652842045,-0.001832594396546483
1781792864707274800,28.590274658203125,0.001832594396546483,0.0032070400193333626,-0.002290742937475443
1781792864755798000,28.638798095703127,-0.0009926552884280682,0.000305432389723137,-0.005345067009329796
1781792864804321300,28.6873212890625,0.001832594396546483,0.000305432389723137,-0.003665188793092966
1781792864852844500,28.735844482421875,0.0012980876490473747,0.005192350596189499,-0.004886918235570192
1781792864901367800,28.784367919921873,-0.0005345066892914474,0.004199695307761431,-0.0027488914784044027
1781792864949891000,28.83289111328125,0.000839939049910754,-0.006337722297757864,-0.003741546766832471
1781792864998414600,28.88141455078125,0.000839939049910754,-0.007788525894284248,-0.006108647678047419
1781792865046937600,28.9299375,0.001679878099821508,-0.010995565913617611,-0.004734201822429895
1781792865095461000,28.978461181640625,0.000305432389723137,-0.006719512399286032,-0.0057268571108579636
1781792865143984400,29.026984375,-0.0011453714687377214,-0.000610864779446274,-0.004276053514331579
1781792865192507400,29.07550732421875,-0.0005345066892914474,0.0021380267571657896,-0.001221729558892548
1781792865241031000,29.124031005859376,-0.0027488914784044027,0.0029779658652842045,-0.004581485874950886
1781792865289554200,29.17255419921875,0,-0.000610864779446274,-0.002901607658714056
1781792865338077400,29.221077392578124,-0.0015271619195118546,0.000305432389723137,-0.003741546766832471
1781792865386600700,29.2696005859375,-0.001832594396546483,-0.000305432389723137,-0.006337722297757864
1781792865435124000,29.3181240234375,0.000839939049910754,0.003665188793092966,-0.006337722297757864
1781792865483647200,29.366647216796874,-0.0019853105768561363,0.0029779658652842045,-0.005803215317428112
1781792865532170500,29.41517041015625,-0.0007635809597559273,0.003665188793092966,-0.003512472379952669
1781792865580694000,29.463694091796874,-0.0005345066892914474,-0.004734201822429895,-0.004505127668380737
1781792865629217000,29.512217041015624,-0.001832594396546483,-0.005955931730568409,-0.006337722297757864
1781792865677740300,29.560740234375,0.000305432389723137,-0.008857538923621178,-0.0025198173243552446
1781792865726263800,29.609263916015625,-0.001221729558892548,-0.000305432389723137,-0.001221729558892548
1781792865774786800,29.657786865234375,-0.0032070400193333626,0.009315688163042068,-0.00022907429956831038
1781792865823310000,29.70631005859375,-0.005192350596189499,0.014660755172371864,0.0027488914784044027
1781792865871833600,29.75483349609375,-0.0009926552884280682,-0.0021380267571657896,0.00847574882209301
1781792865920356600,29.803356689453125,0.002443459117785096,-0.030390523374080658,0.002443459117785096
1781792865968879900,29.8518798828125,0.0015271619195118546,-0.041615162044763565,-0.005345067009329796
1781792866017403400,29.9004033203125,0.008017600513994694,-0.03817904740571976,0.0007635809597559273
1781792866065926400,29.948926513671875,0.008017600513994694,-0.03672824427485466,-0.006719512399286032
1781792866114449700,29.99744970703125,-0.000305432389723137,-0.016798781231045723,0.0001527161948615685
1781792866162973200,30.04597314453125,0.006185005884617567,-0.030772313475608826,0.007101302966475487
1781792866211496200,30.09449609375,0.000839939049910754,-0.0501672700047493,-0.005192350596189499
1781792866260019500,30.14301953125,0.008857538923621178,-0.07452550530433655,-0.004734201822429895
1781792866308542700,30.191542724609373,0.010384701192378998,-0.047952886670827866,0.0017562361899763346
1781792866357066000,30.24006591796875,-0.004657844081521034,0.01870773360133171,0.007024944759905338
1781792866405589200,30.28858935546875,-0.005803215317428112,0.08300124853849411,0.009162971749901772
1781792866454112500,30.337112548828124,-0.004046979360282421,0.11148282140493393,0.0007635809597559273
1781792866502635800,30.3856357421875,-0.008323032408952713,0.09162971377372742,0.0005345066892914474
1781792866551159000,30.434158935546876,-0.012140937149524689,0.05612320080399513,0.003359756199643016
1781792866599682300,30.482682373046874,-0.01282816007733345,0.023594651371240616,0.0066431546583771706
1781792866648205300,30.531205322265624,-0.014660755172371864,-0.0102319847792387,0.013820815831422806
1781792866696728800,30.579728759765626,-0.01763872057199478,-0.03260490670800209,0.016798781231045723
1781792866745252000,30.628252197265624,-0.00847574882209301,-0.04039343446493149,0.014660755172371864
1781792866793775000,30.676775146484374,-0.009697478264570236,-0.03527744114398956,0.004581485874950886
1781792866842298400,30.72529833984375,-0.008093958720564842,-0.030390523374080658,0.010155626572668552
1781792866890822000,30.77382177734375,-0.0025961752980947495,-0.025961752980947495,-0.00511599238961935
1781792866939345000,30.822344970703124,-0.0027488914784044027,-0.00946840364485979,-0.018631376326084137
1781792866987868200,30.8708681640625,-0.0058795735239982605,-0.014737112447619438,-0.002443459117785096
1781792867036391400,30.919391357421876,-0.010995565913617611,-0.01435532234609127,0.009926552884280682
1781792867084914400,30.96791455078125,-0.007635809946805239,0.0016035200096666813,0.004581485874950886
1781792867133438000,31.01643798828125,-0.005803215317428112,0.008246674202382565,-0.003283398225903511
1781792867181961200,31.064961181640626,-0.00946840364485979,0.017104214057326317,0.001221729558892548
1781792867230484200,31.113484130859376,-0.00954476185142994,0.03909534588456154,0.007101302966475487
1781792867279007500,31.162007568359375,-0.004581485874950886,0.04390590637922287,0.0034361144062131643
1781792867327530800,31.21053076171875,0.0009162971982732415,0.028405211865901947,-0.010461059398949146
1781792867376053800,31.2590537109375,-0.004046979360282421,0.0015271619195118546,-0.011682788841426373
1781792867424577300,31.307577392578125,0.000610864779446274,-0.024510949850082397,0.0013744457392022014
1781792867473100500,31.3561005859375,0.002061668550595641,-0.02932151034474373,0.0062613640911877155
1781792867521623600,31.40462353515625,-0.004810560029000044,-0.019853105768561363,0.002443459117785096
1781792867570146800,31.453146728515627,-0.002825249684974551,-0.003512472379952669,0.003665188793092966
1781792867618670000,31.501670166015625,0.007406735327094793,0.011530072428286076,-0.014508038759231567
1781792867667193000,31.550193115234375,0.005574141163378954,0.01565340906381607,-0.015500693581998348
1781792867715716600,31.598716552734373,-0.005268708802759647,0.028099779039621353,0.0027488914784044027
1781792867764240000,31.647239990234375,-0.008933897130191326,0.0651334598660469,0.016646064817905426
1781792867812763000,31.695762939453125,-0.011530072428286076,0.12476912885904312,0.013439024798572063
1781792867861286100,31.7442861328125,-0.012751801870763302,0.17890702188014984,-0.002061668550595641
1781792867909809400,31.792809326171874,-0.015042545273900032,0.17913609743118286,-0.004352411720901728
1781792867958332400,31.84133251953125,-0.015577051788568497,0.16424626111984253,-0.012217295356094837
1781792868006855700,31.889855712890625,-0.020922118797898293,0.11827868968248367,-0.008628465235233307
1781792868055379000,31.93837890625,-0.013133592903614044,0.049861837178468704,-0.008628465235233307
1781792868103902000,31.98690185546875,0.003512472379952669,-0.04199695214629173,-0.0054977829568088055
1781792868152425200,32.03542529296875,0.018173227086663246,-0.11224640160799026,-0.011911863461136818
1781792868200948500,32.083948486328126,0.024892739951610565,-0.1331685185432434,-0.03237583488225937
1781792868249471700,32.1324716796875,0.028405211865901947,-0.12431098520755768,-0.047723811119794846
1781792868297995000,32.1809951171875,0.018555017188191414,-0.13041962683200836,-0.037491824477910995
1781792868346518300,32.22951831054687,0.015271619893610477,-0.17333288490772247,0.001221729558892548
1781792868395041300,32.27804125976562,0.015577051788568497,-0.20311254262924194,0.020082179456949234
1781792868443564500,32.326564453125,0.006566796451807022,-0.15760311484336853,0.00038179047987796366
1781792868492087800,32.375087890625,-0.0009926552884280682,-0.053756099194288254,0.0009162971982732415
1781792868540610800,32.42361083984375,0.0012980876490473747,0.04558578506112099,0.011988221667706966
1781792868589134000,32.472134033203126,-0.012751801870763302,0.10690133273601532,0.01893680728971958
1781792868637657300,32.5206572265625,-0.014584396965801716,0.11522436887025833,0.024205517023801804
1781792868686180400,32.56918041992188,-0.018631376326084137,0.12400554865598679,0.010766491293907166
1781792868734703600,32.61770361328125,-0.008857538923621178,0.09132428467273712,0.012751801870763302
1781792868783227000,32.66622680664062,-0.008093958720564842,0.06757691502571106,0.0007635809597559273
1781792868831750000,32.71475,-0.0038179049734026194,0.02519817277789116,0.0030543238390237093
1781792868880273200,32.763273193359375,-0.0027488914784044027,-0.006185005884617567,0.003359756199643016
1781792868928796400,32.81179638671875,-0.006414080038666725,-0.027947064489126205,0.0009162971982732415
1781792868977319400,32.8603193359375,-0.0013744457392022014,-0.03627009689807892,-0.006185005884617567
1781792869025842700,32.9088427734375,0.0012980876490473747,-0.03481929376721382,-0.005574141163378954
1781792869074366000,32.95736596679688,-0.0027488914784044027,-0.027717988938093185,0.004581485874950886
1781792869122889000,33.00588891601563,-0.00603228947147727,-0.0191658828407526,-0.0006872228696011007
1781792869171412200,33.054412109375,-0.004199695307761431,-0.009392046369612217,-0.003359756199643016
1781792869219935500,33.102935546875,-0.004199695307761431,-0.002672533504664898,0.0021380267571657896
1781792869268458500,33.15145849609375,-0.005803215317428112,0.0062613640911877155,-0.0025198173243552446
1781792869316981800,33.199981689453125,-0.007635809946805239,0.010690134018659592,0.0027488914784044027
1781792869365504800,33.2485048828125,-0.007254019379615784,0.010079269297420979,0.003359756199643016
1781792869414028000,33.29702807617188,-0.005268708802759647,0.008323032408952713,-0.004505127668380737
1781792869462551300,33.34555126953125,-0.0019853105768561363,-0.0006872228696011007,0.00038179047987796366
1781792869511074300,33.39407421875,-0.004657844081521034,0.0009162971982732415,-0.004123337101191282
1781792869559597600,33.44259765625,-0.005421424750238657,0.0016035200096666813,-0.001221729558892548
1781792869608120800,33.49112084960937,-0.005039634648710489,-0.001679878099821508,0.004657844081521034
1781792869656643800,33.53964379882812,-0.008093958720564842,0.0029779658652842045,0.0034361144062131643
1781792869705167000,33.5881669921875,-0.005268708802759647,-0.000305432389723137,0.000610864779446274
1781792869753690400,33.6366904296875,-0.001832594396546483,-0.0009162971982732415,-0.002443459117785096
1781792869802213400,33.68521337890625,-0.0034361144062131643,0,-0.0027488914784044027
1781792869850736400,33.733736328125,-0.0015271619195118546,-0.000305432389723137,-0.001679878099821508
1781792869899259600,33.782259765625,-0.0023671009112149477,0.005650499369949102,-0.003283398225903511
1781792869947782700,33.83078271484375,-0.0019853105768561363,0.005421424750238657,0.0017562361899763346
1781792869996306000,33.87930590820312,-0.0025961752980947495,0.007635809946805239,0.0015271619195118546
1781792870044829200,33.9278291015625,-0.000305432389723137,0.004046979360282421,-0.0006872228696011007
1781792870093352200,33.976352294921874,-0.0009162971982732415,0.0005345066892914474,-0.000839939049910754
1781792870141875500,34.02487548828125,-0.001221729558892548,0.009926552884280682,-0.0030543238390237093
1781792870190398700,34.073398681640626,0.002443459117785096,0.009162971749901772,-0.0027488914784044027
1781792870238921700,34.121921630859376,-0.0027488914784044027,0.008933897130191326,0.002443459117785096
1781792870287444700,34.17044482421875,-0.0015271619195118546,0,0.0038179049734026194
1781792870335968000,34.21896801757813,-0.00038179047987796366,-0.0031306820455938578,0.0013744457392022014
1781792870384491000,34.26749096679688,0.000305432389723137,-0.004505127668380737,0
1781792870433014300,34.31601416015625,0.001679878099821508,-0.004886918235570192,-0.004352411720901728
1781792870481537500,34.36453759765625,0.0019089524867013097,-0.003665188793092966,-0.005803215317428112
1781792870530060500,34.413060546875,0.0010690133785828948,-0.003894262947142124,-0.004581485874950886
1781792870578583600,34.46158349609375,-0.0007635809597559273,0.0007635809597559273,-0.003970621153712273
1781792870627106800,34.51010693359375,0.000839939049910754,0.0019853105768561363,-0.006185005884617567
1781792870675629800,34.5586298828125,0.002672533504664898,0.0017562361899763346,-0.008017600513994694
1781792870724153000,34.607153076171876,0.0027488914784044027,-0.001679878099821508,-0.008017600513994694
1781792870772676400,34.65567626953125,0.003894262947142124,0.004428769461810589,-0.00923932995647192
1781792870821199400,34.70419946289063,0.0031306820455938578,-0.000610864779446274,-0.007330377586185932
1781792870869722400,34.75272241210938,0.0025198173243552446,-0.0027488914784044027,-0.006185005884617567
1781792870918245600,34.80124560546875,0.004352411720901728,-0.00755945174023509,-0.009850194677710533
1781792870966768600,34.8497685546875,0.0057268571108579636,-0.008170315995812416,-0.013668099418282509
1781792871015292000,34.8982919921875,0.008170315995812416,-0.005574141163378954,-0.015271619893610477
1781792871063815200,34.946815185546875,0.0054977829568088055,-0.004276053514331579,-0.013439024798572063
1781792871112338000,34.995337890625,0.007177661173045635,-0.002290742937475443,-0.01435532234609127
1781792871160861200,35.043861083984375,0.00755945174023509,-0.0027488914784044027,-0.013515383005142212
1781792871209384400,35.09238452148438,0.007330377586185932,-0.0025198173243552446,-0.01511890348047018
1781792871257907500,35.14090747070313,0.007941242307424545,0.000305432389723137,-0.017104214057326317
1781792871306430500,35.18943041992188,0.006414080038666725,0.001221729558892548,-0.015577051788568497
1781792871354953500,35.23795336914063,0.004276053514331579,-0.0015271619195118546,-0.01588248461484909
1781792871403476700,35.28647680664063,0.008170315995812416,0.0023671009112149477,-0.018784092739224434
1781792871452000000,35.335,0.008552107028663158,0.007941242307424545,-0.018173227086663246
1781792871500523000,35.38352294921875,0.004352411720901728,0.004199695307761431,-0.014660755172371864
1781792871549046000,35.4320458984375,0.002901607658714056,-0.003970621153712273,-0.007330377586185932
1781792871597569300,35.4805693359375,-0.0005345066892914474,-0.006566796451807022,-0.007941242307424545
1781792871646092300,35.52909228515625,0.002290742937475443,-0.008170315995812416,-0.010079269297420979
1781792871694615300,35.577615234375,0.0021380267571657896,-0.0054977829568088055,-0.009773836471140385
1781792871743138600,35.626138671875,0.0019089524867013097,-0.004886918235570192,-0.007788525894284248
1781792871791661600,35.67466162109375,0.002290742937475443,0.000610864779446274,-0.006948587018996477
1781792871840184800,35.72318481445313,-0.0035888305865228176,0.004276053514331579,-0.0019089524867013097
1781792871888707800,35.77170776367188,-0.0005345066892914474,0.0030543238390237093,0
1781792871937230800,35.82023095703125,0.000839939049910754,0.0009926552884280682,-0.004963276442140341
1781792871985754000,35.86875415039062,-0.0005345066892914474,-0.002061668550595641,-0.004276053514331579
1781792872034277000,35.91727709960937,-0.000610864779446274,-0.000610864779446274,-0.003283398225903511
1781792872082800000,35.96580004882812,-0.001832594396546483,0.004428769461810589,-0.0006872228696011007
1781792872131323400,36.014323486328124,-0.0021380267571657896,0.005268708802759647,0.0030543238390237093
1781792872179846700,36.0628466796875,-0.005192350596189499,0.004428769461810589,0.004886918235570192
1781792872228369400,36.111369384765624,-0.005268708802759647,0.0022143847309052944,0.003970621153712273
1781792872276892700,36.159892578125,-0.0029779658652842045,-0.0012980876490473747,0.003665188793092966
1781792872325416000,36.208416015625,-0.0022143847309052944,0.001221729558892548,0.0027488914784044027
1781792872373938700,36.256938720703126,-0.004046979360282421,0.000305432389723137,0.0022143847309052944
1781792872422462000,36.3054619140625,-0.0027488914784044027,-0.00045814859913662076,0.004276053514331579
1781792872470985200,36.35398510742188,-0.005268708802759647,-0.00007635809743078426,0.0062613640911877155
1781792872519508000,36.40250805664063,-0.004046979360282421,-0.0012980876490473747,0.0066431546583771706
1781792872568031200,36.45103125,-0.004657844081521034,-0.002061668550595641,0.005192350596189499
1781792872616554500,36.49955444335937,-0.004276053514331579,-0.005955931730568409,0.0030543238390237093
1781792872665077200,36.5480771484375,-0.0029779658652842045,-0.002672533504664898,0.0015271619195118546
1781792872713600500,36.5966005859375,-0.0038179049734026194,0.004810560029000044,0.004046979360282421
1781792872762123500,36.64512353515625,-0.006108647678047419,0.004276053514331579,0.005803215317428112
1781792872810646500,36.693646484375,-0.00603228947147727,0.0011453714687377214,0.0077121676877141
1781792872859169800,36.742169677734374,-0.005268708802759647,0.004046979360282421,0.004581485874950886
1781792872907692800,36.79069287109375,-0.006414080038666725,0.000305432389723137,0.008552107028663158
1781792872956215800,36.8392158203125,-0.0054977829568088055,-0.0027488914784044027,0.004886918235570192
1781792873004739000,36.887739013671876,-0.004581485874950886,-0.006948587018996477,0.001832594396546483
1781792873053262000,36.936261962890626,-0.004199695307761431,-0.003894262947142124,0.004046979360282421
1781792873101785000,36.98478515625,-0.003359756199643016,-0.0012980876490473747,0.0021380267571657896
1781792873150308000,37.03330810546875,-0.0034361144062131643,0.0021380267571657896,0.0021380267571657896
1781792873198831000,37.0818310546875,-0.002443459117785096,0.0001527161948615685,0.00038179047987796366
1781792873247354400,37.13035424804688,-0.003665188793092966,-0.003359756199643016,0
1781792873295877400,37.17887744140625,-0.0017562361899763346,-0.0054977829568088055,-0.001679878099821508
1781792873344400400,37.227400390625,0.0019089524867013097,0.003970621153712273,-0.006337722297757864
1781792873392923400,37.27592333984375,0.000839939049910754,0.005192350596189499,-0.005345067009329796
1781792873441446700,37.32444677734375,0.0012980876490473747,0.0032070400193333626,-0.00022907429956831038
1781792873489969400,37.37296948242187,-0.0025961752980947495,-0.000305432389723137,-0.004123337101191282
1781792873538492700,37.42149267578125,0.0009162971982732415,-0.002672533504664898,-0.0009162971982732415
1781792873587016000,37.470015869140624,0.0006872228696011007,0.000305432389723137,-0.003665188793092966
1781792873635538700,37.51853857421875,-0.0009926552884280682,-0.00045814859913662076,-0.003665188793092966
1781792873684062000,37.56706201171875,0.00045814859913662076,0.00038179047987796366,-0.002061668550595641
1781792873732585000,37.6155849609375,-0.0009162971982732415,-0.0015271619195118546,-0.0012980876490473747
1781792873781108000,37.66410791015625,0.00022907429956831038,-0.002672533504664898,-0.0019089524867013097
1781792873829631000,37.712630859375,-0.0005345066892914474,-0.0009162971982732415,-0.002443459117785096
1781792873878154200,37.761154296875,-0.0009926552884280682,0.00038179047987796366,-0.0010690133785828948
1781792873926677000,37.809677001953126,-0.0009926552884280682,-0.0010690133785828948,-0.0015271619195118546
1781792873975200300,37.8582001953125,0.00022907429956831038,0.004199695307761431,-0.004123337101191282
1781792874023723300,37.90672314453125,-0.000610864779446274,0.002825249684974551,-0.002443459117785096
1781792874072246300,37.95524633789063,-0.004276053514331579,0.0021380267571657896,0.0021380267571657896
1781792874120769300,38.00376928710938,-0.0027488914784044027,-0.003665188793092966,-0.00022907429956831038
1781792874169292300,38.05229223632813,-0.0009162971982732415,-0.003741546766832471,-0.004123337101191282
1781792874217815300,38.10081518554688,-0.0009162971982732415,-0.004886918235570192,-0.003283398225903511
1781792874266338600,38.14933862304687,-0.002443459117785096,-0.003970621153712273,-0.0015271619195118546
1781792874314861600,38.19786157226562,-0.0023671009112149477,-0.0012980876490473747,-0.0025198173243552446
1781792874363384600,38.24638452148437,-0.002825249684974551,0.0019853105768561363,0.0009162971982732415
1781792874411907600,38.29490747070312,-0.006490438245236874,0.0009926552884280682,0.0054977829568088055
1781792874460430600,38.3434306640625,-0.005421424750238657,-0.0019089524867013097,0.0054977829568088055
1781792874508953600,38.39195361328125,-0.002825249684974551,-0.000839939049910754,0.0017562361899763346
1781792874557476900,38.440476806640625,0.000610864779446274,-0.003741546766832471,0.00038179047987796366
1781792874605999600,38.48899951171875,-0.0007635809597559273,-0.0031306820455938578,-0.002061668550595641
1781792874654523000,38.53752294921875,-0.0009926552884280682,0.0009162971982732415,-0.002443459117785096
1781792874703046000,38.5860458984375,-0.0015271619195118546,-0.0019089524867013097,0.0009926552884280682
1781792874751569000,38.63456884765625,-0.0017562361899763346,-0.0015271619195118546,0.001221729558892548
1781792874800092000,38.683091796875,-0.0038179049734026194,-0.003512472379952669,-0.0015271619195118546
1781792874848615200,38.731615234375,-0.0013744457392022014,-0.005574141163378954,-0.0010690133785828948
1781792874897138000,38.78013793945313,-0.001221729558892548,-0.005803215317428112,0
1781792874945661200,38.8286611328125,-0.004046979360282421,-0.002672533504664898,-0.0009162971982732415
1781792874994184200,38.87718408203125,-0.0035888305865228176,0.001832594396546483,0.0007635809597559273
1781792875042707000,38.92570703125,-0.006108647678047419,0.0062613640911877155,0.003970621153712273
1781792875091230200,38.97423022460937,-0.004810560029000044,0.008857538923621178,0.0034361144062131643
1781792875139753200,39.02275317382812,-0.003970621153712273,0.007483093533664942,0.005650499369949102
1781792875188276200,39.07127612304687,-0.005039634648710489,0.004276053514331579,0.0066431546583771706
1781792875236799200,39.11979931640625,-0.004581485874950886,0.0058795735239982605,0.001221729558892548
1781792875285322200,39.168322265625,-0.0023671009112149477,0.006719512399286032,0.0021380267571657896
1781792875333845200,39.21684521484375,-0.0025961752980947495,0.001832594396546483,0.0025961752980947495
1781792875382368300,39.2653681640625,-0.004199695307761431,-0.0015271619195118546,0.002443459117785096
1781792875430891300,39.31389135742187,-0.004581485874950886,-0.003665188793092966,0.0034361144062131643
1781792875479414300,39.36241430664062,-0.002443459117785096,-0.003359756199643016,0.003665188793092966
1781792875527937500,39.4109375,-0.0019853105768561363,0.0007635809597559273,0.0016035200096666813
1781792875576460300,39.45946020507812,0.001221729558892548,0.003359756199643016,-0.0012980876490473747
1781792875624983300,39.5079833984375,-0.0030543238390237093,0.009697478264570236,-0.003512472379952669
1781792875673506600,39.556506591796875,-0.0021380267571657896,0.010537417605519295,-0.001450803829357028
1781792875722029300,39.605029296875,-0.002443459117785096,0.012217295356094837,0.0023671009112149477
1781792875770552600,39.653552490234375,-0.0030543238390237093,0.014049889519810677,-0.001832594396546483
1781792875819075600,39.70207568359375,0.00022907429956831038,0.01030834298580885,-0.009162971749901772
1781792875867598300,39.750598388671875,0.001679878099821508,0.014584396965801716,-0.012675444595515728
1781792875916121600,39.79912158203125,0.001221729558892548,0.00603228947147727,-0.003741546766832471
1781792875964644600,39.84764453125,-0.002825249684974551,-0.0009162971982732415,0.005803215317428112
1781792876013167400,39.89616748046875,-0.004428769461810589,-0.007635809946805239,0.006872228812426329
1781792876061690600,39.94469067382813,0.00022907429956831038,-0.008170315995812416,0.0021380267571657896
1781792876110213600,39.99321362304688,0.0015271619195118546,-0.006414080038666725,-0.0009162971982732415
1781792876158736400,40.041736328125,0.003359756199643016,-0.003741546766832471,-0.00511599238961935
1781792876207259600,40.090259765625,0.004581485874950886,-0.002061668550595641,-0.01206457894295454
1781792876255782700,40.13878271484375,0.005192350596189499,0.0027488914784044027,-0.0102319847792387
1781792876304305700,40.1873056640625,0.005955931730568409,-0.0012980876490473747,-0.008628465235233307
1781792876352828700,40.23582861328125,0.006108647678047419,-0.0027488914784044027,-0.017333287745714188
1781792876401351700,40.2843515625,0.000305432389723137,0.013133592903614044,-0.03565923124551773
1781792876449874700,40.33287475585937,0.004276053514331579,0.029626941308379173,-0.0527634471654892
1781792876498397700,40.38139770507812,0.012675444595515728,0.043142326176166534,-0.06627883017063141
1781792876546920400,40.42992041015625,0.027488915249705315,0.06528617441654205,-0.08513928204774857
1781792876595443700,40.47844360351562,0.06436987966299057,0.08910989761352539,-0.08315397053956985
1781792876643966700,40.526966796875,0.05436696484684944,0.13660463690757751,-0.05933023989200592
1781792876692489500,40.57548950195312,0.057497646659612656,0.15057817101478577,-0.03504836559295654
1781792876741012500,40.62401245117187,0.04581485688686371,0.13660463690757751,-0.017944153398275375
1781792876789535700,40.67253564453125,0.04787652567028999,0.08910989761352539,-0.013515383005142212
1781792876838058500,40.72105859375,0.03588830679655075,0.06734783947467804,0.010690134018659592
1781792876886581500,40.76958154296875,0.03733910992741585,0.08277218043804169,0.03886627033352852
1781792876935104500,40.8181044921875,0.022678354755043983,0.07574722915887833,0.046196650713682175
1781792876983627500,40.86662744140625,0.02611446939408779,0.009315688163042068,0.04558578506112099
1781792877032150500,40.915150634765624,0.029397867619991302,-0.12034036219120026,-0.0009162971982732415
1781792877080673500,40.963673583984374,0.021227551624178886,-0.2107483446598053,-0.08597921580076218
1781792877129196500,41.012196533203124,0.04955640435218811,-0.235793799161911,-0.08460476994514465
1781792877177719600,41.060719482421874,0.0383317656815052,-0.2897789776325226,-0.1847866028547287
1781792877226242600,41.10924267578125,0.028557928279042244,-0.31665703654289246,-0.22327107191085815
1781792877274765600,41.157765625,0.12163844704627991,-0.3510945439338684,-0.15966477990150452
1781792877323288600,41.20628857421875,0.22036947309970856,-0.47731447219848633,-0.16294817626476288
1781792877371811300,41.254811279296874,0.22785256803035736,-0.6249146461486816,-0.2484692484140396
1781792877420334300,41.303334228515624,0.17394374310970306,-0.5917752385139465,-0.29993459582328796
1781792877468857600,41.351857666015626,0.09720385819673538,-0.4488328993320465,-0.23197589814662933
1781792877517380400,41.40038037109375,0.015958841890096664,-0.3503309488296509,-0.18005239963531494
1781792877565903400,41.4489033203125,-0.024816380813717842,-0.35269805788993835,-0.18692462146282196
1781792877614426400,41.49742626953125,-0.03535379841923714,-0.22853977978229523,-0.23648102581501007
1781792877662949400,41.545949462890626,-0.21051926910877228,0.23044873774051666,-0.40202537178993225
1781792877711472400,41.594472412109376,-0.47983428835868835,0.4468475878238678,-0.523969292640686
1781792877759995400,41.642995361328126,-0.34490951895713806,-0.2537379562854767,-0.2914588451385498
1781792877808518100,41.69151806640625,-0.1476002037525177,-1.0953569412231445,-0.03390299528837204
1781792877857041400,41.74004150390625,-0.3070359230041504,-1.8070143461227417,0.31780239939689636
1781792877905564400,41.788564453125,-0.35590508580207825,-2.2081234455108643,0.6299542784690857
1781792877954087200,41.837087158203126,-0.8103885054588318,-1.979507327079773,0.28435754776000977
1781792878002610200,41.885610107421876,-1.0326669216156006,-2.1047346591949463,0.34811657667160034
1781792878051133200,41.93413330078125,-0.8179479241371155,-2.1040472984313965,0.6586649417877197
1781792878099656200,41.98265625,-0.7150935530662537,-1.6322306394577026,0.6695078015327454
1781792878148179200,42.03117919921875,-0.3497200906276703,-1.362228512763977,0.5790234804153442
1781792878196702200,42.0797021484375,0.11018473654985428,-0.8988111615180969,0.21838416159152985
1781792878245225000,42.128224853515626,0.5174788236618042,-0.7447205185890198,-0.17539454996585846
1781792878293748200,42.17674829101563,0.49999281764030457,-0.7047852277755737,-0.064598947763443
1781792878342271000,42.22527099609375,0.3006218373775482,-0.9770781993865967,0.44318240880966187
1781792878390794000,42.2737939453125,0.0204639695584774,-0.9004910588264465,0.2507599890232086
1781792878439317000,42.32231689453125,-0.30596688389778137,0.2173915058374405,0.2551124095916748
1781792878487840000,42.37084008789063,-0.3615556061267853,-0.16439898312091827,0.32963791489601135
1781792878536363000,42.41936303710938,-0.17363831400871277,0.015577051788568497,-0.2590830326080322
1781792878584886000,42.46788598632813,0.4156171381473541,-0.09086613357067108,-0.49747300148010254
1781792878633408800,42.51640869140625,0.5145772099494934,0.5044979453086853,-0.40714138746261597
1781792878681931800,42.56493188476563,0.4521162807941437,0.6419425010681152,-0.226859912276268
1781792878730454800,42.61345483398438,0.3983601927757263,0.7228057384490967,-0.3468184769153595
1781792878778977800,42.66197778320313,0.27572908997535706,0.4147771894931793,-0.8575014472007751
1781792878827500800,42.71050073242188,-0.3901135325431824,1.0231221914291382,-0.9059888124465942
1781792878876023800,42.75902392578125,-0.697760283946991,1.0760383605957031,-0.26129740476608276
1781792878924546600,42.80754663085938,0.023823726922273636,0.6539307236671448,-0.21693335473537445
1781792878973069600,42.85606958007813,0.15111267566680908,-0.15401428937911987,0.2707658112049103
1781792879021592300,42.90459228515625,0.23892448842525482,-1.6768238544464111,0.9202677607536316
1781792879070115600,42.95311547851563,0.4315759539604187,-2.495077133178711,1.6731586456298828
1781792879118638600,43.001638671875,0.033597562462091446,-1.314581036567688,0.7810669541358948
1781792879167161300,43.05016137695313,-0.8506292104721069,-1.2061525583267212,-0.23648102581501007
1781792879215684400,43.09868432617188,-1.1804962158203125,-1.4054471254348755,0.21716243028640747
1781792879264207400,43.14720727539063,-0.3384190797805786,-1.8752021789550781,0.2943604588508606
1781792879312730000,43.19573022460938,0.3652971386909485,-1.3741402626037598,-0.08987347781658173
1781792879361253400,43.24425341796875,0.6923388838768005,-0.7357866168022156,-0.145614892244339
1781792879409776400,43.2927763671875,0.6665298342704773,-0.685390293598175,0.21784965693950653
1781792879458299100,43.34129907226563,0.16378812491893768,-0.8235220909118652,0.552603542804718
1781792879506822100,43.389822265625,-0.07979421317577362,-0.37430739402770996,-0.05849030241370201
1781792879555345200,43.43834521484375,-0.13416117429733276,0.4534143805503845,0.07574722915887833
1781792879603868000,43.48686791992188,-0.44318240880966187,0.2716057598590851,-0.2660316228866577
1781792879652391000,43.53539086914063,0.33139413595199585,0.1219438835978508,-0.2306014597415924
1781792879700914000,43.58391381835938,0.593149721622467,0.39820748567581177,-0.789466381072998
1781792879749437000,43.63243701171875,0.44295331835746765,0.9569960236549377,-0.39568766951560974
1781792879797960000,43.6809599609375,0.30711227655410767,1.0948224067687988,-0.06017018109560013
1781792879846482700,43.72948266601563,0.10629047453403473,1.3353503942489624,-0.3637699782848358
1781792879895005700,43.77800561523438,0.10163262486457825,0.8673516511917114,-1.0036507844924927
1781792879943528700,43.82652880859375,-0.7128028273582458,1.5423572063446045,-0.9182060956954956
1781792879992051500,43.87505151367188,-0.5551997423171997,1.2351685762405396,-0.2047160565853119
1781792880040574500,43.92357446289063,0.38125598430633545,0.4923570156097412,0.13660463690757751
1781792880089097500,43.97209741210938,0.7254019379615784,-0.9029344916343689,1.1065815687179565
1781792880137620200,44.0206201171875,0.5614610910415649,-2.1928517818450928,1.8881067037582397
1781792880186143200,44.06914331054688,-0.11575887352228165,-0.9883792400360107,0.9538653492927551
1781792880234666200,44.11766625976563,-0.9111811518669128,-0.48472121357917786,-0.2590830326080322
1781792880283189200,44.16618920898438,-1.391702651977539,-0.4264599680900574,0.20479241013526917
1781792880331712300,44.21471215820313,-0.6501128673553467,-1.0189224481582642,0.24900375306606293
1781792880380235300,44.2632353515625,0.18570289015769958,-0.8691078424453735,-0.0985783040523529
1781792880428758000,44.31175805664063,0.9847903847694397,-0.688902735710144,-0.19242240488529205
1781792880477281000,44.36028100585938,0.8918625712394714,-0.9037744402885437,0.23594652116298676
1781792880525803800,44.4088037109375,0.053832460194826126,-0.7728202939033508,0.49082985520362854
1781792880574326800,44.45732690429688,-0.25534147024154663,0.2603811025619507,0.09101885557174683
1781792880622849800,44.50584985351563,-0.5929206013679504,0.602007269859314,0.3304014801979065
1781792880671372500,44.55437255859375,0.006108647678047419,0.7141009569168091,-0.3848448097705841
1781792880719895600,44.6028955078125,0.4970912039279938,0.7268527150154114,-1.1586577892303467
1781792880768418800,44.65141870117188,0.7360920310020447,1.1962260007858276,-0.6152172088623047
1781792880816941600,44.69994165039063,0.39339691400527954,1.7730350494384766,-0.24724751710891724
1781792880865464600,44.74846459960938,0.11453714966773987,1.5867975950241089,-0.4344012141227722
1781792880913987600,44.79698754882813,-0.11881320178508759,1.0216712951660156,-1.0781763792037964
1781792880962510300,44.84551025390625,-0.6621774435043335,1.2471568584442139,-0.9367611408233643
1781792881011033300,44.89403344726563,-0.9679915904998779,0.9693660736083984,-0.19753839075565338
1781792881059556400,44.94255639648438,0.33192864060401917,0.13500112295150757,-0.11759147047996521
1781792881108079000,44.9910791015625,0.8237511515617371,-1.2792272567749023,1.0574069023132324
1781792881156602000,45.03960205078125,0.5418370366096497,-2.6132795810699463,1.8632903099060059
1781792881205125000,45.088125,-0.049861837178468704,-1.5748857259750366,1.0950515270233154
1781792881253648000,45.13664794921875,-0.8669698238372803,-0.8907172083854675,-0.3038288652896881
1781792881302171000,45.1851708984375,-1.564959168434143,-0.4062250852584839,0.291687935590744
1781792881350693600,45.233693603515626,-0.8523091077804565,-0.6837867498397827,0.3092502951622009
1781792881399216600,45.282216552734376,0.22586725652217865,-0.583375871181488,0.1646280586719513
1781792881447739600,45.33073974609375,1.0694714784622192,-0.46860963106155396,0.026419902220368385
1781792881496262400,45.379262451171876,0.8295543789863586,-0.8807142972946167,0.4453204274177551
1781792881544785400,45.427785400390626,-0.16249002516269684,-0.5271763205528259,0.12980876863002777
1781792881593308400,45.476308349609376,-0.18387030065059662,0.7209731340408325,-0.3995055556297302
1781792881641831200,45.5248310546875,-0.31375542283058167,0.8265000581741333,0.33895358443260193
1781792881690354200,45.573354248046876,-0.19585852324962616,1.2037090063095093,-0.4156171381473541
1781792881738877200,45.621877197265626,0.5962040424346924,0.5122864842414856,-0.9250783324241638
1781792881787401000,45.67040087890625,0.7852666974067688,1.0447314977645874,-0.6914989352226257
1781792881835923700,45.718923828125,0.48044514656066895,1.4605013132095337,-0.26679518818855286
1781792881884446700,45.76744677734375,0.37346744537353516,1.3445134162902832,-0.3099375069141388
1781792881932969700,45.8159697265625,-0.10170898586511612,1.3093886375427246,-0.9871574640274048
1781792881981492500,45.86449243164063,-0.7422007322311401,1.0980294942855835,-1.0625993013381958
1781792882030015500,45.91301538085938,-1.080161690711975,0.8171079754829407,-0.3972911834716797
1781792882078538200,45.96153833007813,0.22548545897006989,0.06017018109560013,-0.13935352861881256
1781792882127061200,46.01006127929688,0.45249807834625244,-1.1943169832229614,0.5968148708343506
1781792882175584300,46.05858422851563,0.1795942485332489,-2.8234169483184814,1.6267329454421997
1781792882224107000,46.10710693359375,-0.17157664895057678,-2.120617151260376,1.2322670221328735
1781792882272630000,46.15563012695313,-0.9190460443496704,-1.4146101474761963,-0.16218459606170654
1781792882321153000,46.20415307617188,-1.6661336421966553,-0.8353576064109802,0.4062250852584839
1781792882369675800,46.25267578125,-0.8833104968070984,-1.0069342851638794,0.8416953086853027
1781792882418198800,46.30119873046875,0.04016435891389847,-0.8445205688476562,0.5665770769119263
1781792882466721800,46.3497216796875,1.0332777500152588,-0.7241038084030151,0.08063415437936783
1781792882515244500,46.39824462890625,0.9017127752304077,-1.0177006721496582,0.3644571900367737
1781792882563767600,46.446767578125,-0.18868085741996765,-0.3050506114959717,0.15813761949539185
1781792882612290600,46.49529052734375,-0.06933315098285675,0.1764635592699051,-0.2796233594417572
1781792882660813300,46.543813232421876,-0.5962040424346924,1.1414008140563965,0.23335035145282745
1781792882709336300,46.59233642578125,0.004581485874950886,0.6847030520439148,-0.057497646659612656
1781792882757859000,46.640859130859376,0.6597339510917664,0.3369682729244232,-0.8839976787567139
1781792882806381800,46.6893818359375,0.6532435417175293,0.467006117105484,-1.056414246559143
1781792882854904800,46.73790478515625,0.5178605914115906,1.085659384727478,-0.39973464608192444
1781792882903427600,46.786427490234374,0.42791077494621277,0.9518800377845764,-0.28061601519584656
1781792882951950600,46.83495068359375,0.19998185336589813,1.1368193626403809,-0.7538071274757385
1781792883000473600,46.8834736328125,-0.40492698550224304,1.608177900314331,-0.8891136646270752
1781792883048996400,46.931996337890624,-1.1380411386489868,1.265482783317566,-0.38812822103500366
1781792883097519400,46.980519287109374,0.16149736940860748,-0.10140355676412582,-0.11026109009981155
1781792883146042400,47.02904248046875,0.8400154113769531,-1.3669626712799072,0.6395754218101501
1781792883194565000,47.077565185546874,0.4618137776851654,-2.996368169784546,1.800982117652893
1781792883243088100,47.126088134765624,0.20059272646903992,-2.3368632793426514,1.5914554595947266
1781792883291611100,47.174611083984374,-0.5405389666557312,-0.888502836227417,-0.28061601519584656
1781792883340134000,47.2231337890625,-1.5225805044174194,-0.4260781705379486,0.029932374134659767
1781792883388657000,47.271656982421874,-1.1571305990219116,-0.4995346665382385,0.35384342074394226
1781792883437179600,47.3201796875,-0.14019346237182617,-0.7012727856636047,0.22968515753746033
1781792883485702400,47.36870239257812,0.8555161356925964,-0.20570871233940125,0.13164135813713074
1781792883534225400,47.41722534179687,0.6692023873329163,-0.4972439408302307,0.49594584107398987
1781792883582748200,47.465748046875,0.07605266571044922,-0.42050403356552124,0.33322674036026
1781792883631271200,47.51427124023437,0.13874267041683197,0.19089524447917938,-0.21716243028640747
1781792883679794200,47.56279418945312,-0.2438877671957016,0.8374192714691162,0.15592323243618011
1781792883728317000,47.61131689453125,-0.4783071279525757,1.1572833061218262,-0.229150652885437
1781792883776840000,47.65983984375,0.43951719999313354,0.6666061878204346,-0.5905535221099854
1781792883825363000,47.70836303710937,0.814588189125061,0.6582068204879761,-0.8129082918167114
1781792883873885700,47.7568857421875,0.4373791813850403,1.2137882709503174,-0.693026065826416
1781792883922408700,47.80540869140625,0.3134499788284302,1.455843448638916,-0.27252206206321716
1781792883970931500,47.85393139648438,0.22731806337833405,1.0033453702926636,-0.7133373618125916
1781792884019454200,47.9024541015625,-0.2861901521682739,1.3478730916976929,-1.1148282289505005
1781792884067977200,47.95097729492188,-1.1154390573501587,1.3247365951538086,-0.5244274139404297
1781792884116500000,47.9995,0.040775224566459656,0.48105600476264954,-0.13446660339832306
1781792884165023000,48.04802294921875,0.6455313563346863,-0.3294851779937744,0.2718348205089569
1781792884213546000,48.0965458984375,0.6247619390487671,-1.9244531393051147,1.4560725688934326
1781792884262068700,48.14506884765625,0.6524799466133118,-2.2667665481567383,2.2520294189453125
1781792884310591500,48.193591552734375,-0.4013381600379944,-0.5122101306915283,0.13920080661773682
1781792884359114500,48.242114501953125,-1.417969822883606,-0.14485131204128265,-0.4915934205055237
1781792884407637200,48.29063720703125,-1.3978112936019897,-0.05803215503692627,0.2992473840713501
1781792884456160300,48.33916015625,-0.44501498341560364,-0.676227331161499,0.20891575515270233
1781792884504683300,48.387683349609375,0.6422479748725891,-0.32016950845718384,-0.004963276442140341
1781792884553206000,48.4362060546875,0.8281798958778381,-0.44356417655944824,0.23617559671401978
1781792884601729000,48.48472900390625,0.015347977168858051,-0.4205803871154785,0.4084394574165344
1781792884650251800,48.53325170898437,0.1542433500289917,-0.38209593296051025,-0.1443931609392166
1781792884698774500,48.5817744140625,0.07536543905735016,0.8675807118415833,-0.08536835014820099
1781792884795820300,48.6788203125,0.0015271619195118546,1.1229221820831299,-0.8495602011680603
1781792884844343300,48.72734326171875,0.8545998334884644,0.5164861679077148,-0.6396517753601074
1781792884892866300,48.7758662109375,0.7204386591911316,1.2526545524597168,-0.6339249014854431
1781792884941389000,48.82438916015625,0.23892448842525482,1.6345977783203125,-0.3288743197917938
1781792884989912000,48.872912109375,0.06177370250225067,1.5764129161834717,-0.6075050234794617
1781792885038434800,48.92143481445312,-0.2084576040506363,1.0260237455368042,-1.1073451042175293
1781792885086957600,48.96995751953125,-0.9330959320068359,1.1530836820602417,-0.7579304575920105
1781792885135480600,49.01848046875,-0.41294458508491516,0.795651376247406,-0.20158538222312927
1781792885184003600,49.06700366210937,0.3681987524032593,0.29626941680908203,0.037033677101135254
1781792885232526300,49.1155263671875,0.5333613157272339,-1.4688243865966797,1.2051599025726318
1781792885281049000,49.16404907226563,0.35537058115005493,-2.492786407470703,2.246455192565918
1781792885329571800,49.21257177734375,-0.27550002932548523,-0.9637919068336487,0.6712640523910522
1781792885378094800,49.2610947265625,-1.082757830619812,-1.0096067190170288,-0.4159989058971405
1781792885426617900,49.30961791992188,-1.4814997911453247,-0.4610501825809479,0.19394956529140472
1781792885475140600,49.358140625,-0.5601630210876465,-0.6945532560348511,0.21197007596492767
1781792885523663600,49.40666357421875,0.5991056561470032,-0.7069995999336243,0.17997603118419647
1781792885572186400,49.455186279296875,1.0953569412231445,-0.526870846748352,0.28932082653045654
1781792885620709000,49.503709228515625,0.3370446562767029,-0.3943132162094116,0.8140536546707153
1781792885669232000,49.552232177734375,-0.4012618064880371,-0.34093889594078064,-0.0295505840331316
1781792885717755100,49.600755126953125,-0.22556181252002716,1.0207550525665283,-0.45509424805641174
1781792885766278000,49.64927783203125,-0.34834563732147217,0.973031222820282,0.16409355401992798
1781792885814801000,49.69780078125,-0.24182608723640442,1.1697297096252441,-0.592233419418335
1781792885863323600,49.74632373046875,0.693636953830719,0.30146175622940063,-0.8191696405410767
1781792885911846400,49.79484643554687,0.917137086391449,0.8190932869911194,-0.8615484237670898
1781792885960369400,49.84336938476562,0.406530499458313,1.388801097869873,-0.48036879301071167
1781792886008892200,49.89189208984375,0.3525453209877014,1.1759146451950073,-0.5360338687896729
1781792886057415200,49.94041528320312,0.04734202101826668,0.8891900181770325,-1.0637446641921997
1781792886105938000,49.98893798828125,-1.0030399560928345,1.1265873908996582,-0.955621600151062
1781792886154460700,50.03746069335938,-0.699821949005127,0.8174898028373718,-0.20769402384757996
1781792886202983700,50.08598364257813,0.360868364572525,0.47952884435653687,-0.2940550446510315
1781792886251506700,50.13450659179688,0.32681265473365784,-0.9318742156028748,0.8759800791740417
1781792886300029200,50.183029296875,0.3612501621246338,-2.6395466327667236,2.207665205001831
1781792886348552200,50.23155224609375,-0.19990549981594086,-1.272507667541504,1.0357211828231812
1781792886397075200,50.2800751953125,-1.1623992919921875,-1.603978157043457,-0.4437169134616852
1781792886445598000,50.328597900390626,-1.705458164215088,-1.014493703842163,0.39309149980545044
1781792886494121000,50.377120849609376,-0.6834813356399536,-1.408348798751831,0.6417897939682007
1781792886542643700,50.425643798828126,0.3745364546775818,-1.2309688329696655,0.31520622968673706
1781792886591166500,50.47416650390625,1.1364375352859497,-0.581848680973053,0.03298669680953026
1781792886639689500,50.522689453125,0.8605557680130005,-0.3154352903366089,0.2280052751302719
1781792886688212200,50.571212158203124,0.03955349326133728,-0.30054548382759094,0.57008957862854
1781792886736735200,50.6197353515625,0.001679878099821508,0.0553596206009388,-0.010461059398949146
1781792886785258000,50.668258056640624,-0.29504770040512085,0.5317577719688416,0.2597702443599701
1781792886833780700,50.71678076171875,-0.15592323243618011,0.5595521330833435,-0.12102758139371872
1781792886882303700,50.7653037109375,0.5586358308792114,0.2701549530029297,-0.916602611541748
1781792886930826800,50.81382666015625,0.8341358304023743,0.41813695430755615,-0.9841794967651367
1781792886979349200,50.86234936523437,0.42340564727783203,1.2395973205566406,-0.6573668718338013
1781792887027872300,50.91087231445312,0.1297324001789093,1.4996730089187622,-0.42768171429634094
1781792887076395000,50.95939501953125,0.17172935605049133,1.0766491889953613,-0.6402626633644104
1781792887124918000,51.00791796875,-0.3041343092918396,1.3371065855026245,-0.9306524991989136
1781792887173440800,51.05644067382813,-1.0361794233322144,1.2186752557754517,-0.5694023370742798
1781792887221963500,51.10496362304688,0.4659371078014374,-0.19165882468223572,-0.05948295816779137
1781792887270486500,51.15348657226563,0.7463240623474121,-1.2622756958007812,1.089553713798523
1781792887319009500,51.20200952148438,0.29817837476730347,-2.351447582244873,2.0481531620025635
1781792887367532300,51.2505322265625,-0.31612253189086914,-0.9902881383895874,0.9810488224029541
1781792887416055000,51.299054931640626,-0.8810197114944458,-0.783815860748291,-0.27488914132118225
1781792887464578000,51.347578125,-1.4827215671539307,-0.3574322462081909,0.19685117900371552
1781792887513100800,51.396100830078126,-0.6786707639694214,-0.5457313060760498,0.36651885509490967
1781792887561623600,51.44462353515625,0.43279770016670227,-0.6068177819252014,0.2461785078048706
1781792887610146600,51.493146484375,1.0923025608062744,-0.44348782300949097,0.04917461425065994
1781792887658669300,51.54166943359375,0.5574141144752502,-0.6097193956375122,0.5335903763771057
1781792887707192300,51.5901923828125,-0.2577849328517914,-0.4621191918849945,0.47464191913604736
1781792887755715000,51.638715087890624,-0.5065596103668213,0.7916807532310486,-0.24663665890693665
1781792887804237800,51.68723779296875,-0.6502655744552612,0.448069304227829,0.06994401663541794
1781792887852760800,51.7357607421875,0.21502439677715302,0.7228057384490967,-0.3468184769153595
1781792887901283600,51.78428369140625,0.5785652995109558,0.3713294267654419,-1.1354448795318604
1781792887949806300,51.83280639648437,0.6329322457313538,0.8775836229324341,-0.8530726432800293
1781792887998329300,51.88132934570312,0.38041603565216064,1.275791049003601,-0.4350120723247528
1781792888046852000,51.92985205078125,0.24342961609363556,1.023962140083313,-0.4938078224658966
1781792888095375000,51.978375,0.03321577236056328,0.5803215503692627,-0.9129374027252197
1781792888143897900,52.02689794921875,-0.6908880472183228,0.9508873820304871,-0.8815542459487915
1781792888192420600,52.07542065429688,-0.8006146550178528,0.627129077911377,-0.37262752652168274
1781792888240943600,52.12394360351563,0.36919140815734863,-0.44906195998191833,-0.15256348252296448
1781792888289466400,52.17246630859375,0.4036289155483246,-1.7636430263519287,0.9367611408233643
1781792888337989000,52.220989013671876,0.14508038759231567,-2.9946882724761963,2.123518705368042
1781792888386512100,52.26951220703125,-0.17318016290664673,-1.672624111175537,1.2581523656845093
1781792888435035000,52.318034912109376,-0.800385594367981,-1.7389793395996094,-0.1496618688106537
1781792888483557600,52.3665576171875,-1.4530181884765625,-1.1629338264465332,0.2458730787038803
1781792888532080600,52.41508056640625,-0.7147117853164673,-1.3122138977050781,0.56298828125
1781792888580603400,52.463603271484374,0.35582873225212097,-1.2189806699752808,0.31154105067253113
1781792888629126100,52.512126220703124,1.0525963306427002,-0.425467312335968,0.1101083755493164
1781792888677649200,52.560649169921874,0.5315287113189697,-0.12469277530908585,0.39599308371543884
1781792888726172000,52.609171875,-0.22579088807106018,-0.0031306820455938578,0.7883210182189941
1781792888774695000,52.65769482421875,-0.25809037685394287,0.2447277009487152,-0.17837251722812653
1781792888823217700,52.7062177734375,-0.5293143391609192,0.14836378395557404,0.30802857875823975
1781792888871740400,52.75474047851562,0.21036656200885773,-0.08048143237829208,-0.1547778695821762
1781792888920263400,52.80326342773437,0.5955931544303894,-0.3248273432254791,-1.0941351652145386
1781792888968786200,52.8517861328125,0.5832231640815735,0.091400645673275,-0.9233221411705017
1781792889017309000,52.90030883789063,0.4174497127532959,0.5764272809028625,-0.3128391206264496
1781792889065832000,52.94883203125,0.37812530994415283,0.816038966178894,-0.3790415823459625
1781792889114354400,52.9973544921875,0.30833399295806885,0.5065596103668213,-0.9250783324241638
1781792889162877400,53.04587744140625,-0.6183478832244873,0.694247841835022,-1.2317324876785278
1781792889211400400,53.094400390625,-0.813671886920929,0.7559451460838318,-0.3482692837715149
1781792889259923000,53.1429228515625,0.41386088728904724,-0.21876594424247742,-0.2548069655895233
1781792889308446000,53.191446044921875,0.2934441566467285,-1.3629156351089478,0.8543707728385925
1781792889356968700,53.23996875,-0.07147117704153061,-2.7715699672698975,2.163224935531616
1781792889405491700,53.28849169921875,-0.425467312335968,-1.5809180736541748,1.3312270641326904
1781792889454014500,53.33701440429687,-1.0202969312667847,-2.061974048614502,-0.15233440697193146
1781792889502537200,53.385537109375,-1.5317434072494507,-1.2904518842697144,0.5070177912712097
1781792889551060200,53.43406030273437,-0.6673697829246521,-1.3203842639923096,0.9631046652793884
1781792889599583000,53.4825830078125,0.34093889594078064,-1.2861758470535278,0.6468294262886047
1781792889648105700,53.53110571289063,1.21523916721344,-0.8324559926986694,0.16523891687393188
1781792889696628700,53.57962866210938,0.8810960650444031,-0.5083158612251282,0.2877173125743866
1781792889745151500,53.6281513671875,-0.025961752980947495,-0.26335906982421875,0.7550288438796997
1781792889793674200,53.67667431640625,-0.47357290983200073,0.19089524447917938,-0.06719512492418289
1781792889842197200,53.725197265625,-0.4823541045188904,0.2534325122833252,0.3560578227043152
1781792889890720000,53.77371997070313,0.3750709891319275,0.10537417232990265,0.06795870512723923
1781792889939242800,53.82224267578125,0.5100721120834351,0.11033745110034943,-1.1089487075805664
1781792889987765800,53.87076586914063,0.8314633369445801,0.42187848687171936,-0.8153517842292786
1781792890036288500,53.91928857421875,0.6656898856163025,1.0135773420333862,-0.4425715208053589
1781792890084811300,53.967811279296875,0.45998117327690125,1.2960259914398193,-0.5250383019447327
1781792890133334300,54.016334228515625,0.08452841639518738,1.1688897609710693,-0.9953277707099915
1781792890181857000,54.06485693359375,-0.5949059128761292,0.900338351726532,-1.2003493309020996
1781792890230379800,54.1133798828125,-0.9247729182243347,0.8164971470832825,-0.28557929396629333
1781792890278902800,54.16190283203125,0.3298669755458832,0.2894735336303711,-0.16905683279037476
1781792890327425300,54.21042529296875,0.3168860971927643,-0.3811796307563782,0.644844114780426
1781792890375948300,54.2589482421875,0.4134027361869812,-2.468580961227417,2.1241295337677
1781792890424471300,54.30747119140625,-0.11110103130340576,-1.3942989110946655,1.87222421169281
1781792890472993800,54.35599389648438,-0.8393282294273376,-1.2682316303253174,-0.3336085379123688
1781792890521516800,54.40451684570313,-1.4201842546463013,-1.0525200366973877,0.07910698652267456
1781792890570039600,54.45303955078125,-0.8111520409584045,-0.6648499369621277,0.6095666885375977
1781792890618562300,54.501562255859376,0.15378521382808685,-0.9069814682006836,0.35094180703163147
1781792890667085300,54.550085205078126,1.0135010480880737,-0.5311469435691833,0.09300415962934494
1781792890715608000,54.598608154296876,0.5388590693473816,-0.27091851830482483,0.1545487940311432
1781792890764130800,54.647130859375,-0.15470150113105774,-0.2984074354171753,0.6191114783287048
1781792890812653800,54.69565380859375,-0.19685117900371552,0.2364046722650528,-0.13790272176265717
1781792890861176300,54.74417626953125,-0.4949531853199005,0.4831940531730652,0.14103341102600098
1781792890909699300,54.79269921875,-0.21555891633033752,0.4050033390522003,-0.2225838601589203
1781792890958222300,54.841222412109374,0.537255585193634,-0.09132428467273712,-1.0830632448196411
1781792891006744800,54.88974487304687,0.6924152374267578,0.15531237423419952,-0.966235339641571
1781792891055267800,54.93826782226562,0.4082867503166199,0.6010909676551819,-0.6148353815078735
1781792891103790600,54.98679052734375,0.3850739002227783,0.8445969223976135,-0.3139844834804535
1781792891152313300,55.03531323242188,0.3879754841327667,0.7907644510269165,-0.6110938787460327
1781792891200836400,55.08383642578125,-0.10384701192378998,0.9968549609184265,-1.0497710704803467
1781792891249359000,55.13235913085938,-0.9327905178070068,1.1658353805541992,-0.497320294380188
1781792891297881900,55.1808818359375,0.27313292026519775,-0.09407317638397217,0.09712749719619751
1781792891346404600,55.229404541015626,0.8002328872680664,-1.1853067874908447,0.9620356559753418
1781792891394927400,55.27792724609375,0.2507599890232086,-2.028681993484497,1.86512291431427
1781792891443450400,55.326450439453126,-0.02176205813884735,-1.2218059301376343,1.8225914239883423
1781792891491973000,55.37497314453125,-0.4428006112575531,-0.8677334189414978,-0.005192350596189499
1781792891540496000,55.423495849609374,-1.3503166437149048,-0.7092903852462769,-0.18417572975158691
1781792891589019000,55.472018798828124,-1.0459532737731934,-0.3453676700592041,0.19792018830776215
1781792891637541600,55.520541748046874,0.1383608728647232,-0.8182533979415894,0.10850485414266586
1781792891686064400,55.569064453125,1.0796271562576294,-0.37148213386535645,-0.06719512492418289
1781792891734587100,55.61758715820312,1.1519381999969482,-0.32704174518585205,0.22327107191085815
1781792891783110000,55.66610986328125,0.04062250629067421,-0.25786128640174866,0.6566032767295837
1781792891831633000,55.7146328125,-0.08368847519159317,-0.3016144931316376,0.24717116355895996
1781792891880155600,55.76315576171875,-0.12988512217998505,0.571540355682373,-0.034895651042461395
1781792891928678400,55.81167846679688,-0.14088068902492523,0.57008957862854,-0.030543239787220955
1781792891977201200,55.860201171875,0.13996438682079315,0.8119919896125793,-0.5267944931983948
1781792892025724200,55.90872412109375,0.69096440076828,0.5670352578163147,-0.905377984046936
1781792892074247000,55.957246826171875,0.569173276424408,1.0360267162322998,-0.9844086170196533
1781792892122769700,56.005769775390625,0.351705402135849,1.2943460941314697,-0.5962040424346924
1781792892171292400,56.05429248046875,0.27572908997535706,1.2764782905578613,-0.8098539710044861
1781792892219815200,56.10281518554687,-0.08491020649671555,1.3251184225082397,-0.9605848789215088
1781792892268338200,56.15133813476562,-1.092226266860962,1.4030799865722656,-0.5455785989761353
1781792892316861000,56.19986083984375,-0.18196134269237518,0.5962040424346924,-0.09376774728298187
1781792892365383700,56.2483837890625,0.5549706816673279,-0.1441640853881836,0.3589594066143036
1781792892413906400,56.29690649414062,0.42134398221969604,-1.499367594718933,1.6977459192276
1781792892462429200,56.34542919921875,0.23098324239253998,-1.278234601020813,2.142073631286621
1781792892510952200,56.3939521484375,-0.28557929396629333,-0.26702427864074707,0.11209368705749512
1781792892559475000,56.44247485351563,-1.370169758796692,-0.19272783398628235,-0.3610210716724396
1781792892607997700,56.49099780273438,-1.3864339590072632,0.16875138878822327,0.3418551981449127
1781792892656520400,56.5395205078125,-0.3591884970664978,-0.1430187225341797,0.02542724646627903
1781792892705043200,56.588043212890625,0.6974548697471619,-0.06765327602624893,-0.2767980992794037
1781792892753566000,56.63656591796875,1.1013891696929932,-0.42363473773002625,-0.018402300775051117
1781792892802089000,56.6850888671875,0.0821613147854805,-0.3657552897930145,0.5264890789985657
1781792892850611700,56.73361181640625,-0.3778962194919586,-0.43172869086265564,0.015806125476956367
1781792892899134500,56.78213452148437,-0.3686569035053253,0.6777544617652893,-0.11698060482740402
1781792892947657500,56.83065747070312,-0.20883940160274506,0.6711113452911377,0.2648862302303314
1781792892996180000,56.87917993164063,0.3646862804889679,0.4831176698207855,-0.7487674951553345
1781792893044703000,56.92770288085938,0.7573196291923523,0.21960589289665222,-1.086804747581482
1781792893093225700,56.97622583007813,0.7055488228797913,1.0648900270462036,-0.7172316312789917
1781792893141748500,57.02474853515625,0.28611379861831665,1.4890592098236084,-0.571234941482544
1781792893190271200,57.07327124023438,0.15515965223312378,1.134146809577942,-0.7715985774993896
1781792893238794000,57.1217939453125,-0.03176496922969818,1.0893245935440063,-1.1966841220855713
1781792893287316700,57.170316650390625,-0.8352048993110657,1.3142756223678589,-0.7160098552703857
1781792893335839700,57.21883984375,-0.1934150606393814,0.43348491191864014,-0.2193768173456192
1781792893384362500,57.267362548828125,0.6191114783287048,-0.4915934205055237,0.47517645359039307
1781792893432885200,57.31588525390625,0.5607738494873047,-2.001193046569824,1.8387030363082886
1781792893481408000,57.36440795898437,0.1498909443616867,-2.0938918590545654,2.3296091556549072
1781792893529930800,57.4129306640625,-0.5439751148223877,-0.36369362473487854,0.2868773639202118
1781792893578453800,57.46145385742187,-1.3253475427627563,-0.7677043080329895,-0.2680169343948364
1781792893626976500,57.5099765625,-1.380554437637329,-0.16126830875873566,0.4232529401779175
1781792893675499300,57.55849926757813,-0.3882809281349182,-0.516791582107544,0.245338574051857
1781792893724022000,57.60702197265625,0.8271108865737915,-0.3006218373775482,-0.0784197673201561
1781792893772544800,57.655544677734376,1.046105980873108,-0.4119519293308258,0.3231474757194519
1781792893821067500,57.704067626953126,-0.01626427471637726,-0.10468695312738419,0.7555633783340454
1781792893869590500,57.752590576171876,-0.4073704481124878,-0.1727220118045807,-0.4168388545513153
1781792893918113300,57.80111328125,-0.6572141647338867,1.1210895776748657,-0.07269290834665298
1781792893966636000,57.849635986328124,-0.5061778426170349,0.7517454624176025,-0.16416990756988525
1781792894015158800,57.89815869140625,0.28733551502227783,0.7024181485176086,-0.8487202525138855
1781792894063681500,57.946681640625,0.9205732345581055,0.7852666974067688,-0.9731075763702393
1781792894112204300,57.99520434570312,0.6781362891197205,1.5260928869247437,-0.7294489145278931
1781792894160727000,58.04372705078125,0.5929969549179077,1.5558725595474243,-0.5315287113189697
1781792894209249800,58.09224975585938,0.33315038681030273,1.1452951431274414,-0.758083164691925
1781792894257772800,58.14077270507813,-0.13041962683200836,1.0844377279281616,-1.1118502616882324
1781792894306295600,58.18929565429688,-1.0828341245651245,1.2295944690704346,-0.8752164840698242
1781792894354818300,58.237818359375,-0.3488037884235382,0.04130972921848297,-0.15271618962287903
1781792894403341000,58.286341064453126,0.565889835357666,-0.2730565667152405,0.22327107191085815
1781792894451863800,58.33486376953125,0.2719111740589142,-1.209588646888733,1.4731004238128662
1781792894500386600,58.383386474609374,0.27633994817733765,-2.1549782752990723,2.334648847579956
1781792894548909600,58.43190966796875,-0.008933897130191326,-0.8841503858566284,0.9269872903823853
1781792894597432000,58.48043212890625,-1.1488075256347656,-1.3213005065917969,-0.5956695079803467
1781792894645955000,58.528955078125,-1.4691298007965088,-0.5805506110191345,0.16936226189136505
1781792894694477800,58.57747778320312,-0.3862192630767822,-0.8268054723739624,0.39248061180114746
1781792894743000300,58.62600024414063,0.7331140637397766,-0.7275399565696716,-0.028176138177514076
1781792894791523300,58.6745234375,1.183550477027893,-0.44700029492378235,-0.02672533318400383
1781792894840046000,58.72304614257813,0.24113887548446655,0.1983019858598709,0.6613374948501587
1781792894888568800,58.77156884765625,-0.27809619903564453,-0.24006985127925873,0.38965538144111633
1781792894937091600,58.820091552734375,-0.4584540128707886,0.5238165259361267,-0.5520690679550171
1781792894985614300,58.8686142578125,-0.6487383842468262,0.32123851776123047,0.19364413619041443
1781792895034137000,58.91713720703125,0.11323905736207962,0.3220784664154053,-0.26534438133239746
1781792895082660000,58.96566015625,0.7503710389137268,-0.208152174949646,-1.005788803100586
1781792895131182600,59.0141826171875,0.7159335017204285,0.7340303659439087,-0.9651663303375244
1781792895179705600,59.06270556640625,0.4289034307003021,1.2284491062164307,-0.5938369035720825
1781792895228228400,59.11122827148437,0.5190823674201965,1.124754786491394,-0.8100066781044006
1781792895276751000,59.15975122070312,0.2868010103702545,0.7330377101898193,-1.15842866897583
1781792895325273900,59.20827392578125,-0.48128509521484375,1.1233803033828735,-0.9463059306144714
1781792895373796600,59.25679663085938,-0.690048098564148,0.8388700485229492,-0.3695732057094574
1781792895422319400,59.3053193359375,0.5017490386962891,-0.08765909820795059,0.10483966767787933
1781792895470842000,59.353842041015625,0.47754353284835815,-1.378950834274292,1.4383574724197388
1781792895519364900,59.40236474609375,-0.011148282326757908,-1.7339396476745605,2.4019203186035156
1781792895567887600,59.4508876953125,-0.45326167345046997,-0.17722713947296143,0.952032744884491
1781792895616410600,59.49941064453125,-1.0233511924743652,-0.969518780708313,-0.2643517255783081
1781792895664933000,59.54793310546875,-1.64872407913208,-0.3545306324958801,0.29481860995292664
1781792895713455900,59.59645581054688,-0.6828704476356506,-0.6327031850814819,0.3092502951622009
1781792895761978600,59.644978515625,0.6872992515563965,-0.8442915081977844,0.11881320178508759
1781792895810501400,59.69350146484375,1.4367539882659912,-0.5529089570045471,0.10606139898300171
1781792895859024400,59.7420244140625,0.40378162264823914,-0.3790415823459625,0.7011964321136475
1781792895907547100,59.790547119140626,-0.18829907476902008,-0.3704894781112671,0.3860665261745453
1781792895956070000,59.83906982421875,-0.26358816027641296,0.6204095482826233,-0.022067490965127945
1781792896004592600,59.887592529296874,-0.43837183713912964,0.7975603342056274,-0.11972949653863907
1781792896053115400,59.936115478515624,0.2136499583721161,0.7168498039245605,-0.7163916826248169
1781792896150161000,60.03316088867187,0.5139663815498352,1.2089014053344727,-1.000291109085083
1781792896198683600,60.08168359375,0.16050471365451813,1.5038727521896362,-0.5429060459136963
1781792896247206700,60.13020654296875,0.28924447298049927,1.1891247034072876,-0.669965922832489
1781792896295729400,60.1787294921875,-0.014966187067329884,1.043357014656067,-1.1008546352386475
1781792896392774400,60.2757744140625,0.07971785217523575,0.2672533392906189,-0.18295399844646454
1781792896441297400,60.32429736328125,0.767551600933075,-0.5571850538253784,0.48884454369544983
1781792896489820200,60.372820068359374,0.5364156365394592,-2.0744967460632324,1.8907792568206787
1781792896538343000,60.421343017578124,0.08987347781658173,-1.6410882472991943,2.3438117504119873
1781792896586865700,60.46986572265625,-0.31490078568458557,-0.7398335933685303,0.2809978127479553
1781792896635388400,60.51838842773437,-1.2945752143859863,-1.103679895401001,-0.4079049527645111
1781792896683911200,60.5669111328125,-1.2746456861495972,-0.3640754222869873,0.3284161686897278
1781792896732434000,60.61543383789063,-0.12705987691879272,-0.8306233882904053,0.2485456019639969
1781792896780957000,60.66395703125,1.0941351652145386,-0.7072287201881409,-0.040546149015426636
1781792896829479700,60.71247973632813,1.1071161031723022,-0.6178133487701416,0.3082576394081116
1781792896878002400,60.76100244140625,-0.1011744812130928,-0.03848448023200035,0.8630755543708801
1781792896926525000,60.80952490234375,-0.4457022249698639,0.06230820715427399,0.04046979174017906
1781792896975047700,60.858047607421874,-0.735023021697998,0.861853837966919,-0.11881320178508759
1781792897023570400,60.9065703125,-0.26137375831604004,0.602007269859314,-0.07116574794054031
1781792897072093400,60.955093505859374,0.4202749729156494,0.6371319890022278,-1.0018181800842285
1781792897120616200,61.0036162109375,0.7392227649688721,0.9812015295028687,-1.188590168952942
1781792897169138700,61.052138671875,0.5909352898597717,1.8002184629440308,-0.7667116522789001
1781792897217661400,61.10066137695313,0.4751000702381134,1.7669264078140259,-0.5816196203231812
1781792897266184200,61.14918408203125,0.41905322670936584,0.8854485154151917,-0.7754928469657898
1781792897314707200,61.19770727539063,-0.23510658740997314,0.9341649413108826,-1.4411063194274902
1781792897363229700,61.246229736328125,-1.0780999660491943,1.0376302003860474,-0.9941060543060303
1781792897411752400,61.29475244140625,0.03428478538990021,0.150196373462677,-0.22235478460788727
1781792897460275500,61.343275390625,0.5749000906944275,-0.11568251997232437,0.485484778881073
1781792897508798200,61.39179809570312,0.5093085169792175,-1.6889647245407104,1.7774637937545776
1781792897557321000,61.44032104492187,0.18493930995464325,-1.6602541208267212,2.5349361896514893
1781792897605843700,61.48884375,-0.38270679116249084,-0.583910346031189,0.27000224590301514
1781792897654366200,61.5373662109375,-1.3547453880310059,-0.8437569737434387,-0.4687623679637909
1781792897702889000,61.58588891601563,-1.2551743984222412,-0.046807512640953064,0.4583776593208313
1781792897751412000,61.63441186523438,-0.3130682110786438,-0.4477638900279999,0.2790125012397766
1781792897799934500,61.6829345703125,0.6970730423927307,-0.3831649422645569,-0.07589995115995407
1781792897896980000,61.77997998046875,-0.18341214954853058,-0.2876409590244293,0.6189587116241455
1781792897945503000,61.8285029296875,-0.2393062710762024,-0.03260490670800209,-0.11278090626001358
1781792897994025500,61.877025390625,-0.4760163724422455,0.747469425201416,-0.10468695312738419
