time,seconds_elapsed,z,y,x
1781792836310069800,0.19306982421875,8.991629600524902,3.9984066486358643,-0.23389841616153717
1781792836368297500,0.25129736328125,8.964710235595703,4.0833516120910645,-0.25004997849464417
1781792836441215700,0.3242158203125,9.385248184204102,4.000500202178955,0.05563312768936157
1781792836489738800,0.37273876953125,9.304191589355469,3.541377544403076,0.45583271980285645
1781792836538261800,0.42126171875,9.15284538269043,4.05403995513916,0.3448655605316162
1781792836586784800,0.46978466796875,8.689535140991211,4.126123428344727,0.30508488416671753
1781792836635307800,0.518307861328125,9.356534957885742,3.9463627338409424,0.1782652884721756
1781792836683830800,0.566830810546875,9.061320304870605,4.264608383178711,0.4420739710330963
1781792836732353500,0.615353515625,8.4200439453125,4.230809688568115,0.5246263742446899
1781792836780876500,0.66387646484375,7.736294746398926,4.400999069213867,0.3819543123245239
1781792836829399800,0.71239990234375,8.02373218536377,4.193122386932373,0.014955141581594944
1781792836877922800,0.7609228515625,10.523036003112793,4.371088981628418,0.12861421704292297
1781792836926445800,0.80944580078125,10.228120803833008,4.780859470367432,-0.2919243574142456
1781792836974968800,0.85796875,9.543174743652344,4.802095890045166,-0.576670229434967
1781792837023491800,0.906491943359375,8.715856552124023,4.534399032592773,-0.4091726839542389
1781792837072014800,0.955014892578125,8.759525299072266,4.522434711456299,-0.6936194896697998
1781792837120537900,1.003537841796875,8.787042617797852,4.488935470581055,-0.8823533654212952
1781792837169060900,1.052060791015625,7.998608112335205,4.642673969268799,-1.0133603811264038
1781792837217583900,1.100583984375,8.176873207092285,4.629513740539551,-0.9326026439666748
1781792837314630000,1.1976298828125,8.02373218536377,4.7973103523254395,-0.8934201598167419
1781792837363153000,1.24615283203125,8.166703224182129,4.910969257354736,-0.9669994711875916
1781792837411691000,1.29469091796875,8.39013385772705,5.067399978637695,-0.841675341129303
1781792837460199200,1.34319921875,8.327621459960938,5.113760948181152,-0.7591229677200317
1781792837508722200,1.39172216796875,8.72482967376709,5.070989608764648,-0.6275177597999573
1781792837557245200,1.4402451171875,8.721240043640137,5.078466892242432,-0.7127620577812195
1781792837605768200,1.488768310546875,8.61475944519043,4.95493745803833,-0.7782655358314514
1781792837654291200,1.537291259765625,8.468199729919434,4.910969257354736,-0.8204390406608582
1781792837702814200,1.585814208984375,8.313861846923828,4.972883701324463,-0.859621524810791
1781792837751337200,1.634337158203125,8.244470596313477,4.868795871734619,-0.875174880027771
1781792837799860500,1.682860595703125,8.2998046875,4.809274196624756,-0.9607182741165161
1781792837848383500,1.731383544921875,8.130212783813477,4.898108005523682,-0.9598209857940674
1781792837896906500,1.779906494140625,7.982755661010742,5.12811803817749,-1.1479566097259521
1781792837945429500,1.828429443359375,8.294719696044922,5.184648513793945,-1.174277663230896
1781792837993952500,1.876952392578125,8.4771728515625,5.041079044342041,-0.8805587291717529
1781792838042475800,1.925475830078125,8.774181365966797,4.858626365661621,-0.5754738450050354
1781792838090998800,1.973998779296875,8.847162246704102,4.8197431564331055,-0.5330012440681458
1781792838139521800,2.022521728515625,8.746664047241211,4.966901779174805,-0.542572557926178
1781792838188044800,2.071044921875,8.47597599029541,5.081757068634033,-0.6990033388137817
1781792838236568000,2.119568115234375,8.26540756225586,5.018646240234375,-0.8500502705574036
1781792838285091000,2.168091064453125,8.267202377319336,5.017449855804443,-0.916451096534729
1781792838333614000,2.216614013671875,8.041678428649902,5.062614440917969,-1.095314621925354
1781792838382137300,2.265137451171875,7.955836296081543,5.1804609298706055,-1.2652050256729126
1781792838430660400,2.313660400390625,7.953144073486328,5.057230472564697,-1.282852053642273
1781792838479183400,2.362183349609375,8.007282257080078,4.944468975067139,-1.1979068517684937
1781792838527706600,2.41070654296875,8.231907844543457,4.957330226898193,-1.0345966815948486
1781792838576229600,2.459229736328125,8.667402267456055,4.960321426391602,-0.5787639617919922
1781792838624752600,2.507752685546875,8.784649848937988,4.896612644195557,-0.17766708135604858
1781792838673276000,2.55627587890625,9.064311027526855,4.752744197845459,-0.03768695518374443
1781792838721799000,2.604798828125,8.78076171875,4.624728202819824,0.29012975096702576
1781792838770322000,2.653322021484375,8.572586059570312,4.598706245422363,-0.020937198773026466
1781792838818845200,2.70184521484375,7.930412292480469,4.5598225593566895,0.1950150430202484
1781792838867368200,2.7503681640625,8.697012901306152,4.588536739349365,-0.42681974172592163
1781792838915891500,2.798891357421875,9.641280174255371,4.496711730957031,-0.7322037220001221
1781792838964414500,2.84741455078125,9.027820587158203,4.479962348937988,-0.6789634227752686
1781792839012937700,2.895937744140625,9.310771942138672,4.371088981628418,-0.9098708033561707
1781792839061460700,2.944460693359375,8.731110572814941,4.256831645965576,-0.9684949517250061
1781792839109983700,2.992983642578125,8.404789924621582,4.29451847076416,-0.43100717663764954
1781792839158507000,3.041507080078125,7.87059211730957,4.572085857391357,-0.2551347017288208
1781792839207030000,3.090030029296875,9.135498046875,4.1042890548706055,-0.7067800164222717
1781792839255553300,3.13855322265625,9.780961990356445,3.7489547729492188,-0.6981059908866882
1781792839304076300,3.187076171875,9.312267303466797,3.614956855773926,-0.4788636267185211
1781792839352599600,3.235599609375,9.348159790039062,3.7516467571258545,-0.48843491077423096
1781792839401122600,3.28412255859375,9.13729190826416,3.9595232009887695,-0.48574298620224
1781792839449645800,3.332645751953125,9.028717994689941,4.1267218589782715,-0.48454657196998596
1781792839498168800,3.3811689453125,9.220442771911621,4.027718544006348,-0.46390849351882935
1781792839546692000,3.429692138671875,8.86780071258545,4.204488277435303,-0.372682124376297
1781792839595215000,3.478215087890625,8.58784008026123,4.384249210357666,-0.2602194547653198
1781792839643738400,3.52673828125,8.712566375732422,4.386343002319336,-0.24646073579788208
1781792839692261400,3.575261474609375,8.737092971801758,4.406383037567139,-0.3089732229709625
1781792839740784600,3.62378466796875,8.718249320983887,4.549055099487305,-0.359820693731308
1781792839789307600,3.6723076171875,8.82233715057373,4.607978343963623,-0.4055834412574768
1781792839837831000,3.720830810546875,8.725129127502441,4.611567497253418,-0.36191442608833313
1781792839886354200,3.769354248046875,8.595617294311523,4.614558696746826,-0.34636107087135315
1781792839934877200,3.817877197265625,8.722735404968262,4.5828537940979,-0.3655036687850952
1781792839983400400,3.866400390625,8.674580574035645,4.529015064239502,-0.31106695532798767
1781792840031923500,3.91492333984375,8.522636413574219,4.560420989990234,-0.32213374972343445
1781792840080446700,3.96344677734375,8.73619556427002,4.516153812408447,-0.36281174421310425
1781792840128970000,4.011969970703125,8.76520824432373,4.510470867156982,-0.4094717800617218
1781792840177493000,4.060492919921875,8.857930183410645,4.504189491271973,-0.43489551544189453
1781792840226016300,4.109016357421875,9.279067039489746,4.636393070220947,-0.5324030518531799
1781792840274539300,4.157539306640625,8.688637733459473,4.58793830871582,-0.4262215197086334
1781792840323062500,4.2060625,8.09970474243164,4.54845666885376,-0.39182472229003906
1781792840371585800,4.254585693359375,7.564609527587891,3.783052682876587,-0.24227328598499298
1781792840420109000,4.303109130859375,8.891429901123047,3.784548044204712,0.21954147517681122
1781792840468632000,4.351632080078125,8.128119468688965,3.58115816116333,0.12891331315040588
1781792840517155300,4.4001552734375,9.027522087097168,4.052544116973877,-0.3604189157485962
1781792840565678300,4.44867822265625,10.43360424041748,2.974876642227173,-0.7043871879577637
1781792840614201600,4.49720166015625,10.318449020385742,3.132802963256836,-0.7145566344261169
1781792840662724900,4.545724853515625,10.216754913330078,3.2192437648773193,-0.786640465259552
1781792840711248100,4.594248046875,9.63081169128418,3.383451223373413,-0.2826521694660187
1781792840759771100,4.642771240234375,10.099506378173828,3.264707326889038,-0.92691969871521
1781792840808294400,4.69129443359375,9.963414192199707,3.1824541091918945,-1.0357930660247803
1781792840856817700,4.739817626953125,9.296713829040527,3.067598581314087,-0.8428717851638794
1781792840905341000,4.7883408203125,8.859127044677734,3.2282168865203857,-0.8979067206382751
1781792840953864000,4.836864013671875,8.966205596923828,3.6003007888793945,-0.3849453330039978
1781792841002387200,4.88538720703125,8.67069149017334,3.5273196697235107,-0.8841479420661926
1781792841050910500,4.933910400390625,9.480961799621582,3.3882367610931396,-0.7651050686836243
1781792841099433700,4.982433837890625,9.7669038772583,3.835395574569702,-1.3513466119766235
1781792841147957000,5.03095703125,7.940581798553467,4.167100429534912,-0.628415048122406
1781792841196480000,5.07947998046875,7.583154201507568,4.066003799438477,0.04247260093688965
1781792841245003300,5.128003173828125,8.957830429077148,4.199403762817383,-0.6394818425178528
1781792841342049800,5.2250498046875,8.497810363769531,4.595416069030762,-0.6592226624488831
1781792841390573000,5.273572998046875,8.3898344039917,4.256831645965576,-0.23180469870567322
1781792841439096300,5.322096435546875,8.20827865600586,4.015156269073486,0.7998009920120239
1781792841511747000,5.3947470703125,7.978269100189209,4.527220249176025,0.2793620526790619
1781792841569975000,5.45297509765625,9.492925643920898,4.526622295379639,0.2626122832298279
1781792841628202800,5.51120263671875,8.69910717010498,4.471587181091309,0.6364908218383789
1781792841686430700,5.5694306640625,8.84207820892334,4.092324733734131,-0.7094719409942627
1781792841744658700,5.62765869140625,6.457031726837158,5.270191669464111,5.836692810058594
1781792841802886400,5.685886474609375,8.331808090209961,5.293521881103516,4.1623148918151855
1781792841861114400,5.7441142578125,7.251449108123779,5.117051124572754,4.631906509399414
1781792841919342000,5.802342041015625,6.974479675292969,5.096712112426758,4.993820667266846
1781792841977570000,5.860570068359375,7.302894592285156,4.756333351135254,5.119443893432617
1781792842035798000,5.918798095703125,5.998806476593018,4.787439823150635,5.617151260375977
1781792842094025700,5.977025634765625,6.93619441986084,4.976472854614258,5.643472194671631
1781792842152253700,6.035253662109375,5.8372907638549805,5.073382377624512,5.929414749145508
1781792842210481700,6.093481689453125,5.024927616119385,4.799404144287109,6.583253383636475
1781792842268716500,6.151716552734375,5.236692428588867,4.886742115020752,6.994818687438965
1781792842326937300,6.209937255859375,4.297509670257568,4.652843475341797,7.150352478027344
1781792842385165300,6.268165283203125,1.3902299404144287,4.088137626647949,8.469395637512207
1781792842443393300,6.326393310546875,1.1210373640060425,3.964907169342041,9.040083885192871
1781792842501621000,6.38462109375,-1.1126625537872314,4.193421840667725,8.743971824645996
1781792842559849000,6.442848876953125,0.7968099117279053,3.4582269191741943,8.544171333312988
1781792842618077000,6.501076904296875,-5.230112075805664,4.104887008666992,6.5904316902160645
1781792842676304600,6.5593046875,-4.113262176513672,4.167698860168457,7.613961696624756
1781792842734532600,6.61753271484375,-3.8368911743164062,3.8285162448883057,7.281957626342773
1781792842792760600,6.675760498046875,-4.275375843048096,3.538386583328247,7.752745151519775
1781792842850988300,6.73398828125,-4.342973232269287,3.871587038040161,6.464210510253906
1781792842946921700,6.829921630859375,-3.902693748474121,2.118844509124756,7.64028263092041
1781792843024558800,6.907558837890625,-0.1136590763926506,3.0041887760162354,11.304890632629395
1781792843082786800,6.965786865234375,3.1992039680480957,5.405386447906494,9.647860527038574
1781792843141014800,7.024014892578125,5.394618511199951,6.500102519989014,7.136593341827393
1781792843199242500,7.082242431640625,3.827319860458374,7.167700290679932,6.772884368896484
1781792843257470500,7.140470458984375,3.239881753921509,6.5288166999816895,4.280759811401367
1781792843315698400,7.198698486328125,4.351347923278809,5.218746185302734,2.0578274726867676
1781792843373926400,7.256926513671875,8.974281311035156,4.956732273101807,1.5720844268798828
1781792843432154400,7.315154296875,9.274580955505371,6.083751678466797,0.9882357716560364
1781792843490382000,7.373382080078125,10.03310489654541,5.422136306762695,1.812563180923462
1781792843548610000,7.431610107421875,9.1657075881958,4.4721856117248535,0.747757077217102
1781792843645656600,7.528656494140625,9.723235130310059,5.190032482147217,0.794417142868042
1781792843703884500,7.586884521484375,11.338390350341797,6.069394588470459,0.4618147611618042
1781792843762112500,7.645112548828125,12.384053230285645,7.319644451141357,-1.8005990982055664
1781792843820340200,7.70334033203125,14.652449607849121,2.678765058517456,-1.0671988725662231
1781792843878568200,7.761568115234375,12.372089385986328,1.0839486122131348,-2.7828526496887207
1781792843936796200,7.819796142578125,12.43549919128418,2.7385854721069336,-2.8342983722686768
1781792843995024100,7.878024169921875,7.050451755523682,1.0612168312072754,-4.137190341949463
1781792844053252000,7.936252197265625,5.24626350402832,0.6544370055198669,-5.212764263153076
1781792844111479800,7.994479736328125,10.195816993713379,-3.1621150970458984,-4.124029636383057
1781792844169707800,8.052707763671876,7.800601959228516,-3.55214524269104,-8.00518798828125
1781792844227935700,8.110935791015624,2.6141586303710938,-4.291527271270752,-5.402993679046631
1781792844286163700,8.169163818359374,3.517449378967285,-2.6452653408050537,-8.34138011932373
1781792844344391700,8.2273916015625,4.625326156616211,-1.9465612173080444,-7.992027759552002
1781792844402619400,8.285619384765624,6.696314334869385,-0.8721838593482971,-10.284351348876953
1781792844460847400,8.343847412109374,9.340383529663086,1.124626636505127,-12.467802047729492
1781792844519075300,8.402075439453125,9.968499183654785,0.9032905697822571,-7.680960655212402
1781792844577303300,8.46030322265625,0.914058268070221,-1.7802600860595703,-2.0135602951049805
1781792844635531300,8.51853125,-6.483353137969971,0.43908295035362244,4.517649173736572
1781792844693759200,8.57675927734375,-10.04267692565918,-2.1750757694244385,8.260024070739746
1781792844751987200,8.6349873046875,-9.066405296325684,-1.293320655822754,8.438288688659668
1781792844810215000,8.69321484375,-3.4480574131011963,9.985248565673828,5.958128452301025
1781792844868443000,8.75144287109375,-6.9068827629089355,3.789034605026245,6.346961975097656
1781792844960771000,8.84377099609375,-7.75753116607666,6.491727828979492,5.793622016906738
1781792845009294300,8.89229443359375,-1.8406788110733032,4.275375843048096,6.262016773223877
1781792845057817600,8.940817626953125,-0.544965386390686,1.2580264806747437,8.545368194580078
1781792845106340900,8.9893408203125,0.617946445941925,0.7459624409675598,9.12293529510498
1781792845154864000,9.037864013671875,-0.8949156403541565,1.1072787046432495,7.849056243896484
1781792845203775700,9.086775634765624,-0.8757730722427368,0.4977070987224579,6.2566328048706055
1781792845300434000,9.183433837890625,0.12352947145700455,-1.8113667964935303,4.570889472961426
1781792845348957200,9.231957275390625,1.4709876775741577,-1.3782658576965332,6.473183631896973
1781792845397480400,9.28048046875,1.241276741027832,-1.4404792785644531,12.65743350982666
1781792845446004000,9.32900390625,0.23988047242164612,-2.9653055667877197,14.857633590698242
1781792845494527200,9.37752734375,1.5553346872329712,-6.3361945152282715,14.437394142150879
1781792845543050500,9.426050537109376,2.0593230724334717,-7.943572998046875,14.249856948852539
1781792845591573800,9.47457373046875,0.3038884699344635,-6.126224040985107,13.359726905822754
1781792845640097000,9.523096923828126,-0.9155537486076355,-5.634200096130371,11.410473823547363
1781792845688620300,9.571620361328126,-0.14895321428775787,-6.015556335449219,10.325926780700684
1781792845737143800,9.620143798828124,0.9475577473640442,-6.891329288482666,10.823334693908691
1781792845785666800,9.668666748046874,2.846860647201538,-7.617251873016357,10.512567520141602
1781792845834190300,9.7171904296875,-5.402395248413086,-7.832306861877441,7.621738433837891
1781792845882713600,9.765713623046874,-0.9203394055366516,-7.530212879180908,8.088638305664062
1781792845931236900,9.81423681640625,1.9244276285171509,-8.21276569366455,7.513463020324707
1781792845979760000,9.862760009765625,5.146961688995361,-10.073782920837402,6.92183780670166
1781792846076807000,9.959806884765625,6.423233509063721,-8.315956115722656,2.5372893810272217
1781792846125330200,10.008330078125,4.756333351135254,-7.179365158081055,3.61226487159729
1781792846173853400,10.056853515625,2.8660032749176025,-8.028517723083496,5.937191009521484
1781792846222376700,10.105376708984375,7.670492172241211,-8.291130065917969,6.428019046783447
1781792846270900200,10.153900146484375,9.074481010437012,-7.081259727478027,5.907878875732422
1781792846319423500,10.202423583984375,7.805387496948242,-3.8682968616485596,0.3732803463935852
1781792846367946800,10.25094677734375,3.7525441646575928,-3.6544384956359863,-3.7573297023773193
1781792846464993500,10.34799365234375,6.781259536743164,-8.703293800354004,10.633105278015137
1781792846513516800,10.396516845703125,11.863615036010742,-7.051648139953613,9.073583602905273
1781792846562040300,10.445040283203125,13.021142959594727,-4.4410786628723145,9.043074607849121
1781792846610563600,10.4935634765625,9.099007606506348,-1.9310078620910645,4.537389755249023
1781792846659086800,10.5420869140625,0.8030911087989807,-1.1327024698257446,-1.7404793500900269
1781792846707610000,10.590610107421876,-3.2452657222747803,-2.122433662414551,-0.027816563844680786
1781792846756133400,10.63913330078125,-1.6683956384658813,-1.9639091491699219,4.247260093688965
1781792846804657000,10.687656982421874,1.1222338676452637,-4.908576488494873,3.7725839614868164
1781792846853180200,10.73618017578125,2.7260231971740723,-4.209573268890381,3.4648072719573975
1781792846901703400,10.784703369140624,5.287539958953857,-7.614859104156494,6.3753767013549805
1781792846950227000,10.83322705078125,7.120441913604736,-9.201898574829102,9.084052085876465
1781792846998750500,10.88175048828125,5.556732177734375,-7.8179497718811035,9.679864883422852
1781792847047273700,10.930273681640625,2.690429925918579,-9.471689224243164,13.773984909057617
1781792847095797000,10.978796875,1.9181464910507202,-10.000503540039062,16.552051544189453
1781792847144320300,11.0273203125,-0.3451646566390991,-7.340581893920898,14.808281898498535
1781792847192843800,11.07584375,-8.591130256652832,-4.515854358673096,9.201001167297363
1781792847241367000,11.124366943359375,-3.1268210411071777,-7.817351341247559,7.944769382476807
1781792847289890300,11.172890380859375,1.8272192478179932,-7.5341010093688965,7.399205684661865
1781792847338413800,11.221413818359375,5.702096462249756,-8.709874153137207,5.161318302154541
1781792847386937300,11.269937255859375,-0.3693920075893402,-7.635497093200684,4.509573459625244
1781792847435460600,11.318460693359375,0.24167509377002716,-9.75942611694336,5.286642551422119
1781792847483984000,11.36698388671875,3.027817964553833,-8.901300430297852,3.580260992050171
1781792847581030700,11.46403076171875,3.215355396270752,-4.871188640594482,2.493321180343628
1781792847629554200,11.51255419921875,2.4741785526275635,-4.428516387939453,1.9109679460525513
1781792847678077400,11.561077392578126,5.755635738372803,-6.004190444946289,0.7986045479774475
1781792847726600700,11.6096005859375,4.094119548797607,-13.102499008178711,5.248955726623535
1781792847775124200,11.658124267578126,4.166801452636719,-7.7823567390441895,3.2584261894226074
1781792847823647500,11.7066474609375,5.788238048553467,-8.693124771118164,1.6600207090377808
1781792847872171000,11.7551708984375,6.2566328048706055,-7.621140003204346,2.960519790649414
1781792847920694500,11.803694580078124,5.659923076629639,-8.334200859069824,1.7793627977371216
1781792847969217500,11.852217529296874,4.626223564147949,-7.230212688446045,1.4395818710327148
1781792848017741000,11.900740966796874,2.793919563293457,-4.863112926483154,-0.5799604058265686
1781792848066264300,11.949264404296875,6.482156753540039,-7.75753116607666,4.886742115020752
1781792848114787800,11.997787841796875,5.000401020050049,-10.923833847045898,5.3216376304626465
1781792848163311400,12.046311279296875,3.9514474868774414,-10.179965019226074,3.761517286300659
1781792848211834600,12.094834716796875,4.579264163970947,-13.495519638061523,3.1019954681396484
1781792848260358100,12.143358154296875,6.344868183135986,-11.279168128967285,1.862214207649231
1781792848308881700,12.191881591796875,6.104090690612793,-8.499305725097656,0.8533403873443604
1781792848357405000,12.240405029296875,1.3609179258346558,-1.9157536029815674,-0.9394819736480713
1781792848405928200,12.28892822265625,2.6386852264404297,-4.983352184295654,1.6671991348266602
1781792848454451700,12.33745166015625,3.4953157901763916,-7.546962738037109,2.5076780319213867
1781792848502975000,12.38597509765625,-0.3080759048461914,-6.276373863220215,5.576174259185791
1781792848551498500,12.43449853515625,6.107978820800781,-11.696117401123047,7.281957626342773
1781792848600022000,12.48302197265625,7.042974472045898,-10.49791145324707,5.382953643798828
1781792848648545300,12.531545166015626,-0.384347140789032,-8.098209381103516,3.743271827697754
1781792848697068800,12.58006884765625,-5.187041282653809,-6.639484405517578,4.925924301147461
1781792848745592300,12.62859228515625,-1.2762718200683594,-8.949156761169434,5.966802597045898
1781792848794115600,12.677115478515624,2.0237298011779785,-9.043374061584473,7.022336483001709
1781792848842639000,12.72563916015625,2.3330020904541016,-7.668398380279541,6.647859573364258
1781792848891162400,12.774162353515624,0.875174880027771,-6.610471725463867,5.257031440734863
1781792848939685600,12.822685546875,-1.267298698425293,-6.661618232727051,6.004489421844482
1781792848988209200,12.871209228515625,-1.3773685693740845,-8.080561637878418,6.606583118438721
1781792849085256200,12.968256103515625,-0.4292125701904297,-9.875179290771484,7.194320201873779
1781792849133779700,13.01677978515625,-1.80508553981781,-9.44626522064209,8.792725563049316
1781792849182302700,13.065302734375,-0.4695914387702942,-10.060323715209961,8.606085777282715
1781792849230826200,13.113826171875,-0.20488543808460236,-10.29452133178711,7.3292155265808105
1781792849279349800,13.162349853515625,0.8656035661697388,-9.161520004272461,4.958526611328125
1781792849327873000,13.210873046875,0.4866403043270111,-7.974679470062256,3.5635111331939697
1781792849376396500,13.259396484375,4.12851619720459,-9.442975044250488,1.363310694694519
1781792849424920000,13.307920166015625,0.8231309652328491,-5.828916072845459,1.1276177167892456
1781792849473443300,13.356443359375,2.3359930515289307,-5.062614440917969,0.9828519225120544
1781792849521966800,13.404966796875,6.353542327880859,-6.797111988067627,2.644068956375122
1781792849570490400,13.453490478515626,6.817749977111816,-9.418149948120117,2.107478618621826
1781792849619013600,13.502013671875,2.4511477947235107,-9.079266548156738,2.265105724334717
1781792849667537200,13.550537109375,6.177370548248291,-5.013860702514648,1.4422738552093506
1781792849716060700,13.599060791015624,3.537489175796509,-8.421838760375977,0.7863413691520691
1781792849764584000,13.647583984375,5.6925249099731445,-7.967501163482666,1.7425731420516968
1781792849813107500,13.696107421875,4.618745803833008,-10.066006660461426,2.376671075820923
1781792849861631000,13.744630859375,2.550748825073242,-11.545967102050781,3.609273910522461
1781792849910154200,13.793154296875,1.9591234922409058,-9.503693580627441,4.271188259124756
1781792849973100800,13.856100830078125,2.8390841484069824,-9.122636795043945,3.4851462841033936
1781792850031329000,13.9143291015625,1.1102696657180786,-8.717052459716797,3.7603209018707275
1781792850089557200,13.97255712890625,1.8771693706512451,-8.82233715057373,2.0865414142608643
1781792850147785200,14.03078515625,0.7417750358581543,-8.664410591125488,4.694717884063721
1781792850206013400,14.089013427734375,1.3423734903335571,-8.25404167175293,3.4683964252471924
1781792850264241400,14.147241455078126,0.6221339106559753,-10.353743553161621,1.412961721420288
1781792850322469600,14.2054697265625,0.9882357716560364,-7.576872825622559,-1.404586911201477
1781792850380697600,14.263697509765626,-0.4977070987224579,-9.643074989318848,5.6207404136657715
1781792850438925800,14.32192578125,-0.7680960893630981,-11.182856559753418,0.745364248752594
1781792850497153800,14.38015380859375,-0.10767702013254166,-12.418749809265137,-1.109073281288147
1781792850555382000,14.438382080078124,0.24047867953777313,-10.48654556274414,0.18065811693668365
1781792850613610200,14.4966103515625,0.7525427341461182,-8.864211082458496,0.4331009089946747
1781792850671838200,14.554838134765625,-0.48574298620224,-9.34157943725586,0.4905286431312561
1781792850730066400,14.61306640625,-0.26201409101486206,-10.599007606506348,0.6173482537269592
1781792850788294700,14.671294677734375,0.9571290612220764,-9.4061861038208,0.9511470198631287
1781792850846523000,14.72952294921875,-1.470389485359192,-6.14835786819458,0.22492532432079315
1781792850904750800,14.787750732421875,-1.2538390159606934,-7.654639720916748,0.607776939868927
1781792850962979000,14.84597900390625,-0.13998012244701385,-10.85145092010498,0.625723123550415
1781792851021207000,14.90420703125,-0.50129634141922,-17.164913177490234,-0.38644084334373474
1781792851079435300,14.962435302734375,-0.763310432434082,-11.266605377197266,0.7106683254241943
1781792851137663500,15.02066357421875,-0.09212367236614227,-7.957331657409668,0.4426721930503845
1781792851195891500,15.078891357421876,-0.6352944374084473,-10.715060234069824,0.381655216217041
1781792851254119700,15.13711962890625,-0.26440688967704773,-6.488138675689697,-0.04546362906694412
1781792851312347600,15.19534765625,-0.48095735907554626,-5.850451469421387,-0.259621262550354
1781792851370576000,15.253575927734374,0.3529413342475891,-18.052650451660156,0.5108676552772522
1781792851428804000,15.31180419921875,-0.24526432156562805,-8.327022552490234,-0.711864709854126
1781792851487032300,15.3700322265625,0.745364248752594,-8.989834785461426,-0.8614161610603333
1781792851545260300,15.42826025390625,0.04307080805301666,-10.962717056274414,0.08853443711996078
1781792851603488500,15.486488525390625,0.33738797903060913,-8.854640007019043,0.2967100143432617
1781792851661716700,15.544716796875,-0.05383851006627083,-9.20997428894043,-0.2632105052471161
1781792851719944700,15.60294482421875,0.259621262550354,-10.15872859954834,-0.6340979933738708
1781792851778173000,15.6611728515625,0.059820566326379776,-9.905089378356934,-0.7692924737930298
1781792851836401200,15.719401123046875,0.349352091550827,-9.879964828491211,-0.7094719409942627
1781792851894629000,15.777629150390625,-0.06939185410737991,-10.067801475524902,-0.36251261830329895
1781792851952857300,15.835857421875,0.3002992272377014,-9.919445991516113,-0.589830756187439
1781792852011085600,15.89408544921875,-0.04187439754605293,-9.7064847946167,-0.9080761671066284
1781792852069313800,15.952313720703126,0.19740787148475647,-10.329814910888672,-1.0325030088424683
1781792852127541800,16.010541748046876,0.2392822653055191,-9.722038269042969,-0.7130611538887024
1781792852185770000,16.06877001953125,-0.039481572806835175,-9.986445426940918,-0.47976094484329224
1781792852243998200,16.126998291015624,-0.21774685382843018,-10.328619003295898,-0.06939185410737991
1781792852302226200,16.18522607421875,0.02871387079358101,-9.76391315460205,-0.11724831163883209
1781792852360454400,16.243454345703125,0.33738797903060913,-9.914660453796387,-0.12921242415905
1781792852418682600,16.3016826171875,0.6424728631973267,-10.017552375793457,0.38763725757598877
1781792852476910800,16.359910888671877,0.6161518096923828,-10.065408706665039,0.3314059376716614
1781792852535138800,16.418138916015625,0.3732803463935852,-9.856036186218262,-0.22492532432079315
1781792852593367000,16.476366943359373,-0.02392822690308094,-9.89551830291748,-0.7022934556007385
1781792852651595300,16.53459521484375,-0.16031911969184875,-10.001998901367188,-0.8063812255859375
1781792852709823500,16.592823486328125,-0.12801600992679596,-9.891928672790527,-0.6891329288482666
1781792852768051700,16.6510517578125,-0.04785645380616188,-9.80219841003418,-0.7046862840652466
1781792852826279700,16.70927978515625,-0.04905286431312561,-9.992427825927734,-0.6017948985099792
1781792852884508000,16.7675078125,0.040677983313798904,-9.998409271240234,-0.5611169338226318
1781792852942736100,16.825736083984374,0.061016976833343506,-9.926624298095703,-0.5587241053581238
1781792853000964000,16.883964111328126,0.09810572862625122,-9.929018020629883,-0.4989035129547119
1781792853059192300,16.9421923828125,0.11246266216039658,-9.926624298095703,-0.46899324655532837
1781792853117420500,17.000420654296875,0.11126625537872314,-9.934999465942383,-0.4582255482673645
1781792853175648800,17.058648681640626,0.09212367236614227,-9.984052658081055,-0.4785645306110382
1781792853233877000,17.116876953125,0.07537391036748886,-9.952945709228516,-0.46420758962631226
1781792853292105200,17.175105224609375,0.10049854964017868,-9.954142570495605,-0.4893322288990021
1781792853350333200,17.233333251953123,0.10767702013254166,-9.92542839050293,-0.5850451588630676
1781792853413547800,17.2965478515625,0.11306086927652359,-9.976275444030762,-0.6035895347595215
1781792853462071000,17.345071044921873,0.10827522724866867,-9.924830436706543,-0.5318048596382141
1781792853510594600,17.393594482421875,0.11186445504426956,-9.906285285949707,-0.5210371017456055
1781792853559118000,17.4421181640625,0.08075776696205139,-9.936494827270508,-0.5039882659912109
1781792853607641600,17.4906416015625,0.05174478888511658,-9.93978500366211,-0.4938187599182129
1781792853656165000,17.5391650390625,0.035892341285943985,-9.968499183654785,-0.5078766345977783
1781792853704688400,17.5876884765625,0.05174478888511658,-9.941280364990234,-0.5350949764251709
1781792853753212200,17.636212158203126,0.05114658549427986,-9.9469633102417,-0.5210371017456055
1781792853801735700,17.684735595703124,0.0891326442360878,-9.934102058410645,-0.5144568681716919
1781792853850259000,17.733259033203126,0.14895321428775787,-9.909575462341309,-0.4085744619369507
1781792853898782500,17.781782470703124,0.13459627330303192,-9.951150894165039,-0.43609192967414856
1781792853947306000,17.830305908203126,0.16420745849609375,-9.917352676391602,-0.4217349886894226
1781792853995829200,17.878829345703124,0.1453639715909958,-9.965508460998535,-0.45134615898132324
1781792854044352800,17.927352783203126,0.14745768904685974,-9.954740524291992,-0.46809592843055725
1781792854092876300,17.975876220703125,0.12831512093544006,-9.969097137451172,-0.4627120792865753
1781792854141399800,18.02439990234375,0.13968102633953094,-9.969097137451172,-0.4450650215148926
1781792854189923300,18.07292333984375,0.1417747437953949,-9.947860717773438,-0.45942193269729614
1781792854238447000,18.121447021484375,0.15613168478012085,-9.924830436706543,-0.4537389874458313
1781792854286970400,18.169970458984373,0.19292132556438446,-9.933504104614258,-0.4369892477989197
1781792854335494000,18.218493896484375,0.17168502509593964,-9.981958389282227,-0.46719861030578613
1781792854384017400,18.267017333984374,0.18484555184841156,-9.959526062011719,-0.4911268353462219
1781792854432540700,18.315540771484375,0.17138592898845673,-9.943673133850098,-0.4546363055706024
1781792854481064200,18.364064208984374,0.18364913761615753,-9.921540260314941,-0.42412781715393066
1781792854578111200,18.461111328125,0.19531415402889252,-9.957133293151855,-0.4833501875400543
1781792854626634800,18.509634765625,0.20488543808460236,-9.948758125305176,-0.46480581164360046
1781792854675158300,18.558158203125,0.22163519263267517,-9.96999454498291,-0.4585246443748474
1781792854723681800,18.606681884765624,0.23778675496578217,-9.938289642333984,-0.4537389874458313
1781792854772205300,18.655205322265626,0.2273181527853012,-9.927821159362793,-0.4139583110809326
1781792854820728600,18.703728515625,0.22432711720466614,-9.958030700683594,-0.4417748749256134
1781792854869252000,18.752252197265626,0.21236300468444824,-9.928718566894531,-0.44745782017707825
1781792854917775600,18.800775634765625,0.22163519263267517,-9.971489906311035,-0.43549370765686035
1781792854966299100,18.849299072265627,0.21385852992534637,-9.961918830871582,-0.4325026869773865
1781792855014822700,18.89782275390625,0.23030917346477509,-9.951749801635742,-0.4226323068141937
1781792855063346000,18.946345947265623,0.24556341767311096,-9.952347755432129,-0.4450650215148926
1781792855111869700,18.99486962890625,0.21714866161346436,-9.94845962524414,-0.4537389874458313
1781792855160393200,19.043393310546875,0.2063809484243393,-9.949954986572266,-0.46480581164360046
1781792855208916700,19.091916748046874,0.20967108011245728,-9.938289642333984,-0.4585246443748474
1781792855257440000,19.14043994140625,0.2063809484243393,-9.947860717773438,-0.44835513830184937
1781792855305963500,19.188963623046874,0.2027917206287384,-9.948758125305176,-0.4746761918067932
1781792855354487000,19.237487060546876,0.21146570146083832,-9.949356079101562,-0.4660021960735321
1781792855403010600,19.286010498046874,0.20488543808460236,-9.9469633102417,-0.4785645306110382
1781792855451534000,19.3345341796875,0.19680966436862946,-9.933504104614258,-0.4737788736820221
1781792855500057600,19.3830576171875,0.2153540402650833,-9.944570541381836,-0.4570291340351105
1781792855548580900,19.431580810546876,0.20488543808460236,-9.940383911132812,-0.4531407952308655
1781792855597104600,19.480104736328126,0.2027917206287384,-9.949954986572266,-0.42681974172592163
1781792855645628000,19.5286279296875,0.20428723096847534,-9.933504104614258,-0.4546363055706024
1781792855694151400,19.5771513671875,0.22163519263267517,-9.926026344299316,-0.4289134442806244
1781792855742675000,19.625675048828125,0.19710876047611237,-9.96281623840332,-0.4139583110809326
1781792855791198200,19.6741982421875,0.19381862878799438,-9.941280364990234,-0.43130627274513245
1781792855839722000,19.722721923828125,0.1698904037475586,-9.945169448852539,-0.4384847581386566
1781792855888245500,19.77124560546875,0.1788634955883026,-9.961918830871582,-0.4489533603191376
1781792855936768800,19.819768798828125,0.1704886108636856,-9.93679428100586,-0.4372883439064026
1781792855985292300,19.868292236328124,0.1827518343925476,-9.943075180053711,-0.4546363055706024
1781792856082339300,19.96533935546875,0.19142581522464752,-9.941280364990234,-0.46480581164360046
1781792856130862800,20.01386279296875,0.1818545162677765,-9.951749801635742,-0.46002015471458435
1781792856179386400,20.062386474609376,0.17617157101631165,-9.948758125305176,-0.47228336334228516
1781792856227909600,20.11090966796875,0.1707877218723297,-9.924830436706543,-0.46480581164360046
1781792856276433200,20.15943310546875,0.16271193325519562,-9.94397258758545,-0.4827519655227661
1781792856324957000,20.20795703125,0.1501496136188507,-9.954740524291992,-0.45553362369537354
1781792856373480200,20.256480224609376,0.1498505175113678,-9.93679428100586,-0.47198426723480225
1781792856422003700,20.305003662109375,0.16271193325519562,-9.937990188598633,-0.43968117237091064
1781792856470527200,20.35352734375,0.1579262912273407,-9.950852394104004,-0.4504488706588745
1781792856519050500,20.402050537109375,0.15643078088760376,-9.941280364990234,-0.4369892477989197
1781792856567574000,20.450573974609377,0.15254244208335876,-9.946066856384277,-0.4585246443748474
1781792856616097800,20.499097900390623,0.17318053543567657,-9.957133293151855,-0.4465605318546295
1781792856664621000,20.54762109375,0.15314064919948578,-9.95563793182373,-0.4537389874458313
1781792856713144600,20.59614453125,0.1824527233839035,-9.93679428100586,-0.4372883439064026
1781792856761668000,20.644668212890625,0.16899310052394867,-9.957133293151855,-0.46331027150154114
1781792856810191400,20.69319140625,0.18364913761615753,-9.923933029174805,-0.5030909776687622
1781792856858715000,20.74171484375,0.16839489340782166,-9.940383911132812,-0.4905286431312561
1781792856907238700,20.79023876953125,0.16749759018421173,-9.95982551574707,-0.4695914387702942
1781792856955762000,20.838761962890626,0.16809579730033875,-9.938289642333984,-0.4704887568950653
1781792857004285400,20.887285400390624,0.1537388563156128,-9.943075180053711,-0.41964125633239746
1781792857052809000,20.93580908203125,0.15314064919948578,-9.9469633102417,-0.40737804770469666
1781792857101332200,20.984332275390624,0.15732808411121368,-9.9502534866333,-0.353240430355072
1781792857149855700,21.032855712890626,0.20997019112110138,-9.895816802978516,-0.267397940158844
1781792857198379300,21.081379150390624,0.21625134348869324,-9.954740524291992,-0.35892340540885925
1781792857246903000,21.129903076171875,0.22971096634864807,-9.995418548583984,-0.5126622319221497
1781792857295426300,21.17842626953125,0.20039889216423035,-9.951150894165039,-0.6173482537269592
1781792857343949800,21.22694970703125,0.21385852992534637,-9.903294563293457,-0.5727819204330444
1781792857392473300,21.275473388671877,0.18095721304416656,-9.957432746887207,-0.6143572330474854
1781792857440996600,21.32399658203125,0.2153540402650833,-9.910174369812012,-0.594915509223938
1781792857489520000,21.37252001953125,0.1860419660806656,-9.981060981750488,-0.5901299118995667
1781792857538043600,21.421043701171875,0.21385852992534637,-9.957133293151855,-0.527019202709198
1781792857586567200,21.469567138671874,0.2353939265012741,-9.8871431350708,-0.45553362369537354
1781792857635090700,21.518090576171875,0.2386840581893921,-9.958329200744629,-0.33499518036842346
1781792857683614200,21.5666142578125,0.23030917346477509,-9.993324279785156,-0.32961133122444153
1781792857732137500,21.615137451171876,0.22642084956169128,-9.949356079101562,-0.3690928816795349
1781792857780661000,21.663660888671874,0.2231307178735733,-9.958030700683594,-0.43609192967414856
1781792857829184500,21.7121845703125,0.22013968229293823,-9.952646255493164,-0.4061816334724426
1781792857877707800,21.760707763671874,0.22432711720466614,-9.931709289550781,-0.3891327679157257
1781792857926231300,21.809231201171876,0.19142581522464752,-9.951749801635742,-0.3981058597564697
1781792857974755000,21.857755126953126,0.1785643845796585,-9.963115692138672,-0.4253242313861847
1781792858023278300,21.9062783203125,0.1704886108636856,-9.928718566894531,-0.4531407952308655
1781792858071801900,21.9548017578125,0.16031911969184875,-9.93559741973877,-0.44446679949760437
1781792858120325400,22.003325439453125,0.1618146300315857,-9.94397258758545,-0.42831525206565857
1781792858168848600,22.0518486328125,0.12771691381931305,-9.972686767578125,-0.4698905348777771
1781792858217372200,22.1003720703125,0.12502498924732208,-9.955936431884766,-0.5150550603866577
1781792858265895700,22.148895751953123,0.12053844332695007,-9.95563793182373,-0.5225326418876648
1781792858314419000,22.1974189453125,0.15942180156707764,-9.984650611877441,-0.4205385744571686
1781792858362942500,22.2459423828125,0.16121642291545868,-9.90688419342041,-0.45523449778556824
1781792858411466000,22.294466064453125,0.19770696759223938,-9.93978500366211,-0.45643091201782227
1781792858459989800,22.34298974609375,0.1947159469127655,-9.913464546203613,-0.4369892477989197
1781792858508513000,22.391512939453126,0.18813568353652954,-9.917352676391602,-0.4220340847969055
1781792858557036500,22.44003662109375,0.10588239878416061,-9.961320877075195,-0.4336991012096405
1781792858605560000,22.48856005859375,0.08374879509210587,-9.938289642333984,-0.5350949764251709
1781792858654083300,22.537083251953124,0.1013958603143692,-9.960423469543457,-0.5359922647476196
1781792858702606800,22.58560693359375,0.08374879509210587,-9.93679428100586,-0.5700899958610535
1781792858751130400,22.63413037109375,0.07836493849754333,-9.955936431884766,-0.5748756527900696
1781792858799653600,22.682653564453126,0.07986045628786087,-9.929316520690918,-0.4737788736820221
1781792858848177200,22.73117724609375,0.12921242415905,-9.927821159362793,-0.49591249227523804
1781792858896700700,22.77970068359375,0.1540379524230957,-10.01456069946289,-0.5904290080070496
1781792858945224000,22.828223876953125,0.16510476171970367,-9.941280364990234,-0.6340979933738708
1781792858993747500,22.87674755859375,0.20338992774486542,-9.879067420959473,-0.5967101454734802
1781792859042271000,22.92527099609375,0.1986042857170105,-9.939187049865723,-0.4456632137298584
1781792859090794200,22.973794189453123,0.16031911969184875,-9.92243766784668,-0.39571303129196167
1781792859139317800,23.02231787109375,0.1052841991186142,-9.981060981750488,-0.4211367964744568
1781792859187841300,23.07084130859375,0.06699903309345245,-9.965508460998535,-0.5485545992851257
1781792859236364500,23.119364501953125,0.08554340898990631,-9.9140625,-0.6197410821914673
1781792859284888000,23.16788818359375,0.11485548317432404,-9.942776679992676,-0.5614160299301147
1781792859333411800,23.216411865234374,0.13100704550743103,-9.927821159362793,-0.49232324957847595
1781792859381935000,23.26493505859375,0.1498505175113678,-9.929316520690918,-0.4570291340351105
1781792859430458600,23.313458740234374,0.16091732680797577,-9.949954986572266,-0.4387838542461395
1781792859478982100,23.361982177734376,0.17647066712379456,-9.943075180053711,-0.4130610227584839
1781792859527505400,23.41050537109375,0.1698904037475586,-9.958928108215332,-0.45523449778556824
1781792859576029000,23.45902880859375,0.15972091257572174,-9.958928108215332,-0.49202415347099304
1781792859624552400,23.507552490234374,0.13489536941051483,-9.960423469543457,-0.5009972453117371
1781792859673075700,23.55607568359375,0.15882360935211182,-9.958329200744629,-0.49680981040000916
1781792859721599200,23.60459912109375,0.15254244208335876,-9.939187049865723,-0.4911268353462219
1781792859770122800,23.653122802734377,0.1579262912273407,-9.950852394104004,-0.5126622319221497
1781792859818646000,23.70164599609375,0.1827518343925476,-9.926923751831055,-0.4468596279621124
1781792859867169500,23.75016943359375,0.1618146300315857,-9.915258407592773,-0.3885345757007599
1781792859915693000,23.798693115234375,0.1498505175113678,-9.970293998718262,-0.3900300860404968
1781792859964216300,23.84721630859375,0.13878370821475983,-9.98136043548584,-0.5805585980415344
1781792860012739600,23.895739501953123,0.1378864049911499,-9.948758125305176,-0.6900302171707153
1781792860061263000,23.94426318359375,0.1779661774635315,-9.913464546203613,-0.605384111404419
1781792860109786600,23.99278662109375,0.21774685382843018,-9.905388832092285,-0.36221352219581604
1781792860158310000,24.041309814453125,0.21236300468444824,-9.945467948913574,-0.23270200192928314
1781792860206833400,24.08983349609375,0.14416755735874176,-10.0073823928833,-0.3798605799674988
1781792860255357000,24.13835693359375,0.10049854964017868,-9.958030700683594,-0.6804589629173279
1781792860303880200,24.186880126953124,0.10468599200248718,-9.903892517089844,-0.6873382925987244
1781792860352403700,24.23540380859375,0.15164513885974884,-9.887741088867188,-0.4489533603191376
1781792860400927200,24.28392724609375,0.19920247793197632,-9.96999454498291,-0.2841476798057556
1781792860449450500,24.332450439453126,0.15732808411121368,-9.993324279785156,-0.46091747283935547
1781792860497974000,24.38097412109375,0.12113664299249649,-9.917352676391602,-0.6275177597999573
1781792860546497500,24.42949755859375,0.12053844332695007,-9.929316520690918,-0.597308337688446
1781792860595020800,24.478020751953125,0.1501496136188507,-9.926923751831055,-0.4450650215148926
1781792860643544300,24.52654443359375,0.1660020649433136,-9.952347755432129,-0.39541393518447876
1781792860692067800,24.57506787109375,0.1579262912273407,-9.973882675170898,-0.4507479667663574
1781792860740590800,24.6235908203125,0.14685949683189392,-9.937392234802246,-0.5105685591697693
1781792860789114400,24.6721142578125,0.14416755735874176,-9.936494827270508,-0.5590232014656067
1781792860837638000,24.720637939453123,0.1540379524230957,-9.926026344299316,-0.4914259612560272
1781792860886161200,24.7691611328125,0.1779661774635315,-9.939187049865723,-0.42352959513664246
1781792860934684700,24.8176845703125,0.1660020649433136,-9.939187049865723,-0.3924229145050049
1781792860983208200,24.866208251953125,0.15702898800373077,-9.954740524291992,-0.4417748749256134
1781792861031731500,24.9147314453125,0.13878370821475983,-9.955039978027344,-0.45523449778556824
1781792861080255000,24.9632548828125,0.1453639715909958,-9.908080101013184,-0.5225326418876648
1781792861128778500,25.011778564453124,0.12861421704292297,-9.94845962524414,-0.5057829022407532
1781792861177301500,25.060301513671874,0.125922292470932,-9.969097137451172,-0.48424747586250305
1781792861225825000,25.108824951171876,0.11156535893678665,-9.934102058410645,-0.5234299302101135
1781792861274348500,25.1573486328125,0.11545369029045105,-9.945169448852539,-0.5413761138916016
1781792861322871800,25.205871826171876,0.13220344483852386,-9.947562217712402,-0.5306084156036377
1781792861371395300,25.254395263671874,0.14027923345565796,-9.950852394104004,-0.49202415347099304
1781792861419918800,25.3029189453125,0.15972091257572174,-9.953543663024902,-0.48484569787979126
1781792861468441900,25.35144189453125,0.16331014037132263,-9.940682411193848,-0.47676992416381836
1781792861516965400,25.39996533203125,0.1537388563156128,-9.9469633102417,-0.46420758962631226
1781792861614012400,25.497012451171877,0.13160525262355804,-9.953543663024902,-0.47916272282600403
1781792861662535700,25.54553564453125,0.12681959569454193,-9.963713645935059,-0.5102694034576416
1781792861711059200,25.59405908203125,0.1453639715909958,-9.920642852783203,-0.5024927258491516
1781792861759582500,25.64258251953125,0.12741780281066895,-9.947562217712402,-0.489631325006485
1781792861808105700,25.691105712890625,0.14656038582324982,-9.932008743286133,-0.46331027150154114
1781792861856629200,25.739629150390623,0.1010967567563057,-9.958329200744629,-0.5168496966362
1781792861905152800,25.78815283203125,0.11096715182065964,-9.945169448852539,-0.5042873620986938
1781792861953675800,25.83667578125,0.10289137065410614,-9.938887596130371,-0.5138586759567261
1781792862002199300,25.88519921875,0.11485548317432404,-9.942177772521973,-0.5168496966362
1781792862050722800,25.933722900390624,0.12861421704292297,-9.945169448852539,-0.5066801905632019
1781792862099246000,25.98224609375,0.13100704550743103,-9.930811882019043,-0.5150550603866577
1781792862147769600,26.03076953125,0.1459621787071228,-9.951150894165039,-0.47796630859375
1781792862196292900,26.07929296875,0.13459627330303192,-9.949954986572266,-0.5081757307052612
1781792862244816100,26.127816162109376,0.12023933976888657,-9.943673133850098,-0.48095735907554626
1781792862293339600,26.176339599609374,0.12382857501506805,-9.961320877075195,-0.5234299302101135
1781792862341863200,26.22486328125,0.11904292553663254,-9.92124080657959,-0.5303093194961548
1781792862390386200,26.27338623046875,0.13579268753528595,-9.955039978027344,-0.5105685591697693
1781792862438909700,26.32190966796875,0.11156535893678665,-9.937392234802246,-0.48813581466674805
1781792862487433200,26.37043310546875,0.11066804826259613,-9.95982551574707,-0.49202415347099304
1781792862535956200,26.418956298828125,0.1010967567563057,-9.945467948913574,-0.5006981492042542
1781792862584479700,26.467479736328126,0.1178465187549591,-9.93978500366211,-0.4899304509162903
1781792862633003300,26.516003173828125,0.11096715182065964,-9.957133293151855,-0.489631325006485
1781792862681526500,26.564526611328127,0.13459627330303192,-9.938887596130371,-0.4938187599182129
1781792862730049800,26.6130498046875,0.129810631275177,-9.92841911315918,-0.5216353535652161
1781792862778573300,26.6615732421875,0.13639089465141296,-9.947562217712402,-0.5111667513847351
1781792862827096600,26.7100966796875,0.13878370821475983,-9.943075180053711,-0.5018945336341858
1781792862875619800,26.758619873046875,0.11964113265275955,-9.943075180053711,-0.4911268353462219
1781792862924143400,26.807143310546873,0.11156535893678665,-9.952646255493164,-0.5102694034576416
1781792862972666600,26.85566650390625,0.12382857501506805,-9.931111335754395,-0.5282155871391296
1781792863021190000,26.90418994140625,0.11904292553663254,-9.934999465942383,-0.508773922920227
1781792863069713400,26.95271337890625,0.11724831163883209,-9.942177772521973,-0.5009972453117371
1781792863118236700,27.001236572265626,0.09631111472845078,-9.946365356445312,-0.5159524083137512
1781792863166760000,27.049760009765624,0.10767702013254166,-9.957432746887207,-0.49591249227523804
1781792863215283500,27.098283447265626,0.10348957777023315,-9.945169448852539,-0.5096712112426758
1781792863263806700,27.146806640625,0.11156535893678665,-9.940383911132812,-0.4899304509162903
1781792863312330000,27.195330078125,0.11665010452270508,-9.934401512145996,-0.5216353535652161
1781792863360853500,27.243853515625,0.09810572862625122,-9.947562217712402,-0.5327021479606628
1781792863409376500,27.29237646484375,0.1010967567563057,-9.948758125305176,-0.5126622319221497
1781792863457900000,27.340900146484376,0.10677970945835114,-9.945467948913574,-0.48394837975502014
1781792863506423600,27.389423583984374,0.10199406743049622,-9.937990188598633,-0.4651049077510834
1781792863554946600,27.437946533203124,0.09421738982200623,-9.960423469543457,-0.5135595798492432
1781792863603470000,27.486469970703126,0.10827522724866867,-9.904491424560547,-0.5201398134231567
1781792863651993300,27.534993408203125,0.09092725813388824,-9.97418212890625,-0.48723849654197693
1781792863700516600,27.5835166015625,0.09900303930044174,-9.941280364990234,-0.47198426723480225
1781792863749040000,27.6320400390625,0.09661021083593369,-9.92841911315918,-0.4863412082195282
1781792863797563400,27.6805634765625,0.08763712644577026,-9.958030700683594,-0.4992026388645172
1781792863846086700,27.729086669921877,0.07597211748361588,-9.942776679992676,-0.5359922647476196
1781792863894610000,27.77760986328125,0.07956135272979736,-9.942177772521973,-0.5138586759567261
1781792863943133400,27.826133544921873,0.0933200865983963,-9.93260669708252,-0.5279164910316467
1781792863991656400,27.874656494140623,0.09661021083593369,-9.945467948913574,-0.5246263742446899
1781792864040180000,27.923179931640625,0.10707881301641464,-9.951150894165039,-0.5234299302101135
1781792864088703500,27.971703369140624,0.1013958603143692,-9.948758125305176,-0.5072783827781677
1781792864137226500,28.0202265625,0.11066804826259613,-9.965209007263184,-0.5207380056381226
1781792864185750000,28.06875,0.10378868132829666,-9.93260669708252,-0.542572557926178
1781792864234273300,28.117273193359374,0.10378868132829666,-9.93559741973877,-0.527019202709198
1781792864282796500,28.165796630859376,0.0975075215101242,-9.941280364990234,-0.5102694034576416
1781792864331319800,28.21431982421875,0.07896314561367035,-9.945467948913574,-0.5153541564941406
1781792864379843300,28.26284326171875,0.07806584239006042,-9.965209007263184,-0.5330012440681458
1781792864428366300,28.311366455078126,0.07238288223743439,-9.934102058410645,-0.5159524083137512
1781792864476889900,28.359889892578124,0.09481559693813324,-9.942177772521973,-0.508773922920227
1781792864525413000,28.4084130859375,0.10827522724866867,-9.957133293151855,-0.5000999569892883
1781792864573936400,28.456936279296876,0.09870393574237823,-9.91825008392334,-0.5389832854270935
1781792864622459600,28.505459716796874,0.08195417374372482,-9.95563793182373,-0.5512465238571167
1781792864670983200,28.553983154296876,0.08045866340398788,-9.933504104614258,-0.5330012440681458
1781792864719506200,28.602506103515626,0.07088737189769745,-9.951749801635742,-0.5111667513847351
1781792864768029700,28.65102978515625,0.06550352275371552,-9.951749801635742,-0.5282155871391296
1781792864816553000,28.699552978515626,0.09092725813388824,-9.940383911132812,-0.5560321807861328
1781792864865076000,28.748075927734376,0.07657032459974289,-9.943075180053711,-0.5312066078186035
1781792864913599500,28.796599609375,0.09032905846834183,-9.950852394104004,-0.4983053207397461
1781792864962122800,28.845122802734377,0.07238288223743439,-9.943673133850098,-0.5303093194961548
1781792865010646000,28.89364599609375,0.08135596662759781,-9.937990188598633,-0.5258227586746216
1781792865059169300,28.942169189453125,0.06281159073114395,-9.949954986572266,-0.5288137793540955
1781792865107692800,28.99069287109375,0.06610172241926193,-9.934401512145996,-0.550349235534668
1781792865156215800,29.0392158203125,0.07746763527393341,-9.94397258758545,-0.5383850932121277
1781792865204739000,29.087739013671875,0.07238288223743439,-9.937392234802246,-0.5509474277496338
1781792865253262600,29.1362626953125,0.10827522724866867,-9.941579818725586,-0.5282155871391296
1781792865301785600,29.18478564453125,0.06999006122350693,-9.946365356445312,-0.5440680384635925
1781792865350309000,29.23330908203125,0.08464609831571579,-9.950852394104004,-0.529412031173706
1781792865398832400,29.281832275390624,0.06281159073114395,-9.958030700683594,-0.5461617708206177
1781792865447355400,29.33035546875,0.10199406743049622,-9.90688419342041,-0.5440680384635925
1781792865495879000,29.37887890625,0.07178468257188797,-9.962218284606934,-0.529412031173706
1781792865544402200,29.427402099609374,0.07567301392555237,-9.938887596130371,-0.49292147159576416
1781792865592925700,29.47592578125,0.07567301392555237,-9.949954986572266,-0.5210371017456055
1781792865641448700,29.52444873046875,0.07806584239006042,-9.946066856384277,-0.5009972453117371
1781792865689972000,29.572971923828124,0.06071787327528,-9.91825008392334,-0.5368895530700684
1781792865738495500,29.62149560546875,0.059820566326379776,-9.957432746887207,-0.5344967842102051
1781792865787018500,29.6700185546875,0.05503492057323456,-9.916455268859863,-0.5273182988166809
1781792865835541800,29.718541748046874,0.06131608039140701,-9.931709289550781,-0.5162515044212341
1781792865884065300,29.767065185546876,0.07118647545576096,-9.982257843017578,-0.39960137009620667
1781792865932588300,29.81558837890625,0.08135596662759781,-9.941579818725586,-0.48394837975502014
1781792865981111600,29.864111572265625,0.1010967567563057,-9.948758125305176,-0.5330012440681458
1781792866029635000,29.912635009765626,0.1378864049911499,-9.963713645935059,-0.5273182988166809
1781792866078158000,29.961157958984376,0.12502498924732208,-9.909276962280273,-0.5177469849586487
1781792866126681300,30.009681396484375,0.14057832956314087,-9.923933029174805,-0.5240281820297241
1781792866175204900,30.058204833984377,0.11814561486244202,-9.961918830871582,-0.3852444589138031
1781792866223727900,30.106727783203127,0.12023933976888657,-9.96281623840332,-0.4426721930503845
1781792866272251100,30.155251220703125,0.028115665540099144,-9.91825008392334,-0.5551348328590393
1781792866320774100,30.203774169921875,-0.06610172241926193,-9.934102058410645,-0.737587571144104
1781792866369297700,30.252297607421873,-0.07178468257188797,-9.95563793182373,-0.8273184299468994
1781792866417821000,30.300821044921875,0.024526432156562805,-9.958030700683594,-0.6786643266677856
1781792866466344000,30.349343994140625,0.10378868132829666,-9.947860717773438,-0.5327021479606628
1781792866514867500,30.397867431640623,0.1378864049911499,-9.940682411193848,-0.46839502453804016
1781792866563390700,30.446390625,0.1866401731967926,-9.917651176452637,-0.4776672124862671
1781792866611913700,30.494913818359375,0.1866401731967926,-9.899106979370117,-0.5072783827781677
1781792866660437000,30.54343701171875,0.15702898800373077,-9.923035621643066,-0.5186443328857422
1781792866708960500,30.59196044921875,0.13310076296329498,-9.971789360046387,-0.5105685591697693
1781792866757483500,30.6404833984375,0.08673982322216034,-9.959526062011719,-0.5054838061332703
1781792866806006800,30.6890068359375,0.08315058797597885,-9.956535339355469,-0.5264210104942322
1781792866854530000,30.737530029296874,0.08075776696205139,-9.987043380737305,-0.47617170214653015
1781792866903053300,30.78605322265625,0.125324085354805,-9.991828918457031,-0.527019202709198
1781792866951576600,30.83457666015625,0.15613168478012085,-9.902996063232422,-0.46719861030578613
1781792867000099800,30.883099853515624,0.16121642291545868,-9.881460189819336,-0.47557350993156433
1781792867048622800,30.931622802734374,0.14895321428775787,-9.957432746887207,-0.5258227586746216
1781792867097146000,30.98014599609375,0.10348957777023315,-9.982257843017578,-0.5009972453117371
1781792867145669600,31.028669677734374,0.1091725304722786,-9.934401512145996,-0.4489533603191376
1781792867194192600,31.077192626953124,0.09661021083593369,-9.926923751831055,-0.5368895530700684
1781792867242716000,31.1257158203125,0.11904292553663254,-9.941579818725586,-0.4863412082195282
1781792867291239200,31.1742392578125,0.1618146300315857,-10.003494262695312,-0.3819543123245239
1781792867339762200,31.22276220703125,0.1866401731967926,-9.9502534866333,-0.355932354927063
1781792867388285400,31.271285400390624,0.1824527233839035,-9.89133071899414,-0.4205385744571686
1781792867436809000,31.31980908203125,0.19142581522464752,-9.945169448852539,-0.4301098585128784
1781792867485332000,31.36833203125,0.1339980661869049,-9.934999465942383,-0.45643091201782227
1781792867533855200,31.416855224609375,0.0933200865983963,-9.94845962524414,-0.5138586759567261
1781792867582378500,31.46537841796875,0.11575279384851456,-9.996315956115723,-0.5389832854270935
1781792867630901500,31.513901611328127,0.15732808411121368,-9.960423469543457,-0.46480581164360046
1781792867679424800,31.5624248046875,0.14416755735874176,-9.891928672790527,-0.5186443328857422
1781792867727948300,31.6109482421875,0.18035900592803955,-9.878469467163086,-0.5533402562141418
1781792867776471300,31.65947119140625,0.15942180156707764,-9.919745445251465,-0.5904290080070496
1781792867824994600,31.70799462890625,0.11186445504426956,-10.025029182434082,-0.6062814593315125
1781792867873517800,31.756517822265625,0.125922292470932,-9.92542839050293,-0.393320232629776
1781792867922040800,31.805040771484375,0.15493527054786682,-9.99571704864502,-0.41874396800994873
1781792867970564000,31.853564208984373,0.21595224738121033,-9.934102058410645,-0.2590230405330658
1781792868019087400,31.90208740234375,0.19292132556438446,-9.978668212890625,-0.38614174723625183
1781792868067610400,31.9506103515625,0.19142581522464752,-9.90688419342041,-0.32542386651039124
1781792868116133600,31.999133544921875,0.15463615953922272,-9.966106414794922,-0.2638086974620819
1781792868164657000,32.04765698242188,0.07118647545576096,-10.006784439086914,-0.33439695835113525
1781792868213180200,32.09618017578125,0.01375873014330864,-10.032208442687988,-0.45134615898132324
1781792868261703400,32.14470336914062,0.04785645380616188,-9.91286563873291,-0.5210371017456055
1781792868310226700,32.193226806640624,0.16689938306808472,-9.831509590148926,-0.41485562920570374
1781792868358749700,32.241749755859374,0.1986042857170105,-9.847362518310547,-0.3595215976238251
1781792868407273000,32.29027294921875,0.1052841991186142,-10.009177207946777,-0.508773922920227
1781792868455796200,32.338796142578126,0.04127619042992592,-9.990633010864258,-0.6586244106292725
1781792868504319200,32.3873193359375,0.030209386721253395,-9.8871431350708,-0.8105686902999878
1781792868552842500,32.43584252929688,0.04486542567610741,-9.919147491455078,-0.6478567123413086
1781792868601365800,32.48436572265625,0.09152546525001526,-9.947860717773438,-0.539880633354187
1781792868649888800,32.532888671875,0.10378868132829666,-9.976574897766113,-0.5030909776687622
1781792868698412000,32.581412109375,0.1420738399028778,-9.958329200744629,-0.4498506486415863
1781792868746935300,32.629935302734374,0.14835500717163086,-9.966704368591309,-0.4833501875400543
1781792868795458300,32.678458251953124,0.17228323221206665,-9.92542839050293,-0.37806597352027893
1781792868843981600,32.726981689453126,0.15164513885974884,-9.943075180053711,-0.39870408177375793
1781792868892504800,32.7755048828125,0.13878370821475983,-9.967901229858398,-0.40767714381217957
1781792868941027800,32.82402783203125,0.15972091257572174,-9.949954986572266,-0.45553362369537354
1781792868989551000,32.87255102539063,0.1621137410402298,-9.946066856384277,-0.48424747586250305
1781792869038074400,32.92107446289062,0.11575279384851456,-9.928718566894531,-0.49621158838272095
1781792869086597400,32.96959741210937,0.14297115802764893,-9.93978500366211,-0.4298107624053955
1781792869135120600,33.01812060546875,0.12352947145700455,-9.969396591186523,-0.45164528489112854
1781792869183644000,33.066643798828125,0.15553347766399384,-9.927821159362793,-0.4369892477989197
1781792869232167000,33.1151669921875,0.14446666836738586,-9.960722923278809,-0.4178466498851776
1781792869280690200,33.163690185546876,0.16809579730033875,-9.92841911315918,-0.4537389874458313
1781792869329213400,33.21221337890625,0.1824527233839035,-9.935896873474121,-0.45613181591033936
1781792869377736400,33.260736328125,0.1657029688358307,-9.967601776123047,-0.4579264223575592
1781792869426259700,33.309259765625,0.18364913761615753,-9.93559741973877,-0.4704887568950653
1781792869474783000,33.35778295898437,0.16689938306808472,-9.94845962524414,-0.44835513830184937
1781792869523306000,33.40630590820312,0.1746760457754135,-9.955936431884766,-0.4698905348777771
1781792869571829200,33.454829345703125,0.17138592898845673,-9.902098655700684,-0.4507479667663574
1781792869620352500,33.5033525390625,0.14297115802764893,-9.970891952514648,-0.43489551544189453
1781792869668875500,33.55187548828125,0.14416755735874176,-9.9469633102417,-0.4307080805301666
1781792869717398800,33.60039868164063,0.14446666836738586,-9.966106414794922,-0.41575294733047485
1781792869765922000,33.64892211914062,0.1453639715909958,-9.958928108215332,-0.4217349886894226
1781792869814444800,33.69744482421875,0.15553347766399384,-9.939187049865723,-0.3981058597564697
1781792869862968000,33.74596801757812,0.16749759018421173,-9.954142570495605,-0.41874396800994873
1781792869911491000,33.79449096679687,0.1704886108636856,-9.926026344299316,-0.41066819429397583
1781792869960014300,33.84301440429687,0.16899310052394867,-9.939187049865723,-0.41485562920570374
1781792870008537600,33.89153759765625,0.16271193325519562,-9.954740524291992,-0.4019941985607147
1781792870057060600,33.940060546875,0.15224334597587585,-9.954142570495605,-0.38344982266426086
1781792870105583900,33.988583984375,0.1498505175113678,-9.960423469543457,-0.4259224236011505
1781792870154107100,34.03710717773438,0.15972091257572174,-9.931709289550781,-0.4618147611618042
1781792870202630100,34.08563012695313,0.16749759018421173,-9.937392234802246,-0.393320232629776
1781792870251153200,34.13415307617188,0.18484555184841156,-9.938887596130371,-0.40677985548973083
1781792870299676400,34.18267651367187,0.1788634955883026,-9.947562217712402,-0.41874396800994873
1781792870348199400,34.23119946289062,0.18723836541175842,-9.951150894165039,-0.41485562920570374
1781792870396722700,34.27972265625,0.17138592898845673,-9.957133293151855,-0.4384847581386566
1781792870445246000,34.328245849609374,0.1666002720594406,-9.949954986572266,-0.43609192967414856
1781792870493769000,34.37676904296875,0.18005990982055664,-9.940383911132812,-0.4292125701904297
1781792870542292200,34.425292236328126,0.17138592898845673,-9.944570541381836,-0.4450650215148926
1781792870590815200,34.473815185546876,0.17168502509593964,-9.94845962524414,-0.4585246443748474
1781792870639338200,34.522338134765626,0.17228323221206665,-9.947860717773438,-0.4387838542461395
1781792870687861500,34.57086157226563,0.18424734473228455,-9.946365356445312,-0.4181457459926605
1781792870736384800,34.619384765625,0.17318053543567657,-9.952646255493164,-0.4408775866031647
1781792870784907800,34.66790771484375,0.2105683982372284,-9.926325798034668,-0.41156548261642456
1781792870833431000,34.71643115234375,0.19680966436862946,-9.951150894165039,-0.4043870270252228
1781792870881954000,34.7649541015625,0.1779661774635315,-9.950852394104004,-0.4130610227584839
1781792870930477000,34.81347705078125,0.1585244983434677,-9.96281623840332,-0.4253242313861847
1781792870979000300,34.862000244140624,0.15134602785110474,-9.959526062011719,-0.4339981973171234
1781792871027523600,34.910523681640626,0.13938191533088684,-9.935896873474121,-0.44356951117515564
1781792871076046600,34.959046630859376,0.12263216078281403,-9.947562217712402,-0.45942193269729614
1781792871124569600,35.007569580078126,0.13579268753528595,-9.938887596130371,-0.4417748749256134
1781792871173092900,35.0560927734375,0.11964113265275955,-9.955039978027344,-0.4624129831790924
1781792871221615900,35.10461596679688,0.10677970945835114,-9.952347755432129,-0.4794618487358093
1781792871270139100,35.15313916015625,0.09870393574237823,-9.940682411193848,-0.45942193269729614
1781792871318662100,35.201662109375,0.08464609831571579,-9.953245162963867,-0.4492524564266205
1781792871367185200,35.25018505859375,0.0894317477941513,-9.970293998718262,-0.4731806814670563
1781792871415708400,35.29870849609375,0.08554340898990631,-9.92243766784668,-0.5105685591697693
1781792871464231700,35.347231689453125,0.07567301392555237,-9.932008743286133,-0.4743770956993103
1781792871512754700,35.395754638671875,0.08554340898990631,-9.947562217712402,-0.4468596279621124
1781792871561277700,35.444277587890625,0.06161518394947052,-9.926923751831055,-0.47557350993156433
1781792871609800700,35.49280078125,0.06849455088376999,-9.962218284606934,-0.46360939741134644
1781792871658324000,35.54132397460938,0.04486542567610741,-9.9502534866333,-0.4944169819355011
1781792871706847000,35.58984692382813,0.06071787327528,-9.927821159362793,-0.4899304509162903
1781792871755370000,35.63836987304688,0.06370890140533447,-9.970891952514648,-0.48873403668403625
1781792871803893200,35.68689331054688,0.07178468257188797,-9.910472869873047,-0.4977070987224579
1781792871852416500,35.73541650390625,0.07238288223743439,-9.946365356445312,-0.48574298620224
1781792871900939300,35.78393920898438,0.054436713457107544,-9.960722923278809,-0.48484569787979126
1781792871949462500,35.83246264648437,0.05593222752213478,-9.953543663024902,-0.45523449778556824
1781792871997985800,35.88098583984375,0.0445663221180439,-9.957432746887207,-0.494716078042984
1781792872046508500,35.92950854492187,0.06520441919565201,-9.937392234802246,-0.4938187599182129
1781792872095031800,35.97803173828125,0.06161518394947052,-9.930213928222656,-0.4914259612560272
1781792872143555000,36.02655517578125,0.0526420995593071,-9.94845962524414,-0.46331027150154114
1781792872192078000,36.075078125,0.048454657196998596,-9.936494827270508,-0.46360939741134644
1781792872240601000,36.12360107421875,0.04546362906694412,-9.952646255493164,-0.48424747586250305
1781792872289124400,36.17212426757813,0.0364905446767807,-9.954142570495605,-0.47796630859375
1781792872337647400,36.2206474609375,0.049651071429252625,-9.952347755432129,-0.47796630859375
1781792872386170400,36.26917041015625,0.0526420995593071,-9.952347755432129,-0.47796630859375
1781792872434693600,36.31769360351562,0.08434699475765228,-9.933204650878906,-0.4776672124862671
1781792872483216600,36.36621655273437,0.09481559693813324,-9.952646255493164,-0.46719861030578613
1781792872531739600,36.41473974609375,0.09182456880807877,-9.93978500366211,-0.45134615898132324
1781792872580263000,36.463262939453124,0.09272187948226929,-9.961320877075195,-0.44416770339012146
1781792872628786000,36.511785888671874,0.09810572862625122,-9.959526062011719,-0.47706902027130127
1781792872677309000,36.560308837890624,0.10289137065410614,-9.930811882019043,-0.4944169819355011
1781792872725832200,36.608832275390625,0.10767702013254166,-9.942776679992676,-0.45164528489112854
1781792872774355000,36.65735498046875,0.12741780281066895,-9.946365356445312,-0.4253242313861847
1781792872822878200,36.705878173828125,0.10468599200248718,-9.960722923278809,-0.4704887568950653
1781792872871401500,36.7544013671875,0.1178465187549591,-9.93679428100586,-0.4507479667663574
1781792872919924200,36.80292431640625,0.125324085354805,-9.949954986572266,-0.4181457459926605
1781792872968447500,36.85144750976563,0.13698910176753998,-9.955039978027344,-0.43489551544189453
1781792873016970500,36.89997045898438,0.13938191533088684,-9.947562217712402,-0.4426721930503845
1781792873065493500,36.94849340820313,0.13698910176753998,-9.946066856384277,-0.46331027150154114
1781792873114016800,36.99701684570312,0.13878370821475983,-9.947562217712402,-0.4507479667663574
1781792873162539500,37.04553955078125,0.1417747437953949,-9.952347755432129,-0.4408775866031647
1781792873211062800,37.09406274414062,0.1301097273826599,-9.94397258758545,-0.4325026869773865
1781792873259586000,37.1425859375,0.15613168478012085,-9.955039978027344,-0.42771705985069275
1781792873308108800,37.19110888671875,0.13310076296329498,-9.960722923278809,-0.4746761918067932
1781792873356632000,37.239632080078124,0.14416755735874176,-9.943673133850098,-0.4785645306110382
1781792873405155000,37.288155029296874,0.1381855010986328,-9.941579818725586,-0.42681974172592163
1781792873453678000,37.336677978515624,0.13579268753528595,-9.955039978027344,-0.4250251352787018
1781792873502201000,37.385201171875,0.13549357652664185,-9.93559741973877,-0.4345964193344116
1781792873550724400,37.433724365234376,0.14027923345565796,-9.957432746887207,-0.4336991012096405
1781792873599247400,37.482247314453126,0.13459627330303192,-9.93978500366211,-0.4369892477989197
1781792873647770400,37.530770263671876,0.13459627330303192,-9.938887596130371,-0.42681974172592163
1781792873696293600,37.57929370117188,0.13639089465141296,-9.949954986572266,-0.4325026869773865
1781792873744816400,37.62781640625,0.13070793449878693,-9.944570541381836,-0.42681974172592163
1781792873793339600,37.67633959960938,0.1301097273826599,-9.934401512145996,-0.45134615898132324
1781792873841862700,37.72486254882813,0.125922292470932,-9.93978500366211,-0.4387838542461395
1781792873890385700,37.7733857421875,0.12203395366668701,-9.953245162963867,-0.4307080805301666
1781792873938908700,37.82190869140625,0.11306086927652359,-9.961918830871582,-0.45523449778556824
1781792873987432000,37.87043188476562,0.1378864049911499,-9.92124080657959,-0.4489533603191376
1781792874035954700,37.91895458984375,0.12203395366668701,-9.952347755432129,-0.4456632137298584
1781792874084478000,37.96747802734375,0.1339980661869049,-9.954142570495605,-0.4336991012096405
1781792874133000700,38.01600073242187,0.11066804826259613,-9.961320877075195,-0.45643091201782227
1781792874181524000,38.06452392578125,0.12293126434087753,-9.946365356445312,-0.43130627274513245
1781792874230047000,38.113046875,0.11306086927652359,-9.93559741973877,-0.43639102578163147
1781792874278570000,38.161570068359374,0.13549357652664185,-9.952646255493164,-0.4336991012096405
1781792874327093000,38.210093017578124,0.14117653667926788,-9.940682411193848,-0.4369892477989197
1781792874375616300,38.2586162109375,0.1459621787071228,-9.935896873474121,-0.43549370765686035
1781792874424139000,38.307138916015624,0.14745768904685974,-9.947860717773438,-0.4145565330982208
1781792874472662300,38.355662353515626,0.15074782073497772,-9.954740524291992,-0.4265206456184387
1781792874521185300,38.404185302734376,0.13310076296329498,-9.949954986572266,-0.4169493317604065
1781792874569708300,38.452708251953126,0.13250255584716797,-9.961918830871582,-0.39900317788124084
1781792874618231300,38.501231201171876,0.13938191533088684,-9.957133293151855,-0.4504488706588745
1781792874666754600,38.54975463867188,0.1827518343925476,-9.921540260314941,-0.39870408177375793
1781792874715277300,38.59827734375,0.16689938306808472,-9.970293998718262,-0.42771705985069275
1781792874763800600,38.64680053710938,0.1737787425518036,-9.933204650878906,-0.41874396800994873
1781792874812323600,38.69532348632813,0.17138592898845673,-9.93978500366211,-0.4181457459926605
1781792874860846600,38.7438466796875,0.16331014037132263,-9.961918830871582,-0.4426721930503845
1781792874909369600,38.79236962890625,0.16809579730033875,-9.933504104614258,-0.41874396800994873
1781792874957892900,38.84089282226562,0.15493527054786682,-9.961918830871582,-0.4498506486415863
1781792875006415600,38.88941552734375,0.15643078088760376,-9.922138214111328,-0.4378865361213684
1781792875054938600,38.93793872070312,0.1698904037475586,-9.955039978027344,-0.43549370765686035
1781792875103462000,38.9864619140625,0.16121642291545868,-9.937392234802246,-0.4265206456184387
1781792875151984600,39.03498461914062,0.16331014037132263,-9.947860717773438,-0.4100699722766876
1781792875200508000,39.0835078125,0.16929219663143158,-9.971489906311035,-0.4172484576702118
1781792875249030700,39.13203076171875,0.18514464795589447,-9.926325798034668,-0.44027936458587646
1781792875297554000,39.180553955078125,0.18364913761615753,-9.941280364990234,-0.37477585673332214
1781792875346077000,39.229076904296875,0.17946170270442963,-9.955039978027344,-0.37477585673332214
1781792875394599700,39.277599609375,0.17527425289154053,-9.932008743286133,-0.3930211067199707
1781792875443123000,39.326123046875,0.1899302899837494,-9.953543663024902,-0.39152559638023376
1781792875491646000,39.37464599609375,0.1740778535604477,-9.944570541381836,-0.4265206456184387
1781792875540169000,39.4231689453125,0.17706887423992157,-9.955936431884766,-0.4205385744571686
1781792875588692000,39.47169189453125,0.1905284970998764,-9.953245162963867,-0.39960137009620667
1781792875637215000,39.52021508789063,0.19531415402889252,-9.938887596130371,-0.39960137009620667
1781792875685738000,39.56873803710938,0.20907287299633026,-9.931709289550781,-0.4133601188659668
1781792875734261000,39.61726098632813,0.2192423790693283,-9.952347755432129,-0.3798605799674988
1781792875782784300,39.6657841796875,0.20189441740512848,-9.964611053466797,-0.3690928816795349
1781792875831307000,39.71430712890625,0.1905284970998764,-9.971489906311035,-0.4049852192401886
1781792875879830000,39.762830078125,0.2186441719532013,-9.90568733215332,-0.4013960063457489
1781792875928353300,39.81135327148438,0.2183450609445572,-9.937392234802246,-0.34307095408439636
1781792875976876000,39.8598759765625,0.22642084956169128,-9.931111335754395,-0.3574278950691223
1781792876025399000,39.90839892578125,0.2183450609445572,-9.968499183654785,-0.37806597352027893
1781792876073922300,39.95692236328125,0.20488543808460236,-9.953245162963867,-0.4061816334724426
1781792876122445000,40.00544506835938,0.19232311844825745,-9.957432746887207,-0.3930211067199707
1781792876170968000,40.05396801757813,0.18574285507202148,-9.971489906311035,-0.3966103494167328
1781792876219491000,40.10249096679688,0.1947159469127655,-9.958030700683594,-0.41575294733047485
1781792876268014000,40.15101416015625,0.20877377688884735,-9.919745445251465,-0.4250251352787018
1781792876316537300,40.19953735351562,0.16749759018421173,-9.978967666625977,-0.3693920075893402
1781792876365060000,40.24806005859375,0.0933200865983963,-10.002596855163574,-0.36999019980430603
1781792876413583000,40.2965830078125,0.03768695518374443,-9.975677490234375,-0.34995031356811523
1781792876462106400,40.3451064453125,-0.022432712838053703,-10.019346237182617,-0.39900317788124084
1781792876510629000,40.39362915039062,-0.1178465187549591,-10.019346237182617,-0.3445664644241333
1781792876559152000,40.44215209960937,-0.13160525262355804,-10.004989624023438,-0.3595215976238251
1781792876607675400,40.49067529296875,-0.05832505226135254,-9.84556770324707,-0.32721850275993347
1781792876656198100,40.5391982421875,-0.052043892443180084,-9.837491989135742,-0.28624141216278076
1781792876704721200,40.58772119140625,0.0771685317158699,-9.879067420959473,-0.10767702013254166
1781792876753244200,40.636244140625,0.1498505175113678,-9.906285285949707,-0.11724831163883209
1781792876801767200,40.68476708984375,0.22911277413368225,-9.850652694702148,-0.27756741642951965
1781792876850290200,40.733290283203125,0.17647066712379456,-9.839286804199219,-0.45164528489112854
1781792876898813200,40.781813232421875,0.11306086927652359,-9.881759643554688,-0.6269195079803467
1781792876947336200,40.830336181640625,0.06550352275371552,-9.914959907531738,-0.5273182988166809
1781792876995859200,40.878859130859375,-0.10438688844442368,-10.003793716430664,-0.3846462368965149
1781792877044382200,40.92738232421875,-0.16331014037132263,-10.069894790649414,-0.542572557926178
1781792877092905200,40.9759052734375,0.22193430364131927,-10.00857925415039,-1.0097711086273193
1781792877141428200,41.02442822265625,0.4618147611618042,-10.149755477905273,-0.9538389444351196
1781792877189951000,41.072950927734375,0.7088736891746521,-10.25623607635498,-0.7474579811096191
1781792877238474000,41.121473876953125,0.7666005492210388,-9.92961597442627,-1.2490534782409668
1781792877286997200,41.16999731445313,0.6068796515464783,-9.984650611877441,-0.7471588850021362
1781792877335520000,41.21852001953125,0.5353940725326538,-9.880562782287598,-0.02632104977965355
1781792877384043000,41.26704296875,0.5527420043945312,-9.86949634552002,-0.7040880918502808
1781792877432566000,41.31556591796875,0.6732804775238037,-9.585647583007812,-1.1994023323059082
1781792877481089000,41.36408911132813,0.8333004713058472,-9.594620704650879,-1.0498509407043457
1781792877529612000,41.41261206054688,1.1850453615188599,-9.785747528076172,-1.059422254562378
1781792877578135000,41.46113500976563,1.0534402132034302,-9.863813400268555,-1.4611172676086426
1781792877626657800,41.50965771484375,0.8201399445533752,-10.353743553161621,-2.1807587146759033
1781792877675181000,41.55818115234375,0.9538389444351196,-11.42243766784668,-2.7415764331817627
1781792877723704000,41.6067041015625,2.431107759475708,-11.535798072814941,-0.4292125701904297
1781792877772226800,41.65522680664063,1.5801602602005005,-9.99571704864502,0.7369893789291382
1781792877820749800,41.70374975585938,-1.1276177167892456,-8.158926963806152,-1.430907964706421
1781792877869273000,41.75227319335937,-2.2698912620544434,-9.495617866516113,-0.22432711720466614
1781792877917795800,41.8007958984375,-2.7269206047058105,-10.391131401062012,0.05593222752213478
1781792877966318800,41.84931884765625,-1.169192910194397,-9.39571762084961,0.5784648656845093
1781792878014841600,41.89784155273438,-0.18753747642040253,-10.621739387512207,-0.49710890650749207
1781792878063364900,41.94636474609375,-0.8333004713058472,-9.256035804748535,-0.04127619042992592
1781792878111888000,41.99488793945312,0.7336992621421814,-8.854042053222656,-0.2638086974620819
1781792878160410600,42.04341064453125,0.5422734022140503,-9.111868858337402,-0.2745763957500458
1781792878208933600,42.09193359375,1.3025928735733032,-8.217551231384277,0.33798620104789734
1781792878257456600,42.14045654296875,2.117648124694824,-7.932207107543945,1.6151553392410278
1781792878305979600,42.18897973632812,2.353640079498291,-9.247661590576172,3.0346972942352295
1781792878354502700,42.23750268554687,2.225325107574463,-13.6175537109375,3.2700912952423096
1781792878403025700,42.28602563476562,-0.17138592898845673,-13.607085227966309,2.070389747619629
1781792878451548400,42.33454833984375,-0.7983054518699646,-9.859027862548828,-3.211168050765991
1781792878500071700,42.38307177734375,-1.3824533224105835,-12.115459442138672,-2.3554348945617676
1781792878548594700,42.4315947265625,-0.6756733059883118,-11.872588157653809,-0.14297115802764893
1781792878597117400,42.48011743164062,0.5234299302101135,-8.670990943908691,-2.5148565769195557
1781792878645640400,42.52864038085937,0.7124629616737366,-7.519744396209717,-1.028315544128418
1781792878694163500,42.57716357421875,0.373878538608551,-8.88365364074707,-0.14297115802764893
1781792878742686200,42.62568627929687,0.7187440991401672,-9.494122505187988,0.14685949683189392
1781792878791209500,42.67420947265625,1.4515460729599,-9.518648147583008,-0.029312077909708023
1781792878839732200,42.72273217773437,2.1990039348602295,-7.788637638092041,-0.3813561201095581
1781792878888255200,42.77125512695312,1.8299111127853394,-12.461820602416992,-2.5363919734954834
1781792878936778200,42.8197783203125,3.122633457183838,-12.244970321655273,-0.20009979605674744
1781792878985301000,42.86830102539062,-0.9284151792526245,-6.9481587409973145,2.472383975982666
1781792879033824000,42.91682397460937,-1.7676976919174194,-8.261519432067871,0.31914272904396057
1781792879082347300,42.96534716796875,-3.4815568923950195,-16.797016143798828,-3.0550363063812256
1781792879130870000,43.0138701171875,-3.258127212524414,-12.733704566955566,2.5363919734954834
1781792879179393000,43.06239306640625,0.49680981040000916,-8.74636459350586,4.717749118804932
1781792879227916000,43.110916015625,1.1670992374420166,-7.393822193145752,-0.129810631275177
1781792879276438800,43.15943872070312,0.4253242313861847,-7.519744396209717,-0.9044869542121887
1781792879324961800,43.2079619140625,1.5855441093444824,-6.537191390991211,-0.9747761487960815
1781792879373485000,43.256485107421874,2.5516462326049805,-6.40020227432251,0.12622138857841492
1781792879422007800,43.3050078125,1.5984054803848267,-11.268698692321777,2.9048867225646973
1781792879470530800,43.35353076171875,1.456331729888916,-15.291033744812012,4.634897232055664
1781792879519053600,43.40205346679687,0.349352091550827,-12.52463150024414,1.932503342628479
1781792879567576600,43.45057666015625,-2.155933141708374,-12.909876823425293,-5.997310638427734
1781792879616099600,43.499099609375,-0.7902296781539917,-9.253942489624023,-1.323829174041748
1781792879664622300,43.54762231445312,-1.6836497783660889,-11.822338104248047,-0.4408775866031647
1781792879713145600,43.5961455078125,0.5359922647476196,-7.206284523010254,-2.531008243560791
1781792879761668600,43.644668701171874,1.5658032894134521,-6.527620315551758,-0.7704889178276062
1781792879810191400,43.69319140625,0.2766701281070709,-9.445966720581055,-0.08195417374372482
1781792879858714400,43.74171435546875,0.5940182209014893,-10.483553886413574,0.125922292470932
1781792879907237400,43.7902373046875,1.5394822359085083,-9.48365306854248,0.12502498924732208
1781792879955760000,43.83876000976562,2.495713949203491,-8.070392608642578,-0.2910270392894745
1781792880004283100,43.887283203125,2.651247501373291,-11.830713272094727,-1.6399807929992676
1781792880052806100,43.93580615234375,0.3005983531475067,-8.87826919555664,1.350150227546692
1781792880101329000,43.98432885742187,-2.1329023838043213,-9.33440113067627,2.4798614978790283
1781792880149852000,44.03285180664062,-3.3649067878723145,-17.225929260253906,-2.181356906890869
1781792880198375000,44.081375,-4.453640937805176,-14.011771202087402,1.2819547653198242
1781792880246898000,44.12989794921875,0.43609192967414856,-8.381160736083984,4.199403762817383
1781792880295421000,44.1784208984375,0.4043870270252228,-6.847660064697266,0.6191428303718567
1781792880343943700,44.22694360351562,0.24586252868175507,-6.354738712310791,-0.27756741642951965
1781792880392466700,44.275466796875,1.5020943880081177,-6.27577543258667,-0.007178467698395252
1781792880440989700,44.32398974609375,3.5748770236968994,-6.286543369293213,1.8409779071807861
1781792880489512400,44.37251245117187,2.0273189544677734,-11.38415241241455,4.264608383178711
1781792880538035500,44.42103540039062,0.3332005441188812,-17.436498641967773,3.384946823120117
1781792880586558500,44.46955834960937,-0.9762716293334961,-11.024332046508789,-0.6681957244873047
1781792880635081200,44.51808129882812,-1.939681887626648,-12.53300666809082,-6.212365627288818
1781792880683604200,44.56660424804687,-1.9079769849777222,-13.794024467468262,-0.4411766827106476
1781792880732127200,44.61512719726562,0.9275178909301758,-7.403393268585205,-2.597707986831665
1781792880780650200,44.66365014648437,1.311864972114563,-6.026622772216797,-1.6812570095062256
1781792880829173200,44.71217333984375,1.1327024698257446,-8.432307243347168,-0.0077766734175384045
1781792880877696300,44.7606962890625,0.4731806814670563,-10.005887031555176,1.7461622953414917
1781792880926219000,44.80921899414062,1.6070795059204102,-9.370293617248535,2.526820659637451
1781792880974742000,44.85774194335937,3.2868409156799316,-7.399505138397217,1.6495521068572998
1781792881023264800,44.9062646484375,1.5583257675170898,-11.546266555786133,-1.2236297130584717
1781792881071787800,44.95478784179687,1.2245270013809204,-11.2247314453125,0.527019202709198
1781792881120310800,45.00331079101562,-1.5960127115249634,-8.599804878234863,2.902493953704834
1781792881168833500,45.05183349609375,-2.792423963546753,-17.073387145996094,-1.3079767227172852
1781792881217356500,45.1003564453125,-5.224130153656006,-15.014962196350098,-0.5066801905632019
1781792881265879600,45.14887963867187,-0.027816563844680786,-8.712865829467773,3.255136013031006
1781792881314402300,45.19740234375,0.08315058797597885,-5.183751106262207,0.2961117923259735
1781792881362925300,45.24592529296875,0.15314064919948578,-4.775475978851318,-1.2026925086975098
1781792881411448300,45.2944482421875,1.312164068222046,-5.277968406677246,-0.18484555184841156
1781792881459971000,45.34297119140625,3.877269983291626,-7.252645492553711,3.262314558029175
1781792881508494000,45.391494140625,0.7881359457969666,-15.72652816772461,6.406184196472168
1781792881557017000,45.44001708984375,0.4298107624053955,-17.165512084960938,3.6379876136779785
1781792881605539800,45.48853979492188,-1.2403794527053833,-8.77777099609375,-3.1839497089385986
1781792881654062800,45.53706274414063,-2.306680917739868,-12.546466827392578,-5.681458473205566
1781792881702585600,45.58558569335938,-1.3097712993621826,-13.446765899658203,1.547558069229126
1781792881751108600,45.63410864257813,0.4052843451499939,-8.728119850158691,-2.314457654953003
1781792881799632400,45.68263232421875,1.160519003868103,-5.951548099517822,-2.1071794033050537
1781792881848155400,45.7311552734375,1.051944613456726,-7.463213920593262,-0.04935196787118912
1781792881896678100,45.77967822265625,0.28624141216278076,-9.374181747436523,1.6256239414215088
1781792881945201200,45.828201171875,1.4898312091827393,-9.737292289733887,2.384148597717285
1781792881993724200,45.87672412109375,2.6312077045440674,-9.230612754821777,1.5930216312408447
1781792882042247000,45.92524682617187,1.825723648071289,-12.5144624710083,-0.29760730266571045
1781792882090770000,45.97377001953125,0.38763725757598877,-11.697911262512207,0.9266205430030823
1781792882139293000,46.02229296875,-0.45134615898132324,-8.346165657043457,2.3297119140625
1781792882187815700,46.07081567382812,-2.179263114929199,-14.296217918395996,-0.24586252868175507
1781792882236338700,46.11933862304687,-5.362913608551025,-14.589937210083008,-1.3055838346481323
1781792882284861700,46.16786181640625,-0.33798620104789734,-8.65334415435791,3.2787652015686035
1781792882333384400,46.21638452148437,0.3963112533092499,-4.492823600769043,0.9556335210800171
1781792882381907500,46.26490747070312,-0.0029910283628851175,-4.808676242828369,-1.3097712993621826
1781792882430430500,46.31343041992187,0.9825528264045715,-6.253343105316162,-1.048654556274414
1781792882478953200,46.361953125,3.2940194606781006,-7.977670669555664,2.9766714572906494
1781792882527476200,46.41047631835937,1.205085277557373,-13.248161315917969,7.052246570587158
1781792882575999000,46.4589990234375,1.1455638408660889,-18.206388473510742,3.3445677757263184
1781792882624522000,46.50752197265625,-1.9645073413848877,-11.033305168151855,-0.4100699722766876
1781792882673045000,46.556044921875,-0.6364908218383789,-9.1052885055542,-6.087340831756592
1781792882721567700,46.60456762695313,-1.2616157531738281,-14.902499198913574,1.6414763927459717
1781792882770090800,46.6530908203125,-0.4992026388645172,-9.613762855529785,-0.5656034350395203
1781792882818613500,46.70161352539063,1.5433706045150757,-5.9566330909729,-2.0267207622528076
1781792882867136300,46.75013623046875,1.1931211948394775,-6.5712890625,-0.373878538608551
1781792882915659300,46.7986591796875,0.38763725757598877,-9.348159790039062,1.0184451341629028
1781792882964182300,46.84718237304688,1.1835498809814453,-10.159028053283691,2.1445672512054443
1781792883012705000,46.895705078125,2.895913600921631,-7.511967658996582,2.7212376594543457
1781792883061228000,46.94422802734375,3.3619158267974854,-12.65324592590332,-0.9810572862625122
1781792883109750800,46.992750732421875,1.9334007501602173,-12.064611434936523,1.332802176475525
1781792883158273800,47.041273681640625,-1.5777673721313477,-6.226722717285156,3.7645082473754883
1781792883206796800,47.089796875,-1.8634105920791626,-14.61207103729248,-0.8823533654212952
1781792883255319600,47.138319580078125,-6.561717987060547,-17.723039627075195,-3.1824541091918945
1781792883303842600,47.186842529296875,-1.1333006620407104,-9.14865779876709,3.617349624633789
1781792883352365600,47.235365478515625,0.6308078765869141,-5.144568920135498,1.7820546627044678
1781792883400888300,47.283888427734375,0.2231307178735733,-5.289035320281982,-1.272084355354309
1781792883449411000,47.3324111328125,1.1934202909469604,-5.230112075805664,-0.3930211067199707
1781792883497934000,47.38093408203125,3.8036906719207764,-6.7070817947387695,2.4421746730804443
1781792883546456800,47.42945678710937,1.414756417274475,-13.396815299987793,7.319644451141357
1781792883594979800,47.47797973632812,1.4653047323226929,-16.712369918823242,5.7786664962768555
1781792883643502800,47.5265029296875,-0.3885345757007599,-10.012167930603027,-0.5177469849586487
1781792883692025600,47.57502563476562,-2.5429723262786865,-12.217154502868652,-7.118049144744873
1781792883740548600,47.62354858398437,-1.4515460729599,-12.410075187683105,1.9899311065673828
1781792883789071400,47.6720712890625,-0.09990034252405167,-10.103095054626465,-0.784247636795044
1781792883837594400,47.72059448242187,0.6972087025642395,-7.69830846786499,-1.7222341299057007
1781792883886117400,47.76911743164062,1.2011969089508057,-6.746862411499023,-0.3128615617752075
1781792883934640000,47.81764013671875,0.9029914736747742,-8.666803359985352,1.0342975854873657
1781792883983163000,47.86616284179688,0.4289134442806244,-10.53081226348877,1.8215361833572388
1781792884031686000,47.91468579101563,2.5612175464630127,-7.916055679321289,2.8962128162384033
1781792884080208600,47.96320874023438,3.5327036380767822,-10.049257278442383,-0.17766708135604858
1781792884128731600,48.01173168945313,1.852044701576233,-13.245170593261719,-0.45164528489112854
1781792884177254700,48.06025463867188,-0.5518447160720825,-6.382256031036377,3.6451661586761475
1781792884225777400,48.10877734375,-1.0462616682052612,-10.501201629638672,1.0289137363433838
1781792884274300400,48.15730053710938,-6.071488380432129,-20.974885940551758,-3.9855451583862305
1781792884322823200,48.2058232421875,-2.9862427711486816,-11.53669548034668,3.4193434715270996
1781792884371346000,48.25434594726563,0.7624131441116333,-5.898307800292969,3.1555347442626953
1781792884419869000,48.30286889648438,0.18843477964401245,-4.945366382598877,-0.6667001843452454
1781792884468391700,48.3513916015625,0.6302096843719482,-5.409274578094482,-0.08793623000383377
1781792884516914700,48.39991479492188,3.1025936603546143,-6.524330139160156,2.03629207611084
1781792884565437700,48.44843774414063,2.3946173191070557,-9.78963565826416,6.103193283081055
1781792884613960400,48.49696044921875,1.567897081375122,-17.768203735351562,5.741278648376465
1781792884662483500,48.5454833984375,-0.09092725813388824,-12.185150146484375,2.6464617252349854
1781792884711006200,48.594006103515625,-2.233999013900757,-9.277871131896973,-5.258526802062988
1781792884759529000,48.642529052734375,-2.1281166076660156,-14.294722557067871,-1.6301103830337524
1781792884808052000,48.691052001953125,-0.1908276081085205,-9.812067985534668,0.26889345049858093
1781792884856575000,48.739574951171875,0.5120640397071838,-7.405188083648682,-2.2127628326416016
1781792884905097700,48.78809765625,1.155733346939087,-6.905087947845459,-0.961017370223999
1781792884953620700,48.836620849609375,0.7265207767486572,-8.639883995056152,1.0534402132034302
1781792885002143700,48.885143798828125,0.6933203339576721,-10.234700202941895,2.3177478313446045
1781792885050666200,48.93366625976562,2.0018951892852783,-9.33141040802002,2.2555344104766846
1781792885099189200,48.98218920898437,3.1585259437561035,-7.694420337677002,1.5547364950180054
1781792885147712000,49.0307119140625,1.7784653902053833,-14.789139747619629,-1.2137593030929565
1781792885196235000,49.07923510742187,0.376570463180542,-8.064709663391113,2.6575286388397217
1781792885244758000,49.12775805664062,-0.7992027401924133,-9.17707347869873,2.854637384414673
1781792885293280500,49.17628051757813,-4.749154567718506,-19.028324127197266,-2.0297117233276367
1781792885341803500,49.22480346679688,-4.217947959899902,-12.418150901794434,1.8550357818603516
1781792885390326500,49.27332641601563,0.14356936514377594,-7.466504096984863,3.6125640869140625
1781792885438849300,49.32184936523438,0.3125624656677246,-4.756033897399902,-0.20428723096847534
1781792885487372300,49.37037231445313,0.7316055297851562,-5.027320384979248,-0.966102123260498
1781792885535895300,49.41889526367188,1.9363917112350464,-5.346463203430176,1.1285150051116943
1781792885584417800,49.467417724609376,3.7950167655944824,-7.346563816070557,4.720440864562988
1781792885632940800,49.51594091796875,0.5102694034576416,-19.646867752075195,6.071488380432129
1781792885681463600,49.564463623046876,-0.04935196787118912,-12.99960708618164,5.263312339782715
1781792885729986600,49.612986572265626,-1.0298110246658325,-9.113364219665527,-3.8979079723358154
1781792885778509600,49.661509521484376,-1.7524434328079224,-12.195618629455566,-5.095216751098633
1781792885827032300,49.7100322265625,-0.363709032535553,-13.044173240661621,3.5015969276428223
1781792885875555000,49.75855517578125,0.38344982266426086,-9.187840461730957,-1.5152549743652344
1781792885924078000,49.807078125,0.9771689176559448,-6.4289164543151855,-1.0821540355682373
1781792885972600800,49.855600830078124,1.1676974296569824,-7.33340311050415,0.6777670383453369
1781792886021123800,49.904123779296874,0.30568310618400574,-9.434001922607422,1.5616158246994019
1781792886069646800,49.952646728515624,1.316949725151062,-9.596116065979004,2.7029922008514404
1781792886118169300,50.00116943359375,2.9943184852600098,-7.9489569664001465,2.600399971008301
1781792886166692400,50.0496923828125,2.00518536567688,-14.800206184387207,-1.25144624710083
1781792886215215400,50.09821533203125,0.5868397355079651,-8.676973342895508,1.898106575012207
1781792886263738000,50.14673803710937,0.1704886108636856,-8.055736541748047,3.273979663848877
1781792886312260900,50.1952607421875,-4.330410957336426,-17.768203735351562,-0.18963119387626648
1781792886360783600,50.24378369140625,-4.724328994750977,-13.59362506866455,1.399801254272461
1781792886409306600,50.292306640625,0.3167499005794525,-8.248956680297852,5.395814895629883
1781792886457829600,50.34082958984375,0.5246263742446899,-4.790431022644043,0.6454638838768005
1781792886506352400,50.38935229492188,0.349352091550827,-5.641378402709961,-1.2149556875228882
1781792886554875100,50.43787524414063,1.0734800100326538,-6.074479579925537,-0.5862415432929993
1781792886603398100,50.48639819335938,2.3315064907073975,-7.129116058349609,1.2690932750701904
1781792886651921000,50.5349208984375,1.8897316455841064,-12.236296653747559,6.22193717956543
1781792886700444000,50.58344384765625,1.7156537771224976,-15.917953491210938,6.286543369293213
1781792886748967000,50.631966796875,-0.46091747283935547,-11.30937671661377,1.0250253677368164
1781792886797489400,50.680489501953126,-1.607378602027893,-12.460025787353516,-5.134099960327148
1781792886846012400,50.729012451171876,-1.9965113401412964,-13.330414772033691,1.2843475341796875
1781792886894535200,50.77753515625,-0.28893333673477173,-9.421440124511719,-0.550349235534668
1781792886943058200,50.82605810546875,0.6598208546638489,-6.2892351150512695,-1.9022940397262573
1781792886991581000,50.874580810546874,1.0369895696640015,-6.706483840942383,-0.42023947834968567
1781792887040103700,50.923103759765624,0.28624141216278076,-8.957830429077148,1.0689935684204102
1781792887088626700,50.971626708984374,0.21236300468444824,-10.510772705078125,2.487638235092163
1781792887137149700,51.020149658203124,3.5682966709136963,-8.846863746643066,3.6003007888793945
1781792887185672200,51.06867211914062,2.321636199951172,-11.141879081726074,0.8973084688186646
1781792887234195200,51.1171953125,0.12442677468061447,-10.616355895996094,1.4763715267181396
1781792887282718200,51.16571826171875,-1.7389838695526123,-9.548857688903809,2.3201406002044678
1781792887331241000,51.21424096679687,-3.483351469039917,-17.44696807861328,-0.750449001789093
1781792887379763700,51.262763671875,-5.335097312927246,-12.923036575317383,0.5557330846786499
1781792887428286500,51.31128637695313,-0.5901299118995667,-7.626523971557617,3.9065821170806885
1781792887476809500,51.3598095703125,0.29341986775398254,-4.476073741912842,1.1766705513000488
1781792887525332500,51.40833251953125,0.9481559991836548,-5.371288776397705,-0.9490532875061035
1781792887573855000,51.45685498046875,1.8400806188583374,-6.120242118835449,0.6969096064567566
1781792887622378000,51.5053779296875,3.3409786224365234,-7.502994537353516,4.0782670974731445
1781792887670901000,51.55390087890625,0.9409775137901306,-14.933606147766113,6.13908576965332
1781792887719423700,51.602423828125,-1.017846941947937,-15.920944213867188,6.200700759887695
1781792887767946500,51.650946533203125,-0.8446664214134216,-11.330613136291504,-2.5163521766662598
1781792887816469500,51.699469482421875,-1.581655740737915,-10.572985649108887,-4.588536739349365
1781792887864992300,51.7479921875,-1.911865234375,-13.88375473022461,1.8687944412231445
1781792887913515300,51.796515380859375,0.9433703422546387,-8.29262638092041,-1.7976080179214478
1781792887962038000,51.8450380859375,1.2011969089508057,-6.054738521575928,-0.44835513830184937
1781792888010560800,51.893560791015624,0.6981059908866882,-7.835896015167236,1.0974082946777344
1781792888059083800,51.942083740234374,0.47617170214653015,-9.619147300720215,2.414358139038086
1781792888107606500,51.9906064453125,1.6277176141738892,-9.668798446655273,3.1615169048309326
1781792888156129300,52.03912939453125,3.050848960876465,-7.520641803741455,2.5022943019866943
1781792888204652300,52.08765234375,2.2295124530792236,-14.90429401397705,-0.3762713670730591
1781792888253175000,52.13617504882812,1.3106685876846313,-8.73619556427002,2.9042885303497314
1781792888301697800,52.18469775390625,-0.877567708492279,-7.019046306610107,2.8211379051208496
1781792888350220800,52.233220703125,-3.005983352661133,-17.703598022460938,-0.8102695941925049
1781792888398743600,52.28174365234375,-5.127220630645752,-14.212469100952148,-0.0687936544418335
1781792888447266600,52.3302666015625,-0.6714858412742615,-8.382954597473145,4.79102897644043
1781792888495789300,52.37878930664063,0.8685946464538574,-4.7967119216918945,1.1886346340179443
1781792888544312000,52.42731201171875,0.4489533603191376,-6.043671607971191,-1.5807584524154663
1781792888592835000,52.4758349609375,0.7833502888679504,-5.74606466293335,-0.4866403043270111
1781792888641357600,52.524357666015625,3.0993034839630127,-6.382256031036377,1.7539390325546265
1781792888689880600,52.572880615234375,1.9492532014846802,-14.274084091186523,5.752943992614746
1781792888738403600,52.621403564453125,0.16749759018421173,-15.832709312438965,8.066205024719238
1781792888786926300,52.66992626953125,-0.7139584422111511,-11.516057014465332,0.5479564070701599
1781792888835449000,52.71844897460937,-0.9658030271530151,-11.35932731628418,-4.387838363647461
1781792888883972000,52.76697216796875,-2.0027925968170166,-14.160724639892578,1.9471594095230103
1781792888932494800,52.81549487304687,0.11575279384851456,-8.477770805358887,-1.342971682548523
1781792888981017600,52.864017578125,1.5409778356552124,-5.732305526733398,-0.5805585980415344
1781792889029540600,52.91254052734375,0.4612165689468384,-7.200003147125244,0.5225326418876648
1781792889078063400,52.9610634765625,-0.2554338276386261,-10.139286994934082,1.1024930477142334
1781792889126586000,53.00958618164063,0.7067800164222717,-10.207182884216309,1.7578272819519043
1781792889175108900,53.05810888671875,3.1663026809692383,-7.587640762329102,2.319542407989502
1781792889223632000,53.1066318359375,2.7963123321533203,-13.378870010375977,0.7767700552940369
1781792889272154600,53.15515454101563,0.5829514265060425,-10.818848609924316,1.7745771408081055
1781792889320677400,53.20367749023438,-0.7010970115661621,-7.28464937210083,3.124129056930542
1781792889369200400,53.25220043945313,-3.11246395111084,-16.669300079345703,1.1285150051116943
1781792889417723400,53.30072338867188,-5.038686275482178,-13.771591186523438,0.7073782086372375
1781792889466246000,53.349245849609375,0.024825535714626312,-8.2695951461792,4.526323318481445
1781792889514769000,53.397768798828125,0.6762714982032776,-4.208077907562256,0.6837490797042847
1781792889563292000,53.4462919921875,0.5581258535385132,-5.212165832519531,-1.5155540704727173
1781792889611814400,53.494814453125,0.5775675773620605,-7.059424877166748,-0.2111666053533554
1781792889660337400,53.54333740234375,2.4798614978790283,-7.457530975341797,2.3147568702697754
1781792889708860200,53.59186010742187,2.3545374870300293,-12.536596298217773,6.492326259613037
1781792889757383000,53.6403828125,0.2072782665491104,-17.101503372192383,6.5578293800354
1781792889805906000,53.68890600585937,-1.0977073907852173,-9.816853523254395,1.342971682548523
1781792889854428700,53.7374287109375,-0.13579268753528595,-11.764910697937012,-4.805386066436768
1781792889902951400,53.78595141601563,-2.9216363430023193,-14.973386764526367,1.9079769849777222
1781792889951474400,53.83447436523438,0.6556333899497986,-8.926724433898926,-1.948355793952942
1781792889999997200,53.8829970703125,1.1892328262329102,-6.468397617340088,-1.4291132688522339
1781792890048520000,53.93152001953125,0.6044868230819702,-7.285546779632568,0.19292132556438446
1781792890097043000,53.98004296875,0.15074782073497772,-9.297013282775879,1.8640087842941284
1781792890145565700,54.028565673828126,0.2766701281070709,-9.601799011230469,2.5037899017333984
1781792890194088400,54.07708837890625,3.885345697402954,-7.846663475036621,2.8564319610595703
1781792890242611500,54.125611572265626,2.1649062633514404,-11.92343521118164,1.4198411703109741
1781792890291134200,54.17413427734375,0.742672324180603,-11.881261825561523,0.23389841616153717
1781792890339657000,54.222656982421874,0.20907287299633026,-6.763911247253418,3.5359935760498047
1781792890388179700,54.2711796875,-2.0880367755889893,-15.180964469909668,2.5698914527893066
1781792890436702700,54.31970263671875,-5.9814581871032715,-16.349260330200195,0.41934216022491455
1781792890485225500,54.3682255859375,-0.6143572330474854,-9.00269603729248,4.029513359069824
1781792890533748200,54.41674829101562,0.7160521745681763,-4.85324239730835,1.3286148309707642
1781792890582271000,54.46527099609375,0.4172484576702118,-5.280959606170654,-1.252044439315796
1781792890630794000,54.5137939453125,1.0402796268463135,-6.064908027648926,0.48095735907554626
1781792890679316700,54.56231665039063,2.874378204345703,-6.967899322509766,3.4031920433044434
1781792890727839500,54.61083959960938,1.8990038633346558,-12.87637710571289,5.91804838180542
1781792890776362500,54.65936254882813,1.119242787361145,-15.32931900024414,7.52213716506958
1781792890824885200,54.70788525390625,-1.1629117727279663,-10.80987548828125,0.4052843451499939
1781792890873408000,54.756407958984376,-1.0929217338562012,-12.148959159851074,-3.863511323928833
1781792890921930800,54.8049306640625,-2.688037157058716,-13.63729476928711,2.4717857837677
1781792890970453800,54.853453857421876,0.1660020649433136,-9.404391288757324,-0.7073782086372375
1781792891018976500,54.9019765625,1.1069796085357666,-6.634698867797852,-0.5629115104675293
1781792891067499300,54.950499267578124,0.8135597109794617,-6.990033149719238,-0.09631111472845078
1781792891116022300,54.999022216796874,0.587138831615448,-9.070293426513672,1.297807216644287
1781792891164545000,55.047544921875,0.6843472719192505,-10.076774597167969,2.5489542484283447
1781792891213067800,55.09606787109375,2.80977201461792,-7.552346706390381,3.2216365337371826
1781792891261590500,55.14459057617187,3.6329028606414795,-11.015059471130371,0.4124628007411957
1781792891310113500,55.19311352539062,1.2529417276382446,-12.399606704711914,1.6477575302124023
1781792891358636000,55.24163598632813,-2.1206390857696533,-7.216753005981445,3.4402806758880615
1781792891407159000,55.29015893554688,-2.0141584873199463,-15.335001945495605,0.32153555750846863
1781792891455681800,55.33868188476563,-5.763711452484131,-16.406686782836914,-0.008973085321485996
1781792891504204500,55.38720458984375,-1.474876046180725,-9.50040340423584,4.616652011871338
1781792891552727600,55.4357275390625,0.4004986882209778,-6.0140604972839355,2.956033229827881
1781792891601250300,55.484250244140625,0.2910270392894745,-5.3078789710998535,-1.158724308013916
1781792891649773000,55.53277294921875,0.5437689423561096,-5.519344329833984,-0.20428723096847534
1781792891698296000,55.581296142578125,2.283350944519043,-6.38464879989624,2.09431791305542
1781792891746818600,55.62981860351562,2.744567632675171,-10.793126106262207,6.136693000793457
1781792891795341600,55.67834155273437,2.179263114929199,-16.166507720947266,6.505486488342285
1781792891843864600,55.72686450195312,-1.3917254209518433,-11.149656295776367,4.268795490264893
1781792891892387000,55.77538696289062,-1.9899311065673828,-11.038688659667969,-5.268397331237793
1781792891940910000,55.82391015625,-0.9565308690071106,-12.065508842468262,-0.3813561201095581
1781792891989432600,55.8724326171875,-0.6029912829399109,-12.061620712280273,1.103689432144165
1781792892037955600,55.92095556640625,0.267397940158844,-8.821439743041992,-2.084746837615967
1781792892086478600,55.969478515625,1.414756417274475,-6.260222434997559,0.1899302899837494
1781792892135001000,56.0180009765625,0.5033900737762451,-8.063812255859375,1.1048858165740967
1781792892183524000,56.06652416992188,0.02871387079358101,-9.792028427124023,1.5667005777359009
1781792892232046800,56.115046875,2.510071039199829,-8.154739379882812,2.729313373565674
1781792892280569600,56.163569580078125,3.5132617950439453,-8.81814956665039,2.242074728012085
1781792892329092400,56.21209228515625,1.1635099649429321,-14.219647407531738,0.20757736265659332
1781792892377615400,56.260615478515625,-0.47916272282600403,-7.313961505889893,3.341277837753296
1781792892426137900,56.30913793945312,-1.9046868085861206,-11.921042442321777,1.4012967348098755
1781792892474660900,56.35766088867187,-6.355337142944336,-19.710277557373047,-1.210768222808838
1781792892523183600,56.40618359375,-2.699702262878418,-9.884750366210938,4.468297004699707
1781792892571706400,56.45470629882813,0.7824530005455017,-5.661418437957764,3.252444267272949
1781792892620229400,56.5032294921875,0.06789634376764297,-5.49721097946167,-0.19381862878799438
1781792892668752000,56.551751953125,0.8715856671333313,-5.667699337005615,0.2967100143432617
1781792892717275000,56.60027490234375,2.51425838470459,-6.484549522399902,2.8124639987945557
1781792892765797600,56.648797607421876,2.4813570976257324,-8.295019149780273,7.269993305206299
1781792892814320400,56.6973203125,1.568196177482605,-18.2291202545166,7.193423271179199
1781792892862843400,56.745843505859376,-1.3025928735733032,-12.022438049316406,3.436990737915039
1781792892911366100,56.7943662109375,-0.994516909122467,-8.618049621582031,-4.918745994567871
1781792892959889000,56.842888916015625,-1.454237937927246,-14.087444305419922,0.6134598851203918
1781792893008411600,56.89141162109375,-1.3504493236541748,-11.83310604095459,1.231406331062317
1781792893056934400,56.93993432617187,0.7728816866874695,-6.903293132781982,-2.7741787433624268
1781792893105457200,56.98845703125,1.1213364601135254,-6.339484691619873,-0.5138586759567261
1781792893153980200,57.03698022460937,1.0408778190612793,-8.869595527648926,2.0961127281188965
1781792893202502700,57.08550268554688,-0.33798620104789734,-9.880562782287598,2.9464619159698486
1781792893251025700,57.13402563476563,2.4349961280822754,-8.511868476867676,3.3403804302215576
1781792893299548400,57.18254833984375,3.4704902172088623,-8.739485740661621,2.526820659637451
1781792893348071200,57.2310712890625,2.4996023178100586,-12.456436157226562,1.2544373273849487
1781792893396594000,57.279593994140626,-1.2409776449203491,-7.194619655609131,2.7152554988861084
1781792893445116700,57.32811669921875,-1.7922241687774658,-13.208380699157715,1.8442680835723877
1781792893493639400,57.376639404296874,-6.607480525970459,-19.49103546142578,-2.5597219467163086
1781792893542162400,57.425162353515624,-2.9455647468566895,-10.525129318237305,3.7112679481506348
1781792893590685200,57.473685302734374,0.8488538265228271,-5.333003520965576,4.007379531860352
1781792893639208000,57.5222080078125,0.40677985548973083,-5.303092956542969,-0.21296121180057526
1781792893687731000,57.57073095703125,0.7986045479774475,-5.140680313110352,-0.7648059129714966
1781792893736253400,57.61925341796875,3.028416156768799,-5.338387489318848,1.9438693523406982
1781792893784776400,57.6677763671875,1.9414764642715454,-10.039386749267578,7.469794273376465
1781792893833299200,57.71629931640625,0.3693920075893402,-17.811573028564453,8.05095100402832
1781792893881822000,57.76482202148438,-1.111167073249817,-11.800503730773926,2.2301106452941895
1781792893930344700,57.8133447265625,-1.280758261680603,-11.12483024597168,-6.433701992034912
1781792893978867500,57.861867431640626,-1.8167506456375122,-13.65912914276123,2.1209380626678467
1781792894027390200,57.91039013671875,-0.12741780281066895,-10.785049438476562,-0.46749773621559143
1781792894075913200,57.958913330078126,1.2490534782409668,-8.01775074005127,-1.882553219795227
1781792894124435700,58.007435791015624,1.1509476900100708,-7.384250640869141,0.45164528489112854
1781792894172958700,58.055958740234374,1.0034899711608887,-7.945068359375,1.8975083827972412
1781792894221481500,58.1044814453125,0.5575276613235474,-9.14686393737793,3.8102710247039795
1781792894270004200,58.15300415039062,1.7796618938446045,-8.495118141174316,4.287040710449219
1781792894318527000,58.20152685546875,3.652045488357544,-6.883552551269531,2.042872428894043
1781792894367050000,58.25005004882812,2.222334146499634,-15.13879108428955,0.2919243574142456
1781792894415572500,58.29857250976563,-0.582054078578949,-8.149056434631348,2.714956283569336
1781792894464095500,58.34709545898438,-0.7666005492210388,-9.236295700073242,2.526820659637451
1781792894512618000,58.395617919921875,-5.340181827545166,-20.65544319152832,-0.3188436031341553
1781792894561141000,58.44414111328125,-4.728217601776123,-11.906086921691895,4.219144344329834
1781792894609663700,58.492663818359375,1.1461620330810547,-6.576972007751465,4.994419097900391
1781792894658186500,58.5411865234375,0.8129615187644958,-4.798506736755371,-0.14745768904685974
1781792894706709200,58.58970922851562,0.6406782865524292,-5.376672267913818,-0.7938188910484314
1781792894755232000,58.63823193359375,1.8610178232192993,-5.643771171569824,1.1479566097259521
1781792894803754800,58.68675463867187,2.6087749004364014,-6.990930557250977,4.6199421882629395
1781792894852277500,58.73527758789062,1.848754644393921,-16.15574073791504,6.078367710113525
1781792894900800500,58.78380053710937,-0.9834501147270203,-13.49312686920166,8.3300142288208
1781792894949323000,58.83232299804688,-1.7748762369155884,-11.071590423583984,-1.9588243961334229
1781792894997846000,58.88084594726563,-0.7543373107910156,-12.122637748718262,-2.738884687423706
1781792895046368500,58.929368408203125,-1.4123635292053223,-12.972089767456055,2.6760730743408203
1781792895094891500,58.9778916015625,0.2709871530532837,-9.425926208496094,-1.9127626419067383
1781792895143414300,59.026414306640625,1.1422736644744873,-6.297909259796143,-0.5542375445365906
1781792895191937000,59.07493701171875,0.7782655358314514,-7.537989616394043,0.6915257573127747
1781792895240459800,59.12345971679687,-0.07567301392555237,-9.295517921447754,2.386242389678955
1781792895288982800,59.17198266601562,1.048654556274414,-9.113663673400879,3.2404799461364746
1781792895386028300,59.2690283203125,1.328913927078247,-13.576277732849121,0.9852447509765625
1781792895434550800,59.31755078125,-0.8685946464538574,-9.506086349487305,1.970788598060608
1781792895483073800,59.36607373046875,-1.2658032178878784,-9.455537796020508,3.2916266918182373
1781792895531596500,59.414596435546876,-4.869992256164551,-18.731016159057617,-0.39182472229003906
1781792895580119300,59.463119384765626,-4.5837507247924805,-11.770294189453125,2.600399971008301
1781792895628642000,59.51164208984375,0.0972084179520607,-6.827620506286621,5.939583778381348
1781792895677164500,59.56016455078125,-0.1091725304722786,-4.7937211990356445,1.0561320781707764
1781792895725687600,59.6086875,0.740279495716095,-5.387141227722168,-1.7653049230575562
1781792895774210300,59.65721020507812,1.2601202726364136,-4.878366947174072,1.090229868888855
1781792895822733000,59.70573315429687,2.730210542678833,-7.3914289474487305,5.8734822273254395
1781792895871255800,59.754255859375,2.1981067657470703,-17.553747177124023,6.9756760597229
1781792895919778600,59.80277856445313,-0.8844470977783203,-12.437891960144043,5.219643592834473
1781792895968301300,59.85130126953125,-1.7961125373840332,-13.068999290466309,-4.488935470581055
1781792896016824000,59.899823974609376,-1.674975872039795,-12.408281326293945,-0.1621137410402298
1781792896065346800,59.948346923828126,-0.4657030999660492,-10.360323905944824,1.1371889114379883
1781792896113869800,59.996869873046876,0.26231318712234497,-8.172386169433594,-1.7419748306274414
1781792896162392600,60.045392578125,1.3280165195465088,-6.746264457702637,0.05174478888511658
1781792896210915000,60.0939150390625,0.5153541564941406,-8.105088233947754,1.794616937637329
1781792896307960800,60.1909609375,2.4684956073760986,-8.868398666381836,2.9772696495056152
1781792896356483600,60.23948364257812,4.482654094696045,-9.132805824279785,1.6205391883850098
1781792896405006000,60.28800610351563,0.7594220638275146,-13.123136520385742,1.9615163803100586
1781792896453528800,60.33652880859375,-0.992124080657959,-5.916851997375488,3.893122434616089
1781792896502051600,60.385051513671876,-1.587039589881897,-12.910175323486328,1.9079769849777222
1781792896550574600,60.43357470703125,-5.993123531341553,-19.18744659423828,-0.7926225066184998
1781792896647619800,60.530619873046874,0.9125627279281616,-5.79780912399292,3.7806596755981445
1781792896696142800,60.579142822265624,0.5437689423561096,-5.099104881286621,-0.21714866161346436
1781792896744665600,60.62766552734375,0.6993024349212646,-5.018347263336182,-0.37507495284080505
1781792896793188400,60.67618823242187,2.7382864952087402,-5.091328144073486,2.0931215286254883
1781792896841711000,60.72471118164062,2.571686029434204,-9.017651557922363,6.561717987060547
1781792896890233900,60.77323388671875,0.3487538993358612,-18.495920181274414,6.754938125610352
1781792896938756600,60.82175659179688,-1.765903115272522,-12.093923568725586,3.619443416595459
1781792896987279400,60.870279296875,0.12263216078281403,-9.895816802978516,-4.782355308532715
1781792897035802000,60.918802001953125,-1.9414764642715454,-15.109777450561523,1.7237296104431152
1781792897084324900,60.967324951171875,-0.44745782017707825,-10.896017074584961,-1.0528420209884644
1781792897132847600,61.01584765625,1.4572290182113647,-7.152745246887207,-2.1170499324798584
1781792897181370400,61.06437036132812,1.0606186389923096,-7.005287170410156,-0.019142581149935722
1781792897229893000,61.11289306640625,1.308275818824768,-8.688339233398438,2.7631118297576904
1781792897278416000,61.16141577148438,-0.04695914313197136,-9.986145973205566,4.5909295082092285
1781792897326938600,61.20993872070313,2.3497519493103027,-8.729615211486816,4.038486480712891
1781792897375461400,61.25846142578125,3.022135019302368,-8.209774017333984,1.6088740825653076
1781792897423984000,61.30698413085938,1.0298110246658325,-12.52582836151123,0.4426721930503845
1781792897472507000,61.3555068359375,-0.6442674994468689,-7.070790767669678,3.045166015625
1781792897521029600,61.404029541015625,-0.7983054518699646,-12.075678825378418,2.6306095123291016
1781792897569552400,61.452552490234375,-6.475576400756836,-19.803598403930664,-0.09032905846834183
1781792897618075100,61.5010751953125,-3.0972096920013428,-10.71117115020752,4.235296249389648
1781792897666598000,61.54959790039062,0.851844847202301,-5.650351524353027,2.719143867492676
1781792897715120600,61.59812060546875,0.3837489187717438,-4.735395908355713,-0.1501496136188507
1781792897763643400,61.64664331054688,0.8129615187644958,-5.0479583740234375,0.43130627274513245
1781792897812166100,61.69516625976563,3.0580272674560547,-5.983551979064941,3.384049415588379
1781792897860689000,61.74368896484375,1.975873351097107,-9.991828918457031,7.720741271972656
1781792897909211600,61.792211669921876,0.9690931439399719,-14.997315406799316,6.969694137573242
1781792897957734400,61.840734375,-1.083350419998169,-11.00279712677002,2.399103879928589
1781792898006257200,61.889257080078124,-1.8299111127853394,-14.079368591308594,-6.3137617111206055
1781792898054780000,61.93777978515625,-1.4940186738967896,-12.704392433166504,3.775874137878418
1781792898151825400,62.03482543945312,0.620638370513916,-8.177172660827637,-0.4217349886894226
1781792898200348200,62.08334814453125,1.1060823202133179,-6.465406894683838,-0.1905284970998764
1781792898248871000,62.13187084960938,0.397208571434021,-8.318049430847168,1.5026925802230835
1781792898297393700,62.1803935546875,-0.12113664299249649,-9.871291160583496,3.4618160724639893
1781792898345916200,62.228916259765626,2.6688945293426514,-8.981759071350098,2.8824539184570312
1781792898394439200,62.277439208984376,4.048057556152344,-11.814262390136719,1.2218350172042847
1781792898442962000,62.3259619140625,0.7791628837585449,-11.434700965881348,2.3697917461395264
1781792898491484400,62.374484375,-0.4298107624053955,-5.179862976074219,3.531208038330078
1781792898540007400,62.42300732421875,-1.4781662225723267,-12.939786911010742,2.0976080894470215
1781792898588530200,62.4715302734375,-5.817849159240723,-18.321245193481445,-0.4731806814670563
1781792898637053000,62.52005297851562,-2.279761791229248,-10.384251594543457,4.936991214752197
1781792898685575400,62.56857543945313,0.6837490797042847,-5.68474817276001,3.9864425659179688
1781792898734098400,62.61709838867188,0.8057830333709717,-4.986642360687256,-0.16749759018421173
1781792898782621200,62.66562109375,0.6484549641609192,-6.116652965545654,-0.043968115001916885
1781792898831143700,62.714143798828125,2.274677038192749,-6.365805625915527,1.9157536029815674
1781792898879666400,62.76266650390625,2.408675193786621,-8.78494930267334,4.65015172958374
1781792898928189200,62.81118920898437,0.7782655358314514,-16.37737464904785,7.608278751373291
1781792898976712000,62.8597119140625,-2.2932214736938477,-12.59731388092041,5.436492919921875
1781792899025234700,62.90823461914062,-0.017647067084908485,-11.209476470947266,-4.561318397521973
1781792899073757400,62.95675732421875,-2.0539391040802,-13.726726531982422,0.2431706041097641
1781792899122280400,63.00528051757812,-0.7268198728561401,-11.076973915100098,0.4420739710330963
1781792899170803000,63.05380297851563,1.7563318014144897,-7.512565612792969,-2.4206392765045166
1781792899219325700,63.10232568359375,1.0630114078521729,-7.553243637084961,0.007178467698395252
