time,seconds_elapsed,z,y,x
1781799398990622000,0.1466220703125,9.247960090637207,4.003790378570557,-0.46480581164360046
1781799399039142400,0.195142333984375,9.116654396057129,4.118047714233398,-0.6559324860572815
1781799399087662800,0.243662841796875,8.679964065551758,4.05703067779541,-0.6370890140533447
1781799399136183300,0.292183349609375,8.649456024169922,4.037589073181152,-0.5656034350395203
1781799399184703700,0.340703857421875,8.784051895141602,4.358526229858398,-0.45942193269729614
1781799399233224200,0.38922412109375,9.24855899810791,3.9879379272460938,-0.5524429082870483
1781799399281744600,0.43774462890625,9.338289260864258,3.457927703857422,-0.7519445419311523
1781799399330265000,0.48626513671875,8.959027290344238,3.1677980422973633,-1.0636097192764282
1781799399378785500,0.53478564453125,8.737092971801758,3.9502511024475098,-1.3387842178344727
1781799399427306000,0.583305908203125,9.39452075958252,3.3424742221832275,-1.085145115852356
1781799399475826400,0.631826416015625,9.746864318847656,2.743969440460205,-1.0016953945159912
1781799399524347000,0.680346923828125,10.367801666259766,2.2642083168029785,-0.87248295545578
1781799399572867000,0.7288671875,9.548857688903809,2.6198415756225586,-0.5940182209014893
1781799399621387500,0.777387451171875,9.003593444824219,2.834597587585449,-0.6562315821647644
1781799399669908000,0.825907958984375,9.432208061218262,2.682354211807251,-0.44715872406959534
1781799399718428400,0.874428466796875,9.765707015991211,2.3820550441741943,-0.5545366406440735
1781799399766948900,0.922948974609375,9.881460189819336,2.173879384994507,-0.6753742098808289
1781799399815469300,0.97146923828125,9.902397155761719,2.4089741706848145,-0.7896314859390259
1781799399863989800,1.01998974609375,9.504889488220215,2.5689942836761475,-0.3332005441188812
1781799399912510200,1.06851025390625,9.210572242736816,2.9703903198242188,-0.10827522724866867
1781799399961030400,1.117030517578125,9.422337532043457,2.959622621536255,-0.22462622821331024
1781799400009550800,1.16555078125,9.653244972229004,2.9506494998931885,-0.4540380835533142
1781799400058071300,1.2140712890625,9.714859962463379,2.9760732650756836,-0.5350949764251709
1781799400106591700,1.262591796875,9.516854286193848,3.0101709365844727,-0.5147559642791748
1781799400155112200,1.3111123046875,9.471988677978516,3.0580272674560547,-0.4495515525341034
1781799400203632600,1.359632568359375,9.421440124511719,2.998206853866577,-0.4737788736820221
1781799400252153000,1.408153076171875,9.717552185058594,3.060420274734497,-0.5593222975730896
1781799400300673500,1.456673583984375,8.974879264831543,2.8686952590942383,-0.4695914387702942
1781799400349193700,1.50519384765625,8.483752250671387,2.722134828567505,-0.486939400434494
1781799400397714200,1.553714111328125,8.790931701660156,3.3068809509277344,-0.4788636267185211
1781799400446234600,1.602234619140625,9.054141998291016,3.213859796524048,-0.6577271223068237
1781799400494755000,1.650755126953125,9.701101303100586,3.0831520557403564,-0.6954140663146973
1781799400543275500,1.699275634765625,9.64217758178711,2.577368974685669,-0.854536771774292
1781799400591795700,1.747795654296875,9.702596664428711,2.8869404792785645,-0.7938188910484314
1781799400640316200,1.796316162109375,9.321539878845215,3.1585259437561035,-0.7902296781539917
1781799400688836600,1.844836669921875,9.297910690307617,3.2084760665893555,-0.9631111025810242
1781799400737357000,1.893357177734375,9.472886085510254,2.7951159477233887,-0.9305089116096497
1781799400785877500,1.94187744140625,9.374181747436523,2.8462624549865723,-1.0040881633758545
1781799400834397700,1.990397705078125,10.032506942749023,3.406482219696045,-1.1599208116531372
1781799400882918100,2.038918212890625,9.079266548156738,3.480360507965088,-0.44327038526535034
1781799400931438600,2.0874384765625,9.44746208190918,3.3954153060913086,0.5665007829666138
1781799400979959000,2.135958984375,8.067999839782715,2.95184588432312,2.867199659347534
1781799401028479500,2.1844794921875,8.027022361755371,2.8013970851898193,5.645267009735107
1781799401076999700,2.232999755859375,7.750053405761719,3.1193435192108154,6.749554634094238
1781799401125520100,2.28152001953125,4.29033088684082,2.3850460052490234,7.945965766906738
1781799401174040600,2.33004052734375,2.2307088375091553,3.106182813644409,9.160921096801758
1781799401222561000,2.37856103515625,1.6785650253295898,2.8396823406219482,8.866005897521973
1781799401271081200,2.427081298828125,0.7441678643226624,3.22761869430542,9.69511890411377
1781799401319601700,2.4756015625,0.7336992621421814,2.927020311355591,8.737092971801758
1781799401368122000,2.5241220703125,-0.8554341197013855,3.5243287086486816,8.894720077514648
1781799401416642300,2.572642333984375,-3.4103705883026123,4.427918434143066,8.35992431640625
1781799401465162800,2.621162841796875,-1.6618152856826782,3.8111681938171387,8.504690170288086
1781799401513683200,2.66968310546875,-3.8225340843200684,4.836492538452148,8.247461318969727
1781799401562203600,2.71820361328125,-3.505784273147583,3.957728624343872,8.60758113861084
1781799401610723800,2.766723876953125,-3.3278181552886963,3.6161532402038574,8.862417221069336
1781799401659244300,2.815244384765625,-3.064906597137451,3.7444684505462646,8.533702850341797
1781799401745468000,2.901468017578125,-1.3130614757537842,4.780859470367432,9.010771751403809
1781799401793988000,2.949988037109375,0.7160521745681763,5.193023204803467,7.940881252288818
1781799401891029000,3.047029052734375,2.733201742172241,3.5682966709136963,7.587640762329102
1781799401939549400,3.095549560546875,5.004887580871582,1.3025928735733032,7.196115016937256
1781799401988069600,3.144069580078125,6.008377552032471,0.48035913705825806,5.667998790740967
1781799402036590000,3.192590087890625,7.706384658813477,0.13250255584716797,5.56660270690918
1781799402085110500,3.241110595703125,7.33968448638916,1.8424733877182007,5.9045891761779785
1781799402133630700,3.289630615234375,6.053243160247803,3.040679454803467,6.049952983856201
1781799402230671600,3.386671630859375,7.9040913581848145,4.25294303894043,6.3442702293396
1781799402279191800,3.43519189453125,7.455138206481934,2.430210590362549,7.9280195236206055
1781799402327712300,3.483712158203125,8.178668022155762,1.4811571836471558,7.741379261016846
1781799402376232700,3.532232666015625,7.576573848724365,2.8761727809906006,6.120242118835449
1781799402424753000,3.5807529296875,7.385148048400879,2.705684185028076,5.2839508056640625
1781799402473273300,3.6292734375,6.017350673675537,0.4585246443748474,5.8322062492370605
1781799402521793800,3.677793701171875,3.067000389099121,0.09810572862625122,5.611767292022705
1781799402570314000,3.72631396484375,0.22073788940906525,-0.8814560174942017,5.715855121612549
1781799402667354600,3.823354736328125,-1.1805589199066162,-4.028914928436279,8.271090507507324
1781799402716456000,3.8724560546875,0.22402802109718323,-5.439783096313477,10.013065338134766
1781799402765945900,3.92194580078125,0.4417748749256134,-6.034100532531738,10.820941925048828
1781799402815436300,3.971436279296875,-0.1698904037475586,-6.431009769439697,11.642578125
1781799402864927000,4.020927001953125,-0.6753742098808289,-6.454041004180908,11.604292869567871
1781799402914417700,4.070417724609375,-0.9427721500396729,-6.665506362915039,11.341979026794434
1781799402963908400,4.119908447265625,-0.3068794906139374,-6.911069869995117,10.663314819335938
1781799403013398800,4.169398681640625,-0.5521438121795654,-5.373681545257568,10.965707778930664
1781799403062889500,4.218889404296875,-0.2919243574142456,-7.246364116668701,10.341180801391602
1781799403112380200,4.268380126953125,-2.1272194385528564,-7.832605838775635,6.93739128112793
1781799403161870800,4.317870849609375,-2.1194427013397217,-7.241279602050781,4.732405185699463
1781799403210781200,4.36678125,-1.5236297845840454,-6.7932233810424805,4.488038063049316
1781799403259303000,4.415302978515625,-1.4213366508483887,-6.414260387420654,6.20219612121582
1781799403307823000,4.463822998046875,-0.43489551544189453,-5.584249973297119,7.0292158126831055
1781799403356343600,4.512343505859375,0.7743772268295288,-6.134599208831787,7.614859104156494
1781799403404864000,4.560864013671875,0.727418065071106,-6.479165554046631,8.172386169433594
1781799403453384400,4.609384521484375,-1.425225019454956,-6.456732749938965,6.998108863830566
1781799403501904600,4.657904541015625,-4.85324239730835,-5.6207404136657715,6.863213539123535
1781799403550425000,4.706425048828125,-2.2483558654785156,-6.526124477386475,6.246164321899414
1781799403598945300,4.7549453125,0.12442677468061447,-7.629215717315674,7.356434345245361
1781799403695986000,4.85198583984375,-1.7219350337982178,-6.092126369476318,7.5942206382751465
1781799403744506400,4.90050634765625,-1.3495519161224365,-6.029912948608398,8.627620697021484
1781799403793026800,4.94902685546875,0.2111666053533554,-6.58265495300293,9.397212982177734
1781799403841547300,4.99754736328125,1.810469388961792,-7.839784145355225,9.073583602905273
1781799403890067500,5.0460673828125,-2.9653055667877197,-10.149456024169922,9.768099784851074
1781799403938588000,5.094587890625,-1.9591234922409058,-8.048558235168457,9.047262191772461
1781799403987108000,5.143108154296875,2.913560628890991,-7.983952045440674,8.01057243347168
1781799404035628500,5.191628662109375,4.5837507247924805,-6.513861656188965,5.718846321105957
1781799404084148700,5.240148681640625,6.497410774230957,-6.550053119659424,6.433701992034912
1781799404132669200,5.288669189453125,7.846663475036621,-6.962216377258301,6.162415504455566
1781799404181189600,5.337189697265625,4.188935279846191,-6.9344000816345215,6.218048572540283
1781799404229709800,5.385709716796875,3.761517286300659,-6.306882381439209,7.93789005279541
1781799404278230300,5.434230224609375,4.156332969665527,-5.927918910980225,9.140582084655762
1781799404326750500,5.48275048828125,6.853044033050537,-6.22702169418335,7.314858913421631
1781799404375271000,5.53127099609375,9.360123634338379,-7.114459991455078,4.4012980461120605
1781799404423791000,5.579791015625,8.446663856506348,-5.818447589874268,0.011066804639995098
1781799404472311600,5.6283115234375,1.5418751239776611,-2.169692039489746,3.8820555210113525
1781799404520832000,5.67683203125,0.5440680384635925,-2.016252279281616,6.5027947425842285
1781799404569352400,5.7253525390625,10.293025970458984,-6.434898376464844,4.606781959533691
1781799404617872600,5.77387255859375,9.673284530639648,-4.362115859985352,2.123929262161255
1781799404666393000,5.82239306640625,5.237888813018799,-3.4241292476654053,4.425226211547852
1781799404714913300,5.870913330078125,-0.33499518036842346,0.15613168478012085,0.37896329164505005
1781799404763433700,5.919433837890625,-0.539880633354187,-1.1327024698257446,6.15045166015625
1781799404811954200,5.9679541015625,1.0154540538787842,-3.5096726417541504,10.225129127502441
1781799404860474600,6.016474609375,-0.3086741268634796,-5.035396099090576,11.371291160583496
1781799404908994800,6.064994873046875,0.4459623098373413,-6.334698677062988,11.882757186889648
1781799404957515300,6.113515380859375,0.3966103494167328,-6.383452415466309,12.979567527770996
1781799405006035500,6.162035400390625,2.381755828857422,-6.1399827003479,11.071590423583984
1781799405054556000,6.210555908203125,5.210072040557861,-8.302495956420898,8.997611045837402
1781799405103076400,6.259076416015625,4.847858905792236,-7.622037410736084,6.723233222961426
1781799405151596500,6.307596435546875,5.438287734985352,-9.00568675994873,6.367899417877197
1781799405248637200,6.40463720703125,7.41535758972168,-7.514958381652832,4.459323883056641
1781799405297158000,6.453157958984375,7.4240312576293945,-4.689034938812256,7.40907621383667
1781799405346259700,6.502259765625,8.602197647094727,-3.910470485687256,5.729314804077148
1781799405442719000,6.598718994140625,7.495816230773926,-3.1977083683013916,6.022136211395264
1781799405491239200,6.6472392578125,5.944369792938232,-5.420640468597412,1.7937196493148804
1781799405539759600,6.695759521484375,1.9166508913040161,-3.8913278579711914,2.66560435295105
1781799405588280000,6.744280029296875,2.9153552055358887,-2.329113721847534,6.820441722869873
1781799405636800300,6.79280029296875,5.67039155960083,-1.8083757162094116,5.642275810241699
1781799405685321000,6.841321044921875,4.479363918304443,-0.5282155871391296,4.852644443511963
1781799405733841200,6.889841064453125,3.3194432258605957,-0.5383850932121277,3.9433717727661133
1781799405782361600,6.938361572265625,3.059522867202759,-0.4145565330982208,4.516153812408447
1781799405830881800,6.9868818359375,4.153341770172119,-2.554936408996582,5.333601474761963
1781799405879402500,7.035402587890625,5.614459037780762,-3.899702787399292,8.349156379699707
1781799405927922700,7.083922607421875,6.1669020652771,-4.878366947174072,11.966506004333496
1781799405976443400,7.132443359375,5.830710411071777,-7.173084259033203,13.120444297790527
1781799406024963600,7.180963623046875,4.982754230499268,-9.53779125213623,16.956138610839844
1781799406073484000,7.229484130859375,-4.025325775146484,-5.752345561981201,13.829916954040527
1781799406122004500,7.27800439453125,-3.5611183643341064,-1.4207384586334229,7.977072715759277
1781799406170525000,7.32652490234375,0.8039883971214294,-2.2851455211639404,5.591129302978516
1781799406219045000,7.375045166015625,4.482654094696045,-5.9901323318481445,6.297310829162598
1781799406267565800,7.42356591796875,4.242474555969238,-8.178668022155762,10.493125915527344
1781799406316086000,7.4720859375,1.822433590888977,-6.670591354370117,7.836493968963623
1781799406364606700,7.520606689453125,1.9962122440338135,-5.253741264343262,8.120641708374023
1781799406413127000,7.569126953125,3.270390272140503,-5.7517476081848145,7.4479594230651855
1781799406461647400,7.6176474609375,7.571788311004639,-5.886941909790039,6.440880298614502
1781799406510167800,7.666167724609375,6.485147476196289,-6.142375946044922,6.970890522003174
1781799406558688000,7.71468798828125,4.933402061462402,-6.096014976501465,4.994718074798584
1781799406607208700,7.763208740234375,1.4506487846374512,-5.182853698730469,3.531208038330078
1781799406655729000,7.81172900390625,1.3980066776275635,-3.6783666610717773,3.683152198791504
1781799406704249600,7.86024951171875,3.3858439922332764,-3.43190598487854,3.423231840133667
1781799406752769800,7.908769775390625,5.560321807861328,-5.293521881103516,3.0933215618133545
1781799406801290500,7.95729052734375,4.578367233276367,-7.898707389831543,4.787140846252441
1781799406849810700,8.005810791015625,1.714158296585083,-8.410173416137695,7.11565637588501
1781799406946851600,8.1028515625,-0.9852447509765625,-6.095117568969727,8.185846328735352
1781799406995372300,8.151372314453125,-3.746263027191162,-8.222636222839355,8.445168495178223
1781799407043892500,8.199892578125,-1.150050401687622,-8.58066177368164,7.132106781005859
1781799407092413200,8.2484130859375,-2.635993242263794,-8.37009334564209,6.6729841232299805
1781799407140933400,8.296933349609375,-2.1071794033050537,-8.665307998657227,10.010972023010254
1781799407189454000,8.3454541015625,-0.857228696346283,-7.479066371917725,8.551948547363281
1781799407237974300,8.393974365234374,0.9490532875061035,-7.851449489593506,5.914459228515625
1781799407286495000,8.442494873046876,0.4704887568950653,-10.432706832885742,4.089931964874268
1781799407335015200,8.49101513671875,-2.202294111251831,-7.974679470062256,6.26141881942749
1781799407383535900,8.539535888671875,-5.1550374031066895,-6.625127792358398,8.791230201721191
1781799407432056300,8.588056396484374,-2.077867269515991,-6.730112552642822,9.215357780456543
1781799407480576800,8.63657666015625,-1.212562918663025,-7.129116058349609,7.606184959411621
1781799407529097200,8.68509716796875,-0.4052843451499939,-7.843672752380371,7.504489898681641
1781799407577617700,8.73361767578125,-0.9996016621589661,-7.437490940093994,6.916154861450195
1781799407626138000,8.78213818359375,-0.5940182209014893,-7.133901596069336,7.195217609405518
1781799407674658800,8.830658935546875,-1.0600204467773438,-5.263312339782715,10.305887222290039
1781799407723179000,8.879178955078125,-1.0082756280899048,-4.984847545623779,7.126723289489746
1781799407771699700,8.92769970703125,-0.47796630859375,-6.2276201248168945,7.168298244476318
1781799407820220000,8.976219970703125,-4.528716087341309,-7.906783103942871,2.733201742172241
1781799407868740400,9.024740234375,-0.5781657695770264,-4.622334957122803,9.401400566101074
1781799407917261000,9.073260986328124,-1.0806585550308228,-3.5380873680114746,9.802796363830566
1781799407965781200,9.12178125,-1.1150553226470947,-3.6834514141082764,8.090731620788574
1781799408014302000,9.170302001953125,-0.28175488114356995,-4.913063049316406,9.13729190826416
1781799408062822100,9.218822265625,2.336890459060669,-3.6993038654327393,8.561519622802734
1781799408111342800,9.2673427734375,2.5914268493652344,-2.3024935722351074,9.943075180053711
1781799408159863000,9.315863037109375,2.316850423812866,-3.5255250930786133,9.358927726745605
1781799408208383700,9.3643837890625,1.1772687435150146,-3.2129626274108887,9.17467975616455
1781799408256904200,9.412904296875,1.848754644393921,-3.3245279788970947,8.755936622619629
1781799408305424600,9.461424560546876,2.3584258556365967,-4.120440483093262,8.638090133666992
1781799408353945000,9.509945068359375,2.5124638080596924,-4.244867324829102,8.372486114501953
1781799408402465500,9.558465576171875,2.084746837615967,-4.203291893005371,8.968897819519043
1781799408450986000,9.606986083984374,1.8472590446472168,-3.9188451766967773,9.05862808227539
1781799408499506400,9.65550634765625,1.9510477781295776,-3.312563896179199,9.066405296325684
1781799408548027000,9.70402685546875,1.7476578950881958,-3.2288150787353516,9.104690551757812
1781799408596547600,9.752547607421874,1.7174484729766846,-3.462414264678955,9.121439933776855
1781799408645067800,9.80106787109375,1.7114664316177368,-2.9653055667877197,9.358329772949219
1781799408693588500,9.84958837890625,2.1807587146759033,-3.2159535884857178,9.565906524658203
1781799408742108700,9.898108642578125,1.9794625043869019,-3.942474365234375,8.526225090026855
1781799408790629400,9.94662939453125,1.672582983970642,-3.7022948265075684,8.544171333312988
1781799408839149600,9.995149658203125,2.11615252494812,-3.7669010162353516,9.129515647888184
1781799408887670300,10.043670166015625,2.289931297302246,-4.4635114669799805,8.86780071258545
1781799408936190700,10.092190673828124,2.0099709033966064,-5.269593715667725,8.278268814086914
1781799408984711200,10.140711181640626,2.0721843242645264,-4.591826438903809,8.437092781066895
1781799409033231600,10.189231689453125,1.1407781839370728,0.9672985672950745,12.758530616760254
1781799409081752000,10.237751953125,4.064508438110352,-3.1351959705352783,8.662017822265625
1781799409130272500,10.2862724609375,7.554141044616699,-6.807580471038818,4.983651161193848
1781799409178793000,10.33479296875,2.7846474647521973,-7.7940216064453125,6.419045925140381
1781799409227313400,10.3833134765625,-0.8437690734863281,-4.7575297355651855,7.905886173248291
1781799409275833900,10.431833740234374,6.117550373077393,-5.879763603210449,6.866503715515137
1781799409324354600,10.4803544921875,-1.5179468393325806,-7.130013465881348,8.438887596130371
1781799409372874800,10.528874755859375,2.874378204345703,-6.395416736602783,6.821040153503418
1781799409421395500,10.5773955078125,1.5155540704727173,-7.074679374694824,6.734300136566162
1781799409469916000,10.625916015625,0.8446664214134216,-6.689733982086182,6.505486488342285
1781799409518436400,10.674436279296875,1.5705889463424683,-7.040282249450684,7.0046892166137695
1781799409566956800,10.722956787109375,1.7410775423049927,-7.653144359588623,7.001399040222168
1781799409615477500,10.7714775390625,1.2664014101028442,-6.893722057342529,6.498906135559082
1781799409663997700,10.819997802734376,1.1102696657180786,-7.018148899078369,7.3052873611450195
1781799409712518400,10.868518310546875,1.1165509223937988,-6.787839412689209,6.516254425048828
1781799409761038800,10.917038818359375,1.5822539329528809,-7.1611199378967285,6.936792850494385
1781799409809559300,10.965559326171874,1.4470595121383667,-7.131508827209473,6.975078105926514
1781799409858079700,11.014079833984376,1.5418751239776611,-7.482356548309326,6.899106025695801
1781799409906600400,11.062600341796875,1.2424731254577637,-7.023532867431641,6.602694988250732
1781799409955120600,11.11112060546875,0.862313449382782,-6.431009769439697,6.793821811676025
1781799410003641300,11.159641357421876,1.257129192352295,-6.602694988250732,7.202994346618652
1781799410052161800,11.208161865234375,1.041775107383728,-7.144370079040527,6.830013275146484
1781799410100682500,11.2566826171875,1.358525037765503,-7.802994728088379,6.556334018707275
1781799410149202700,11.30520263671875,1.5978072881698608,-8.016853332519531,6.231508255004883
1781799410197723400,11.353723388671876,1.3728820085525513,-7.323532581329346,6.482156753540039
1781799410246243800,11.402243896484375,1.1611171960830688,-6.573083877563477,7.1010003089904785
1781799410294764300,11.450764404296875,1.3513466119766235,-6.594020843505859,7.229614734649658
1781799410343284700,11.49928466796875,0.9122636318206787,-6.604788780212402,7.1386871337890625
1781799410391805400,11.547805419921875,1.1335997581481934,-6.5904316902160645,7.41625452041626
1781799410440325600,11.59632568359375,1.202094316482544,-6.593123912811279,7.255038261413574
1781799410488846000,11.64484619140625,1.158724308013916,-6.896114826202393,6.959225654602051
1781799410537366800,11.69336669921875,1.4189438819885254,-7.5071821212768555,6.763612270355225
1781799410585887200,11.74188720703125,1.3489537239074707,-7.506882667541504,6.482754707336426
1781799410634407700,11.79040771484375,1.4219348430633545,-7.357032299041748,6.576074600219727
1781799410682928000,11.83892822265625,1.4012967348098755,-7.176673412322998,6.8156561851501465
1781799410731448800,11.88744873046875,1.4979069232940674,-6.814758777618408,6.912266254425049
1781799410779969000,11.935968994140625,1.3752747774124146,-6.894320011138916,6.820441722869873
1781799410828489700,11.98448974609375,1.3872389793395996,-7.0654072761535645,6.787839412689209
1781799410877010200,12.03301025390625,1.3453645706176758,-7.178467750549316,6.818647384643555
1781799410925530600,12.081530517578125,1.597508192062378,-7.282855033874512,7.146463871002197
1781799410974051000,12.130051025390625,1.3453645706176758,-7.025327205657959,6.7917280197143555
1781799411022571800,12.17857177734375,1.5104693174362183,-7.037291526794434,6.813263416290283
1781799411071092200,12.22709228515625,1.2290135622024536,-6.86171817779541,6.784250259399414
1781799411119612700,12.27561279296875,1.217348575592041,-7.285247802734375,6.86680269241333
1781799411168133000,12.324133056640624,1.677966833114624,-7.217650413513184,7.03788948059082
1781799411216653800,12.37265380859375,0.672383189201355,-6.380760669708252,6.798906326293945
1781799411265174000,12.421174072265625,1.1548360586166382,-6.560222148895264,7.358827114105225
1781799411313694700,12.46969482421875,0.6675975322723389,-6.617650032043457,7.344171047210693
1781799411362215200,12.518215087890624,1.6456637382507324,-6.593721866607666,7.255038261413574
1781799411410735600,12.566735595703125,0.0014955141814425588,-6.369095802307129,7.875377655029297
1781799411459256000,12.615256103515625,0.90358966588974,-7.226922512054443,6.594619274139404
1781799411507776500,12.663776611328124,1.3250255584716797,-7.334898948669434,7.680960655212402
1781799411556297000,12.712296875,1.9070796966552734,-7.791030406951904,8.378169059753418
1781799411604817700,12.760817626953125,0.7528418302536011,-5.069493770599365,7.061817646026611
1781799411653337900,12.809337890625,0.10588239878416061,-5.863013744354248,7.584649562835693
1781799411701858600,12.857858642578124,1.4123635292053223,-7.2487568855285645,7.373782157897949
1781799411750379000,12.90637890625,1.2346965074539185,-7.258328437805176,6.834499835968018
1781799411798899200,12.954899169921875,1.6815561056137085,-6.508477687835693,6.829713821411133
1781799411847420000,13.003419921875,2.5163521766662598,-6.230910301208496,6.804290294647217
1781799411895940400,13.0519404296875,1.257129192352295,-4.944169998168945,7.090531826019287
1781799411944460800,13.100460693359375,1.669592022895813,-7.007680416107178,6.809973239898682
1781799411992981200,13.148981201171875,3.3547372817993164,-6.792625427246094,8.268997192382812
1781799412041501700,13.197501708984374,1.7204394340515137,-5.7634124755859375,7.051050186157227
1781799412090022100,13.246022216796876,2.5746772289276123,-5.951548099517822,8.024629592895508
1781799412138542800,13.29454296875,2.181356906890869,-6.141777515411377,8.081160545349121
1781799412187063000,13.34306298828125,2.5851457118988037,-6.5042901039123535,7.206583499908447
1781799412235583700,13.391583740234376,2.144866466522217,-6.589235305786133,6.6367926597595215
1781799412284104200,13.440104248046875,2.4939193725585938,-6.20847749710083,8.012665748596191
1781799412332624600,13.488624755859375,1.9423737525939941,-5.257031440734863,7.671389579772949
1781799412381145000,13.53714501953125,2.2627129554748535,-5.998208045959473,7.00050163269043
1781799412429665500,13.58566552734375,2.7789642810821533,-7.005586624145508,7.032505512237549
1781799412478186000,13.63418603515625,2.967100143432617,-7.246962547302246,6.465406894683838
1781799412526706700,13.682706787109375,2.5812573432922363,-4.751248359680176,6.328118801116943
1781799412575227000,13.731226806640626,2.6856443881988525,-7.109076023101807,8.637192726135254
1781799412623747600,13.77974755859375,2.570788860321045,-6.308377742767334,6.904788970947266
1781799412672267800,13.828267822265625,2.15653133392334,-5.0688958168029785,7.751848220825195
1781799412720788500,13.87678857421875,2.6407787799835205,-5.397609710693359,7.70249605178833
1781799412769308700,13.92530859375,2.513062000274658,-6.404090881347656,7.34895658493042
1781799412817829400,13.973829345703125,2.3575284481048584,-6.8880391120910645,6.632306098937988
1781799412866349800,14.022349853515625,2.7335007190704346,-5.680561065673828,7.263712406158447
1781799412914870300,14.070870361328126,2.652743101119995,-5.863013744354248,8.553443908691406
1781799412963390700,14.119390625,2.968595504760742,-6.507879257202148,7.8388872146606445
1781799413011911200,14.1679111328125,3.37687087059021,-6.031408786773682,6.959225654602051
1781799413060431600,14.216431640625,2.38265323638916,-5.261219024658203,6.56829833984375
1781799413108952000,14.2649521484375,2.652743101119995,-5.847161293029785,7.262216567993164
1781799413157472500,14.313472412109375,3.7423746585845947,-7.1856465339660645,8.053343772888184
1781799413205993000,14.361992919921875,3.211168050765991,-5.844170093536377,7.76470947265625
1781799413254513400,14.410513427734376,1.6142579317092896,-4.571188449859619,6.684051036834717
1781799413303033900,14.459033935546875,2.7176482677459717,-5.639883041381836,7.084549427032471
1781799413351554300,14.50755419921875,4.694717884063721,-7.067800045013428,7.996214866638184
1781799413400074800,14.55607470703125,3.5805599689483643,-6.985546588897705,8.333602905273438
1781799413448595200,14.60459521484375,1.6734803915023804,-5.313860893249512,7.0597243309021
1781799413497115600,14.65311572265625,1.5242279767990112,-5.766104221343994,6.243771553039551
1781799413545636000,14.701635986328125,2.621636390686035,-6.70289421081543,6.93739128112793
1781799413594156500,14.750156494140626,2.6790640354156494,-6.293123722076416,7.6977105140686035
1781799413642677000,14.798677001953125,2.39192533493042,-5.524130344390869,7.850851058959961
1781799413691197400,14.847197509765625,2.5746772289276123,-5.980561256408691,7.200601577758789
1781799413739718100,14.89571826171875,1.9612172842025757,-6.311368942260742,7.295716285705566
1781799413788238300,14.94423828125,3.578765392303467,-6.906583309173584,7.264609336853027
1781799413836759000,14.992759033203125,2.922234535217285,-6.6744794845581055,8.184948921203613
1781799413885279200,15.041279296875,2.2055842876434326,-4.741078853607178,7.434499740600586
1781799413933800000,15.089800048828126,2.1170499324798584,-5.280062198638916,6.557231426239014
1781799413982320000,15.138320068359375,3.0355947017669678,-7.309175968170166,6.8482584953308105
1781799414030840800,15.1868408203125,2.9781668186187744,-7.536793231964111,6.712764739990234
1781799414079361000,15.235361083984374,5.303990364074707,-7.8332037925720215,6.667301177978516
1781799414127881700,15.2838818359375,-0.698704183101654,-6.171987056732178,6.321238994598389
1781799414176402000,15.33240185546875,1.2376874685287476,-6.083153247833252,5.637490272521973
1781799414224922600,15.380922607421875,2.0401804447174072,-9.08255672454834,7.40189790725708
1781799414273442800,15.42944287109375,2.2932214736938477,-6.907181739807129,6.364908218383789
1781799414321963300,15.47796337890625,1.9830517768859863,-5.985047817230225,6.147161483764648
1781799414370483700,15.526483642578125,1.205384373664856,-6.316154479980469,6.472585201263428
1781799414419004200,15.575004150390624,2.346461772918701,-6.248557090759277,7.354938507080078
1781799414467524600,15.623524658203126,5.24416971206665,-6.201598167419434,8.564809799194336
1781799414516045000,15.672045166015625,4.798506736755371,-6.50189733505249,6.8482584953308105
1781799414564565500,15.7205654296875,1.4195420742034912,-5.571089267730713,7.885846138000488
1781799414613086000,15.7690859375,1.1982059478759766,-6.969694137573242,6.844070911407471
1781799414661606400,15.8176064453125,2.324028968811035,-8.289336204528809,6.247660160064697
1781799414710126800,15.866126953125,-0.3963112533092499,-5.057828903198242,6.10259485244751
1781799414758647300,15.914647216796874,3.4432718753814697,-5.6656060218811035,6.673582553863525
1781799414807167700,15.963167724609375,3.620938777923584,-2.384746789932251,6.117849349975586
1781799414855688200,16.011688232421875,4.00319242477417,0.017647067084908485,6.742974281311035
1781799414904208600,16.060208740234376,4.786243438720703,-2.2549362182617188,9.05862808227539
1781799414952729000,16.10872900390625,1.1676974296569824,-2.0506489276885986,9.881759643554688
1781799415001249500,16.15724951171875,-0.49680981040000916,-5.544169902801514,11.513364791870117
1781799415049770000,16.20577001953125,-0.750449001789093,-6.44387149810791,10.103394508361816
1781799415098290400,16.25429052734375,-1.5538392066955566,-7.973483085632324,8.95394229888916
1781799415146811000,16.302810791015624,-2.590529680252075,-9.297611236572266,8.975478172302246
1781799415195331300,16.351331298828125,-5.299503803253174,-7.0067830085754395,7.133004188537598
1781799415243851800,16.399851806640626,-8.679664611816406,-2.8594231605529785,11.243873596191406
1781799415292372200,16.448372314453124,1.8535401821136475,-8.727521896362305,7.661220073699951
1781799415340892700,16.496892578125,-0.06610172241926193,-7.139285564422607,8.486444473266602
1781799415389413000,16.5454130859375,0.6562315821647644,-6.195616245269775,10.723135948181152
1781799415437933300,16.593933349609376,-0.6762714982032776,-6.509375095367432,6.141478538513184
1781799415486454000,16.6424541015625,-1.85383939743042,-7.433602809906006,7.3522467613220215
1781799415534974200,16.69097412109375,1.077667474746704,-9.147162437438965,7.925626754760742
1781799415583495000,16.739494873046876,1.9507486820220947,-10.751550674438477,6.070590972900391
1781799415632015000,16.78801513671875,-1.5020943880081177,-7.588238716125488,4.6199421882629395
1781799415680535600,16.83653564453125,-0.6308078765869141,-7.285247802734375,5.2752766609191895
1781799415729056000,16.885055908203125,3.118446111679077,-9.454939842224121,3.5691940784454346
1781799415777576400,16.933576416015626,6.195915222167969,-8.432307243347168,2.1924238204956055
1781799415826097000,16.982096923828124,2.1200408935546875,-7.221538543701172,2.5531418323516846
1781799415874617300,17.030617431640625,1.4925230741500854,-2.9751758575439453,4.0782670974731445
1781799415923137800,17.0791376953125,5.384748458862305,-7.75842809677124,0.8566305041313171
1781799415971658200,17.127658203125,4.542175769805908,-11.218449592590332,1.2098709344863892
1781799416020178400,17.176178466796873,5.50438928604126,-9.302396774291992,1.3175479173660278
1781799416068699100,17.22469921875,4.992325305938721,-8.440083503723145,2.9694929122924805
1781799416117219300,17.27321923828125,4.076472282409668,-8.653044700622559,2.758326292037964
1781799416165740000,17.321739990234374,2.880061149597168,-8.85643482208252,2.722134828567505
1781799416214260200,17.37026025390625,4.347758769989014,-8.730812072753906,2.9718856811523438
1781799416262780700,17.41878076171875,4.826921463012695,-8.236095428466797,2.74755859375
1781799416311301000,17.467301025390626,1.4006985425949097,-5.60817813873291,2.9832515716552734
1781799416359821600,17.515821533203123,6.018846035003662,-7.23170804977417,3.1737802028656006
1781799416408341800,17.564341796875,3.8769710063934326,-7.843672752380371,3.6735808849334717
1781799416456862500,17.612862548828126,2.1430718898773193,-10.85862922668457,3.627519130706787
1781799416505382700,17.661382568359375,3.0732815265655518,-10.292128562927246,2.9072794914245605
1781799416553903000,17.709903076171877,1.6360924243927002,-9.117252349853516,1.596909999847412
1781799416602423600,17.758423583984374,0.5407779216766357,-9.340981483459473,4.480859279632568
1781799416650943700,17.80694384765625,-0.01734796352684498,-9.190832138061523,4.877170562744141
1781799416699464400,17.85546435546875,0.6364908218383789,-8.369195938110352,3.147459030151367
1781799416747984600,17.903984619140626,-1.124626636505127,-12.189038276672363,1.1700903177261353
1781799416796505000,17.952505126953124,-1.5179468393325806,-12.292827606201172,0.760917603969574
1781799416845025500,18.001025634765625,-0.2315055876970291,-9.579366683959961,1.6094722747802734
1781799416893546000,18.0495458984375,-0.22103698551654816,-8.627920150756836,1.6304094791412354
1781799416942066200,18.098066162109376,-0.41874396800994873,-9.205188751220703,2.3162522315979004
1781799416990587000,18.1465869140625,-0.4169493317604065,-8.544769287109375,2.4263222217559814
1781799417039107000,18.195107177734375,-0.628415048122406,-9.186943054199219,1.3704891204833984
1781799417087627500,18.24362744140625,-0.7339983582496643,-6.58175802230835,0.6637091636657715
1781799417136148000,18.29214794921875,-1.2221341133117676,-5.332106113433838,-0.27756741642951965
1781799417184668400,18.34066845703125,-0.5757729411125183,-10.352248191833496,0.5120640397071838
1781799417233188600,18.389188720703125,-1.1694921255111694,-19.322641372680664,1.28255295753479
1781799417281709300,18.437709228515626,-2.472383975982666,-12.577274322509766,1.6121642589569092
1781799417330229500,18.4862294921875,0.09182456880807877,-6.701697826385498,0.6340979933738708
1781799417378750000,18.53475,-0.8551349639892578,-9.41037368774414,1.062413215637207
1781799417427270400,18.5832705078125,-1.5044872760772705,-10.791031837463379,1.054337501525879
1781799417475790800,18.631790771484376,-0.8350951075553894,-9.607182502746582,0.6738786697387695
1781799417524311000,18.68031103515625,-1.3773685693740845,-9.885348320007324,0.9340981245040894
1781799417572831200,18.728831298828126,-0.7483552694320679,-9.879366874694824,1.1237293481826782
1781799417621352000,18.77735205078125,-0.6690930128097534,-9.99571704864502,1.7467604875564575
1781799417669872000,18.8258720703125,-0.7313064336776733,-9.816255569458008,1.8346967697143555
1781799417718392600,18.874392578125,-0.5488536953926086,-9.55753231048584,1.542473316192627
1781799417766913000,18.9229130859375,-1.0199406147003174,-9.876076698303223,0.8177471160888672
1781799417815433500,18.97143359375,-1.0462616682052612,-10.031609535217285,0.44805604219436646
1781799417863953700,19.01995361328125,-1.053739309310913,-9.742077827453613,0.4169493317604065
1781799417912474400,19.068474365234376,-0.9053842425346375,-9.73968505859375,0.6394818425178528
1781799417960994600,19.11699462890625,-0.9020941257476807,-9.923035621643066,0.8757730722427368
1781799418009515000,19.165514892578123,-0.851844847202301,-9.69511890411377,0.7746763229370117
1781799418058035200,19.21403515625,-0.994516909122467,-9.63918685913086,0.3284149169921875
1781799418106556000,19.262555908203126,-0.908674418926239,-10.245468139648438,0.46480581164360046
1781799418155076000,19.311076171875,-0.831206738948822,-10.460822105407715,1.2954143285751343
1781799418203596500,19.359596435546877,-0.7734799385070801,-9.591330528259277,1.0019944906234741
1781799418252116700,19.40811669921875,-0.7447660565376282,-9.729815483093262,1.4276177883148193
1781799418300637400,19.456637451171876,-1.114158034324646,-10.048957824707031,0.9302098155021667
1781799418349157600,19.50515771484375,-1.1228320598602295,-9.823135375976562,0.3690928816795349
1781799418397678000,19.553677978515626,-0.8303094506263733,-10.034899711608887,0.8183453679084778
1781799418446198300,19.6021982421875,-0.9074779748916626,-9.68794059753418,0.48723849654197693
1781799418494719000,19.650718994140625,-0.8811569213867188,-9.571290969848633,0.5542375445365906
1781799418543239200,19.6992392578125,-0.7902296781539917,-10.195219039916992,1.0208379030227661
1781799418591759400,19.74775927734375,-0.8177471160888672,-10.151848793029785,1.057029366493225
1781799418640279800,19.79627978515625,-0.6134598851203918,-9.600004196166992,1.0169496536254883
1781799418688800300,19.84480029296875,-0.8368897438049316,-9.672686576843262,0.4983053207397461
1781799418737320700,19.89332080078125,-0.9514461159706116,-9.996315956115723,0.38344982266426086
1781799418785841000,19.9418408203125,-0.9442676305770874,-9.951150894165039,0.22791635990142822
1781799418834361300,19.990361328125,-0.8685946464538574,-9.975079536437988,0.3846462368965149
1781799418882881800,20.0388818359375,-0.7695915699005127,-9.923633575439453,0.6101697683334351
1781799418931402200,20.08740234375,-0.7010970115661621,-9.78245735168457,0.4531407952308655
1781799418979922400,20.13592236328125,-0.7752745151519775,-9.937392234802246,0.22492532432079315
1781799419028443000,20.18444287109375,-0.7250252366065979,-9.987043380737305,0.1899302899837494
1781799419076963000,20.232963134765626,-0.7591229677200317,-9.982257843017578,0.13938191533088684
1781799419125483800,20.28148388671875,-0.6332007050514221,-9.928718566894531,0.3963112533092499
1781799419174004000,20.33000390625,-0.7663014531135559,-9.769296646118164,0.5796613097190857
1781799419222525000,20.37852490234375,-0.5814558863639832,-10.028319358825684,0.5712863802909851
1781799419271045400,20.42704541015625,-0.7280163168907166,-9.949356079101562,0.31106695532798767
1781799419319565600,20.475565673828125,-0.8368897438049316,-9.89432144165039,0.18753747642040253
1781799419368086300,20.524086181640627,-0.7387840151786804,-10.027721405029297,0.1537388563156128
1781799419416606500,20.5726064453125,-0.9547362327575684,-9.945169448852539,0.08075776696205139
1781799419465127000,20.621126953125,-0.8335995674133301,-9.939187049865723,0.047258246690034866
1781799419513647000,20.669647216796875,-0.9337990283966064,-9.792925834655762,0.09421738982200623
1781799419562167600,20.71816748046875,-0.8240283131599426,-9.970891952514648,0.22193430364131927
1781799419610687700,20.766687744140626,-0.8398807644844055,-9.794421195983887,0.26500511169433594
1781799419659208400,20.81520849609375,-0.7208378314971924,-10.110274314880371,0.587138831615448
1781799419707728600,20.863728759765625,-0.8168498277664185,-9.838688850402832,0.6430711150169373
1781799419756249000,20.9122490234375,-0.6882356405258179,-9.867402076721191,0.7384848594665527
1781799419804769300,20.960769287109375,-0.750449001789093,-10.033703804016113,0.5497509837150574
1781799419853289700,21.009289794921877,-0.6930212378501892,-9.794421195983887,0.3774677813053131
1781799419901810000,21.057809814453126,-0.7124629616737366,-9.911968231201172,0.5306084156036377
1781799419950330600,21.10633056640625,-0.9038887619972229,-10.01575756072998,0.23838496208190918
1781799419998850800,21.154850830078125,-0.9643075466156006,-9.698110580444336,0.28534409403800964
1781799420047371000,21.20337109375,-0.8383852243423462,-10.08006477355957,0.29371899366378784
1781799420095891500,21.251891357421876,-0.8159525394439697,-10.17009449005127,0.10767702013254166
1781799420144411600,21.30041162109375,-0.7145566344261169,-10.026823997497559,0.508773922920227
1781799420192932000,21.34893212890625,-0.7256234884262085,-9.630513191223145,0.6675975322723389
1781799420241452500,21.39745263671875,-0.6379863619804382,-9.755537986755371,0.7067800164222717
1781799420289973000,21.445972900390625,-0.6451647877693176,-10.1183500289917,0.6786643266677856
1781799420338493200,21.4944931640625,-1.093519926071167,-9.927821159362793,0.20488543808460236
1781799420387013600,21.543013671875,-1.1419745683670044,-9.678369522094727,0.22103698551654816
1781799420435533800,21.591533935546874,-1.5074782371520996,-9.527621269226074,-0.05563312768936157
1781799420484054300,21.64005419921875,0.19531415402889252,-9.970891952514648,0.9212366938591003
1781799420532574500,21.688574462890625,-1.036690354347229,-10.173684120178223,0.716949462890625
1781799420581095200,21.73709521484375,-0.9658030271530151,-9.89850902557373,0.7049853801727295
1781799420629615400,21.785615478515624,-0.9101698994636536,-9.841679573059082,0.6005984544754028
1781799420678135800,21.8341357421875,-0.9888339638710022,-9.903892517089844,0.2584248483181
1781799420726656000,21.882656005859374,-0.7767700552940369,-9.757033348083496,0.3236292600631714
1781799420775176400,21.931176513671875,-0.7244270443916321,-9.881460189819336,0.7474579811096191
1781799420823696600,21.979696533203125,-0.6732804775238037,-9.987641334533691,1.1356934309005737
1781799420872216800,22.028216796875,-0.6613163352012634,-9.844969749450684,1.3336994647979736
1781799420920737300,22.0767373046875,-0.5814558863639832,-9.938887596130371,1.4386845827102661
1781799420969257500,22.125257568359373,-0.5847460627555847,-9.936494827270508,1.3956137895584106
1781799421017778200,22.173778076171875,-0.6436693072319031,-9.799506187438965,1.3558331727981567
1781799421066298400,22.22229833984375,-0.8638089895248413,-9.926923751831055,0.8668000102043152
1781799421114818800,22.27081884765625,-0.794417142868042,-9.970293998718262,0.6131607890129089
1781799421163339000,22.319339111328127,-0.8455637097358704,-9.945169448852539,0.34636107087135315
1781799421211859500,22.367859375,-0.7570292353630066,-9.79801082611084,0.41485562920570374
1781799421260379600,22.416379638671874,-0.7345965504646301,-9.938887596130371,0.4265206456184387
1781799421308900000,22.464900146484375,-0.7498508095741272,-9.98435115814209,0.5126622319221497
1781799421357420300,22.513420166015624,-0.6852445602416992,-9.870393753051758,0.6059823632240295
1781799421405940700,22.561940673828126,-0.6981059908866882,-9.971489906311035,0.6795616149902344
1781799421454461000,22.6104609375,-0.6786643266677856,-9.888040542602539,0.6203392744064331
1781799421502981600,22.658981689453125,-0.6930212378501892,-9.857531547546387,0.5446662306785583
1781799421551501800,22.707501708984374,-0.7522436380386353,-9.949356079101562,0.5581258535385132
1781799421600022300,22.756022216796875,-0.7289136052131653,-9.91286563873291,0.5880361795425415
1781799421648542500,22.80454248046875,-0.7393822073936462,-9.92841911315918,0.6092724800109863
1781799421697063000,22.85306298828125,-0.7217351198196411,-9.933204650878906,0.6035895347595215
1781799421745583000,22.9015830078125,-0.6852445602416992,-9.891928672790527,0.6403791308403015
1781799421794103300,22.950103271484377,-0.7268198728561401,-9.945169448852539,0.6278168559074402
1781799421842623700,22.998623779296874,-0.6897311210632324,-9.893723487854004,0.6652047038078308
1781799421891144000,23.04714404296875,-0.6906284093856812,-9.893723487854004,0.6708876490592957
1781799421939664400,23.095664306640625,-0.6906284093856812,-9.924530982971191,0.638883650302887
1781799421988184600,23.1441845703125,-0.6843472719192505,-9.90568733215332,0.6370890140533447
1781799422036705000,23.192705078125,-0.6789634227752686,-9.911669731140137,0.6029912829399109
1781799422085225500,23.2412255859375,-0.6834499835968018,-9.930213928222656,0.6131607890129089
1781799422133746000,23.289745849609375,-0.7034898400306702,-9.924830436706543,0.6071787476539612
1781799422182266000,23.33826611328125,-0.6969096064567566,-9.89432144165039,0.6526423692703247
1781799422230786600,23.38678662109375,-0.7115656137466431,-9.917352676391602,0.620638370513916
1781799422279306800,23.435306640625,-0.7100701332092285,-9.89850902557373,0.5916253924369812
1781799422327827200,23.4838271484375,-0.7145566344261169,-9.89432144165039,0.6101697683334351
1781799422376347400,23.532347412109374,-0.7322037220001221,-9.920642852783203,0.5991029739379883
1781799422424867800,23.580867919921875,-0.7184450030326843,-9.896116256713867,0.6717849373817444
1781799422473388000,23.629387939453125,-0.7082754969596863,-9.897611618041992,0.6930212378501892
1781799422521908500,23.677908447265626,-0.7130611538887024,-9.90568733215332,0.7010970115661621
1781799422570428700,23.7264287109375,-0.7076773047447205,-9.892526626586914,0.7067800164222717
1781799422618948900,23.774948974609377,-0.7184450030326843,-9.899106979370117,0.6909275650978088
1781799422667469300,23.82346923828125,-0.719641387462616,-9.942177772521973,0.6427719593048096
1781799422715989500,23.871989501953124,-0.7154539823532104,-9.852148056030273,0.6574280261993408
1781799422764510000,23.920510009765625,-0.7130611538887024,-9.904491424560547,0.664606511592865
1781799422813030100,23.969030029296874,-0.7384848594665527,-9.903294563293457,0.7154539823532104
1781799422861550600,24.017550537109376,-0.7322037220001221,-9.928718566894531,0.6900302171707153
1781799422910070800,24.06607080078125,-0.7136593461036682,-9.892826080322266,0.6801598072052002
1781799422958591500,24.114591552734375,-0.7088736891746521,-9.882357597351074,0.6780661344528198
1781799423007111700,24.163111572265624,-0.7097710371017456,-9.891928672790527,0.6795616149902344
1781799423055632100,24.211632080078125,-0.7016952633857727,-9.930213928222656,0.6795616149902344
1781799423104152300,24.26015234375,-0.7016952633857727,-9.92841911315918,0.7124629616737366
1781799423152672800,24.3086728515625,-0.7112665176391602,-9.839286804199219,0.6939185857772827
1781799423201193000,24.35719287109375,-0.6957131624221802,-9.905388832092285,0.7187440991401672
1781799423249713400,24.40571337890625,-0.6939185857772827,-9.926325798034668,0.7336992621421814
1781799423298233600,24.454233642578124,-0.672383189201355,-9.859027862548828,0.7112665176391602
1781799423346754000,24.502754150390626,-0.6708876490592957,-9.919745445251465,0.7576274871826172
1781799423395274200,24.551274169921875,-0.7082754969596863,-9.893723487854004,0.6885347366333008
1781799423443794700,24.599794677734376,-0.6945167779922485,-9.919147491455078,0.7082754969596863
1781799423492315000,24.64831494140625,-0.6897311210632324,-9.926026344299316,0.698704183101654
1781799423540835000,24.6968349609375,-0.6442674994468689,-9.890433311462402,0.7519445419311523
1781799423589355500,24.74535546875,-0.6571289300918579,-9.876974105834961,0.7938188910484314
1781799423637875700,24.793875732421874,-0.6373881101608276,-9.897313117980957,0.7743772268295288
1781799423686396200,24.842396240234375,-0.6652047038078308,-9.902397155761719,0.802193820476532
1781799423734916400,24.890916259765625,-0.6634100675582886,-9.89850902557373,0.8177471160888672
1781799423783436800,24.939436767578126,-0.6690930128097534,-9.908080101013184,0.7968099117279053
1781799423831957000,24.98795703125,-0.6598208546638489,-9.881460189819336,0.8126623630523682
1781799423880477400,25.0364775390625,-0.6299105882644653,-9.920642852783203,0.781555712223053
1781799423928997600,25.08499755859375,-0.6478567123413086,-9.910174369812012,0.7651050686836243
1781799423977518000,25.13351806640625,-0.6173482537269592,-9.892826080322266,0.8141579031944275
1781799424026038300,25.182038330078125,-0.6326025128364563,-9.910174369812012,0.7935197949409485
1781799424074558700,25.230558837890626,-0.6364908218383789,-9.907182693481445,0.7767700552940369
1781799424123079000,25.279078857421876,-0.6418746709823608,-9.89133071899414,0.783948540687561
1781799424171599400,25.327599365234374,-0.6547361016273499,-9.891928672790527,0.7794619798660278
1781799424220119600,25.37611962890625,-0.6445665955543518,-9.89970588684082,0.7770691514015198
1781799424268640000,25.424639892578124,-0.6403791308403015,-9.923933029174805,0.7854440212249756
1781799424317160200,25.47316015625,-0.654137909412384,-9.879964828491211,0.7728816866874695
1781799424365680400,25.521680419921875,-0.6538388133049011,-9.896714210510254,0.7666005492210388
1781799424414200800,25.570200927734376,-0.6708876490592957,-9.902098655700684,0.8057830333709717
1781799424462721000,25.618720947265626,-0.6454638838768005,-9.882955551147461,0.7570292353630066
1781799424511241700,25.66724169921875,-0.6858428120613098,-9.92542839050293,0.7770691514015198
1781799424559762000,25.715761962890625,-0.6604190468788147,-9.895816802978516,0.7543373107910156
1781799424608282400,25.764282470703126,-0.6897311210632324,-9.907182693481445,0.7929216027259827
1781799424656802600,25.812802490234375,-0.6804589629173279,-9.936494827270508,0.7624131441116333
1781799424705323000,25.861322998046877,-0.6637091636657715,-9.879366874694824,0.7713862061500549
1781799424753843200,25.90984326171875,-0.6586244106292725,-9.907781600952148,0.7507480978965759
1781799424802363600,25.95836376953125,-0.6661019921302795,-9.873384475708008,0.753140926361084
1781799424850883800,26.0068837890625,-0.666999340057373,-9.877572059631348,0.776171863079071
1781799424899404300,26.055404296875,-0.6930212378501892,-9.928718566894531,0.7671987414360046
1781799424947924500,26.103924560546876,-0.6834499835968018,-9.888937950134277,0.7674978375434875
1781799424996445000,26.15244482421875,-0.7124629616737366,-9.895218849182129,0.7339983582496643
1781799425044965000,26.200965087890626,-0.7058826684951782,-9.89432144165039,0.7211369276046753
1781799425093485600,26.249485595703124,-0.719641387462616,-9.918848037719727,0.698704183101654
1781799425142005800,26.298005859375,-0.6825526356697083,-9.904789924621582,0.7417750358581543
1781799425190526000,26.34652587890625,-0.6933203339576721,-9.879067420959473,0.760917603969574
1781799425239046400,26.39504638671875,-0.6891329288482666,-9.902098655700684,0.7666005492210388
1781799425287566600,26.443566650390625,-0.7004988193511963,-9.922138214111328,0.7322037220001221
1781799425336087000,26.492087158203127,-0.6610172390937805,-9.859925270080566,0.7465606927871704
1781799425384607200,26.540607177734376,-0.6571289300918579,-9.913464546203613,0.750449001789093
1781799425433127700,26.589127685546874,-0.600000262260437,-9.863813400268555,0.7627122402191162
1781799425481647900,26.63764794921875,-0.5919244885444641,-9.813862800598145,0.7280163168907166
1781799425530168300,26.686168212890625,-0.631106972694397,-9.934401512145996,0.631106972694397
1781799425578688500,26.7346884765625,-0.7019943594932556,-9.903294563293457,0.5940182209014893
1781799425627209000,26.783208984375,-0.6867401003837585,-9.994820594787598,0.7423732280731201
1781799425675729200,26.831729248046877,-0.7184450030326843,-10.045069694519043,0.7722834944725037
1781799425724249600,26.88024951171875,-0.5736792087554932,-9.803394317626953,0.768694281578064
1781799425772769800,26.928769775390624,-0.6643074154853821,-9.81356430053711,0.8213363885879517
1781799425821290200,26.977290283203125,-0.6035895347595215,-9.765109062194824,0.8748757839202881
1781799425869810400,27.025810546875,-0.5653043389320374,-10.023533821105957,1.0408778190612793
1781799425918331000,27.074330810546876,-0.5240281820297241,-9.941280364990234,0.8294121623039246
1781799425966851000,27.12285107421875,-0.584446907043457,-9.76989459991455,0.9403793215751648
1781799426015371300,27.171371337890626,-0.7130611538887024,-9.893424034118652,0.5982056856155396
1781799426063891700,27.2198916015625,-0.6484549641609192,-9.976275444030762,0.605384111404419
1781799426112412000,27.268411865234373,-0.6858428120613098,-9.894919395446777,0.7471588850021362
1781799426160932400,27.316932373046875,-0.6287141442298889,-9.843474388122559,0.716949462890625
1781799426209452500,27.36545263671875,-0.597308337688446,-10.007681846618652,0.7313064336776733
1781799426257973000,27.413972900390625,-0.6254240274429321,-9.943075180053711,0.6690930128097534
1781799426306493200,27.4624931640625,-0.6556333899497986,-9.905388832092285,0.6475576162338257
1781799426355013600,27.511013671875,-0.6379863619804382,-9.985847473144531,0.5264210104942322
1781799426403533800,27.559533935546874,-0.597308337688446,-9.895218849182129,0.6571289300918579
1781799426452054300,27.60805419921875,-0.5030909776687622,-9.998708724975586,0.7447660565376282
1781799426500574500,27.656574462890624,-0.48873403668403625,-9.8838529586792,0.7369893789291382
1781799426549095000,27.705094970703126,-0.46719861030578613,-9.952347755432129,0.6993024349212646
1781799426597615000,27.753614990234375,-0.47796630859375,-9.930213928222656,0.5727819204330444
1781799426646135600,27.802135498046876,-0.5527420043945312,-9.92542839050293,0.7019943594932556
1781799426694655700,27.85065576171875,-0.6293123364448547,-9.829116821289062,0.7833502888679504
1781799426743176200,27.89917626953125,-0.9284151792526245,-9.804291725158691,0.4627120792865753
1781799426791696400,27.9476962890625,-0.8072785139083862,-9.892826080322266,0.4492524564266205
1781799426840216600,27.996216552734374,-0.5709872841835022,-10.060323715209961,1.1001001596450806
1781799426888737000,28.044737060546876,-0.41545382142066956,-9.93679428100586,1.3103694915771484
1781799426937257200,28.09325732421875,-0.5303093194961548,-10.195219039916992,0.498604416847229
1781799426985777700,28.141777587890626,-0.06071787327528,-9.426823616027832,0.13070793449878693
1781799427034297900,28.1902978515625,-1.1548360586166382,-10.053743362426758,0.19232311844825745
1781799427082818300,28.238818359375,-0.7689933776855469,-9.926325798034668,0.2847459018230438
1781799427131338500,28.28733837890625,-0.49351966381073,-10.078569412231445,0.7522436380386353
1781799427179859000,28.33585888671875,-0.3478565812110901,-9.861719131469727,0.870090126991272
1781799427228379100,28.384379150390625,-0.3966103494167328,-10.195219039916992,0.6948158740997314
1781799427276899600,28.432899658203127,-0.37896329164505005,-9.375079154968262,0.22492532432079315
1781799427325419800,28.481419677734376,-0.4570291340351105,-10.135398864746094,0.1860419660806656
1781799427373940200,28.529940185546874,-0.4289134442806244,-9.956535339355469,0.3652045428752899
1781799427422460400,28.57846044921875,-0.3367897868156433,-9.759725570678711,0.5533402562141418
1781799427470980900,28.62698095703125,-0.2503490746021271,-9.95563793182373,1.1524431705474854
1781799427519501000,28.6755009765625,-0.23270200192928314,-10.348360061645508,1.7291134595870972
1781799427568021500,28.724021484375,-0.3526422381401062,-10.200602531433105,0.9876375198364258
1781799427616541700,28.772541748046876,-0.4911268353462219,-9.422935485839844,0.2641077935695648
1781799427665062000,28.821061767578126,-0.5904290080070496,-10.101899147033691,0.13459627330303192
1781799427713582300,28.869582275390623,-0.6068796515464783,-10.331609725952148,0.7618148922920227
1781799427762102500,28.9181025390625,-1.0223335027694702,-9.934999465942383,0.49710890650749207
1781799427810623000,28.966623046875,-0.5991029739379883,-9.866504669189453,0.4250251352787018
1781799427859143200,29.01514306640625,-0.6451647877693176,-9.537193298339844,0.3355933725833893
1781799427907663600,29.06366357421875,-0.5464608669281006,-9.522835731506348,0.19770696759223938
1781799427956183800,29.112183837890626,-0.8997012972831726,-9.990633010864258,0.7953144311904907
1781799428004704300,29.160704345703124,-0.9672985672950745,-10.085747718811035,0.9768698215484619
1781799428053224200,29.20922412109375,-0.7313064336776733,-10.28614616394043,1.6112669706344604
1781799428101744600,29.25774462890625,-0.5201398134231567,-10.053743362426758,1.0606186389923096
1781799428150264800,29.306264892578124,-0.5829514265060425,-10.089037895202637,0.8380861282348633
1781799428198785300,29.354785400390625,-0.6661019921302795,-9.663713455200195,0.544965386390686
1781799428247305500,29.403305419921875,-0.7528418302536011,-9.708279609680176,0.29730820655822754
1781799428295826000,29.451825927734376,-0.8862416744232178,-9.768997192382812,-0.41545382142066956
1781799428344346000,29.50034619140625,-1.0414760112762451,-9.8240327835083,-0.4776672124862671
1781799428392866600,29.548866455078127,-1.0217353105545044,-9.792327880859375,-0.27367907762527466
1781799428441386800,29.59738671875,-1.0854442119598389,-9.641579627990723,-0.20757736265659332
1781799428489907000,29.645906982421874,-0.8566305041313171,-10.057930946350098,0.2386840581893921
1781799428538427400,29.694427490234375,-1.3214362859725952,-9.95563793182373,0.2913261651992798
1781799428586947600,29.742947509765624,-0.6924230456352234,-9.86949634552002,0.5312066078186035
1781799428635468000,29.791468017578126,-0.9254241585731506,-10.096216201782227,0.7016952633857727
1781799428683988200,29.83998828125,-0.5431707501411438,-10.068399429321289,0.9346963167190552
1781799428732508700,29.8885087890625,-0.8551349639892578,-9.618249893188477,0.39541393518447876
1781799428781028900,29.93702880859375,-0.8333004713058472,-9.90149974822998,0.5350949764251709
1781799428829549300,29.98554931640625,-0.8670991063117981,-9.923035621643066,0.45523449778556824
1781799428878069500,30.034069580078125,-0.6430711150169373,-9.79083251953125,0.5982056856155396
1781799428926590000,30.08258984375,-0.9284151792526245,-10.03310489654541,0.7651050686836243
1781799428975110100,30.131110107421875,-1.028016448020935,-10.023533821105957,0.908674418926239
1781799429023630600,30.179630615234377,-0.8344969153404236,-9.32303524017334,0.8997012972831726
1781799429072150800,30.22815087890625,-0.6556333899497986,-10.410273551940918,0.9756734371185303
1781799429120671200,30.276671142578124,-0.6972087025642395,-9.865608215332031,1.1700903177261353
1781799429169191400,30.32519140625,-0.537487804889679,-9.699605941772461,1.241276741027832
1781799429217711900,30.3737119140625,-0.9523434042930603,-9.902996063232422,0.7040880918502808
1781799429266232000,30.422232177734376,-1.057627558708191,-9.934102058410645,0.5153541564941406
1781799429314752300,30.470752197265625,-1.0414760112762451,-9.96700382232666,0.576670229434967
1781799429363272700,30.519272705078127,-0.862313449382782,-9.817152976989746,0.617946445941925
1781799429411793000,30.56779296875,-0.8503493666648865,-9.830313682556152,0.9795617461204529
1781799429460313300,30.616313232421874,-0.8001000881195068,-10.07468032836914,1.023230791091919
1781799429508833500,30.66483349609375,-0.5952146053314209,-9.987043380737305,0.8940183520317078
1781799429557354000,30.71335400390625,-0.5440680384635925,-9.867103576660156,0.7522436380386353
1781799429605874200,30.761874267578126,-0.6777670383453369,-9.900901794433594,0.4776672124862671
1781799429654394400,30.810394287109375,-0.666999340057373,-9.835996627807617,0.2757728099822998
1781799429702914600,30.85891455078125,-0.6134598851203918,-9.839884757995605,0.30149564146995544
1781799429751435000,30.90743505859375,-0.617946445941925,-10.06421184539795,0.5201398134231567
1781799429799955200,30.955955078125,-0.618245542049408,-10.02293586730957,0.6227321028709412
1781799429848475600,31.0044755859375,-0.5796613097190857,-9.92243766784668,0.8335995674133301
1781799429896995800,31.052995849609374,-0.6215356588363647,-9.910174369812012,1.0040881633758545
1781799429945516300,31.101516357421875,-0.6119644045829773,-9.780064582824707,1.2140583992004395
1781799429994036500,31.150036376953125,-0.6364908218383789,-9.764211654663086,1.2251251935958862
1781799430042557000,31.198556884765626,-0.6044868230819702,-9.844670295715332,1.2711870670318604
1781799430091077000,31.2470771484375,-0.4217349886894226,-9.888937950134277,1.2212368249893188
1781799430139597300,31.295597412109377,-0.47557350993156433,-9.899106979370117,1.0845468044281006
1781799430188117800,31.34411767578125,-0.633499801158905,-9.876076698303223,0.8231309652328491
1781799430236638000,31.392637939453124,-0.7016952633857727,-9.75942611694336,0.5847460627555847
1781799430285158400,31.441158447265625,-0.6732804775238037,-9.773184776306152,0.6652047038078308
1781799430333678600,31.4896787109375,-0.8159525394439697,-9.789037704467773,0.9840483069419861
1781799430382199000,31.538198974609376,-0.641276478767395,-10.239785194396973,0.9101698994636536
1781799430430719200,31.58671923828125,-0.4824528694152832,-10.278070449829102,0.6556333899497986
1781799430479239700,31.63523974609375,-0.13070793449878693,-9.736993789672852,1.2251251935958862
1781799430527760000,31.683759765625,-0.20189441740512848,-9.92961597442627,1.529910922050476
1781799430576280000,31.732280029296874,-0.023030918091535568,-9.895816802978516,1.6121642589569092
1781799430624800300,31.78080029296875,-0.11006984114646912,-9.674779891967773,1.334297776222229
1781799430673320700,31.82932080078125,-0.740279495716095,-9.79083251953125,0.6484549641609192
1781799430721841000,31.8778408203125,-0.97926265001297,-9.716355323791504,0.5593222975730896
1781799430770361300,31.926361328125,-1.0456634759902954,-10.093523979187012,0.36281174421310425
1781799430818881500,31.974881591796876,-0.9729815125465393,-9.869794845581055,0.4731806814670563
1781799430867401700,32.023401611328126,-0.7776673436164856,-10.028319358825684,0.8584251403808594
1781799430915922200,32.07192211914062,-0.37028929591178894,-9.986145973205566,1.2993026971817017
1781799430964442400,32.1204423828125,-0.19531415402889252,-9.827920913696289,1.3549357652664185
1781799431012962800,32.168962890625,-0.5078766345977783,-9.752547264099121,1.3408780097961426
1781799431061483000,32.21748291015625,-0.4220340847969055,-9.79681396484375,1.4404792785644531
1781799431110003500,32.26600341796875,-0.6741777658462524,-9.811470031738281,1.4087743759155273
1781799431158523600,32.31452368164062,-0.7782655358314514,-9.806385040283203,1.3495519161224365
1781799431207044000,32.36304418945313,-0.9795617461204529,-9.688538551330566,1.404586911201477
1781799431255564300,32.41156420898437,-1.1431710720062256,-9.266803741455078,1.1404790878295898
1781799431304084500,32.46008447265625,-0.597308337688446,-9.89013385772705,0.90358966588974
1781799431352604700,32.508604736328124,-0.3436691462993622,-10.686346054077148,1.1374880075454712
1781799431401125000,32.557125,0.07597211748361588,-10.058528900146484,2.408675193786621
1781799431449645300,32.605645263671875,-0.04127619042992592,-9.49322509765625,2.1373889446258545
1781799431498165800,32.65416577148437,-0.5234299302101135,-9.737292289733887,0.6230311989784241
1781799431546686000,32.70268603515625,-1.0199406147003174,-9.910472869873047,-0.23688943684101105
1781799431595206400,32.75120629882812,-1.1772687435150146,-10.212567329406738,-0.6173482537269592
1781799431643726600,32.7997265625,-0.9451649188995361,-10.034002304077148,0.1501496136188507
1781799431692246800,32.848246826171874,-0.8359923958778381,-9.777970314025879,1.1892328262329102
1781799431740767200,32.89676733398438,-0.5584250092506409,-9.722038269042969,1.454836130142212
1781799431789287400,32.945287353515624,-0.34307095408439636,-9.718748092651367,1.7856439352035522
1781799431837807900,32.99380786132812,-0.40348970890045166,-9.760323524475098,1.4452649354934692
1781799431886328000,33.042328125,-0.5350949764251709,-10.102497100830078,0.7663014531135559
1781799431934848300,33.09084814453125,-0.03738785535097122,-9.909575462341309,0.9206385016441345
1781799431983368400,33.139368408203126,0.029312077909708023,-10.077970504760742,1.4324034452438354
1781799432031889000,33.18788891601562,-0.6068796515464783,-10.05404281616211,1.1126625537872314
1781799432080409000,33.2364091796875,-0.8614161610603333,-9.805787086486816,0.6828517913818359
1781799432128929500,33.284929443359374,-0.7115656137466431,-9.780961990356445,0.01136590726673603
1781799432177449700,33.33344970703125,-0.45284169912338257,-10.091131210327148,0.7896314859390259
1781799432225970200,33.38197021484375,-0.5138586759567261,-9.74506950378418,0.5246263742446899
1781799432274490400,33.43049047851562,-0.39571303129196167,-9.761818885803223,0.35413774847984314
1781799432323010800,33.4790107421875,-0.48723849654197693,-9.975079536437988,1.0815558433532715
1781799432371531000,33.52753100585937,-0.4546363055706024,-10.026525497436523,1.755733609199524
1781799432420051200,33.57605126953125,-0.07417750358581543,-9.915857315063477,1.831406593322754
1781799432468571400,33.6245712890625,-0.13639089465141296,-9.667601585388184,1.6510475873947144
1781799432517091600,33.67309155273438,-0.4624129831790924,-9.888937950134277,1.2077772617340088
1781799432565612000,33.721612060546875,-0.384347140789032,-9.807282447814941,0.9388837814331055
1781799432614132200,33.77013232421875,-0.39182472229003906,-9.757930755615234,0.7743772268295288
1781799432662652700,33.818652587890625,-0.3332005441188812,-9.994221687316895,0.9068797826766968
1781799432711172900,33.8671728515625,0.12143574655056,-9.809675216674805,1.5658032894134521
1781799432759693300,33.915693359375,-0.05892325937747955,-9.78843879699707,1.8798612356185913
1781799432808213500,33.964213623046874,-0.3436691462993622,-10.05703353881836,1.1527422666549683
1781799432856734000,34.01273388671875,-0.40378883481025696,-9.85693359375,0.17766708135604858
1781799432905254000,34.06125390625,-0.6684948205947876,-10.060323715209961,-0.0005982056609354913
1781799432953774300,34.1097744140625,-0.6939185857772827,-10.067203521728516,0.38673996925354004
1781799433002294500,34.15829443359375,-0.43220359086990356,-9.850652694702148,1.1380863189697266
1781799433050815000,34.20681494140625,-0.3439682424068451,-9.817152976989746,1.6671991348266602
1781799433099335200,34.255335205078126,-0.3846462368965149,-9.806385040283203,1.3908281326293945
1781799433147855600,34.30385571289062,-0.47617170214653015,-9.847960472106934,1.1216355562210083
1781799433196375800,34.352375732421876,-0.4417748749256134,-9.868000984191895,1.1318050622940063
1781799433244896000,34.40089599609375,-0.3655036687850952,-9.98853874206543,0.9361918568611145
1781799433293416400,34.44941650390625,-0.31016963720321655,-9.946365356445312,0.5015954375267029
1781799433341936600,34.4979365234375,-0.44745782017707825,-9.73968505859375,0.5784648656845093
1781799433390456800,34.54645678710938,-0.5997011661529541,-9.945169448852539,1.1356934309005737
1781799433438977000,34.59497705078125,-0.8584251403808594,-9.861719131469727,1.0351948738098145
1781799433487497500,34.64349755859375,-0.4001995921134949,-10.002596855163574,0.8742775917053223
1781799433536017700,34.692017578125,-0.3487538993358612,-9.866504669189453,1.0447661876678467
1781799433584538000,34.7405380859375,-0.28564319014549255,-9.943075180053711,1.7285152673721313
1781799433633058300,34.78905834960938,-0.4145565330982208,-9.914361953735352,1.6869399547576904
1781799433681578800,34.837578857421875,-0.5054838061332703,-9.707681655883789,0.997208833694458
1781799433730099000,34.88609887695313,-0.729810893535614,-9.87667465209961,0.5832505226135254
1781799433778619100,34.934619140625,-0.7483552694320679,-9.88086223602295,0.30957141518592834
1781799433827139300,34.98313940429688,-0.5174478888511658,-9.929316520690918,0.7890332937240601
1781799433875659800,35.03165966796875,-0.372682124376297,-10.013962745666504,1.3495519161224365
1781799433924180000,35.08017993164062,-0.13549357652664185,-9.915258407592773,1.2472587823867798
1781799433972700400,35.12870043945313,-0.12442677468061447,-9.626923561096191,0.771087110042572
1781799434021220600,35.177220703125,-0.2599203586578369,-10.008279800415039,0.6158527135848999
1781799434069740800,35.22574072265625,-0.4627120792865753,-9.963713645935059,0.48903313279151917
1781799434118261000,35.27426098632812,-0.49202415347099304,-10.025029182434082,0.32721850275993347
1781799434166781200,35.32278125,-0.5216353535652161,-9.99571704864502,0.19531415402889252
1781799434215301600,35.371301513671874,-0.4585246443748474,-9.868598937988281,0.5312066078186035
1781799434263821800,35.41982177734375,-0.4713860750198364,-9.927821159362793,0.8039883971214294
1781799434312342300,35.46834228515625,-0.47288158535957336,-9.847362518310547,0.994516909122467
1781799434360862500,35.51686254882812,-0.5688936114311218,-9.893424034118652,1.1371889114379883
1781799434409383000,35.5653828125,-0.8294121623039246,-9.969097137451172,0.5240281820297241
1781799434457903000,35.61390307617187,-0.8742775917053223,-9.944570541381836,-0.31345975399017334
1781799434506423300,35.66242333984375,-0.7040880918502808,-9.8838529586792,-0.026919255033135414
1781799434554943500,35.710943603515624,-0.49591249227523804,-9.821041107177734,1.0839486122131348
1781799434603464000,35.7594638671875,-0.39960137009620667,-10.045967102050781,1.6836497783660889
1781799434651984100,35.807984130859374,-0.3556332588195801,-9.720243453979492,1.688435435295105
1781799434700504600,35.85650463867187,-0.2958126962184906,-9.702896118164062,1.4470595121383667
1781799434749024800,35.905024658203125,-0.38614174723625183,-9.808777809143066,1.205384373664856
1781799434797544700,35.95354467773438,-0.39182472229003906,-9.722038269042969,1.0034899711608887
1781799434846065200,36.002065185546876,-0.35413774847984314,-10.009177207946777,1.1252248287200928
1781799434894585300,36.05058544921875,-0.1779661774635315,-10.101001739501953,1.4365909099578857
1781799434943105800,36.099105712890626,-0.29371899366378784,-9.935896873474121,1.3677972555160522
1781799434991626000,36.1476259765625,-0.5129613280296326,-9.968499183654785,0.7292127013206482
1781799435040146400,36.196146484375,-0.7384848594665527,-9.855438232421875,0.5066801905632019
1781799435088666600,36.24466650390625,-0.8063812255859375,-9.970891952514648,0.49202415347099304
1781799435137186800,36.29318676757813,-0.4489533603191376,-9.974780082702637,1.0618150234222412
1781799435185707000,36.34170703125,-0.09002995491027832,-9.7938232421875,1.6495521068572998
1781799435234227500,36.3902275390625,-0.007178467698395252,-9.72114086151123,1.7338991165161133
1781799435282747600,36.43874755859375,-0.20189441740512848,-9.765707015991211,1.4691931009292603
1781799435331268000,36.48726806640625,-0.39092740416526794,-10.146465301513672,0.9580263495445251
1781799435379788300,36.53578833007813,-0.41216370463371277,-9.837791442871094,0.7489534616470337
1781799435428308500,36.58430859375,-0.36699917912483215,-9.914959907531738,1.1524431705474854
1781799435476828700,36.63282861328125,-0.35802608728408813,-9.95563793182373,1.3639088869094849
1781799435525348900,36.68134887695312,-0.31914272904396057,-9.9502534866333,1.1255239248275757
1781799435573869300,36.72986938476563,-0.33798620104789734,-9.922138214111328,0.9197412133216858
1781799435622389500,36.778389404296874,-0.3526422381401062,-9.784252166748047,1.1572288274765015
1781799435670909700,36.82690966796875,-0.4004986882209778,-9.819247245788574,1.3058829307556152
1781799435719430000,36.875429931640625,-0.5724828243255615,-9.702896118164062,1.1925230026245117
1781799435767950300,36.92395043945312,-0.7689933776855469,-9.889535903930664,0.661914587020874
1781799435816470500,36.972470458984375,-0.7962117195129395,-9.95982551574707,0.45134615898132324
1781799435864991000,37.02099096679687,-0.7591229677200317,-9.96700382232666,0.22821545600891113
1781799435913511200,37.06951123046875,-0.6394818425178528,-9.958329200744629,0.6436693072319031
1781799435962031400,37.11803125,-0.5042873620986938,-9.899106979370117,1.2436695098876953
1781799436010551600,37.16655151367188,-0.41575294733047485,-9.93679428100586,1.4931213855743408
1781799436059072000,37.215072021484374,-0.3732803463935852,-9.785747528076172,1.4937195777893066
1781799436107592200,37.26359228515625,-0.33738797903060913,-9.79083251953125,1.3615161180496216
1781799436156112600,37.312112548828125,-0.30299118161201477,-9.879366874694824,1.1261221170425415
1781799436204632800,37.3606328125,-0.2593221664428711,-9.985847473144531,0.966102123260498
1781799436253152800,37.40915283203125,-0.38673996925354004,-9.906285285949707,0.9388837814331055
1781799436301673200,37.45767309570312,-0.6143572330474854,-9.789037704467773,0.8144569993019104
1781799436350193400,37.506193359375,-0.8575277924537659,-9.938887596130371,0.5868397355079651
1781799436398713900,37.5547138671875,-0.953240692615509,-9.908679008483887,0.4085744619369507
1781799436447234000,37.60323413085938,-0.8979067206382751,-9.732208251953125,0.4049852192401886
1781799436495754200,37.65175415039062,-0.7244270443916321,-9.942177772521973,0.6484549641609192
1781799436544274400,37.7002744140625,-0.5599204897880554,-9.958329200744629,0.9101698994636536
1781799436592795000,37.748794921875,-0.3846462368965149,-9.93978500366211,1.134796142578125
1781799436641315000,37.79731518554688,-0.3574278950691223,-9.98674488067627,1.3103694915771484
1781799436689835500,37.84583544921875,-0.3116651475429535,-9.850353240966797,1.3797613382339478
1781799436738355500,37.89435546875,-0.30538398027420044,-9.834501266479492,1.3208380937576294
1781799436786876000,37.9428759765625,-0.33110684156417847,-9.824331283569336,1.2601202726364136
1781799436835396000,37.99139599609375,-0.35892340540885925,-9.891928672790527,1.1676974296569824
1781799436883916500,38.03991650390625,-0.4163511395454407,-9.924530982971191,1.038485050201416
1781799436932436700,38.08843676757812,-0.4944169819355011,-9.933504104614258,1.052243709564209
1781799436980957000,38.13695703125,-0.4794618487358093,-9.898209571838379,0.992124080657959
1781799437029477000,38.18547705078125,-0.47617170214653015,-9.90149974822998,0.9203394055366516
1781799437077997300,38.23399731445313,-0.494716078042984,-9.898209571838379,0.8653044700622559
1781799437126517800,38.282517822265625,-0.48484569787979126,-9.864710807800293,0.8392825126647949
1781799437175038000,38.33103784179688,-0.5240281820297241,-9.915857315063477,0.8955138921737671
1781799437223558100,38.37955810546875,-0.5126622319221497,-9.918848037719727,0.9696913957595825
1781799437272078300,38.42807836914063,-0.5081757307052612,-9.863214492797852,1.0600204467773438
1781799437320598800,38.476598876953126,-0.4863412082195282,-9.875777244567871,1.1117652654647827
1781799437369119000,38.52511889648437,-0.45942193269729614,-9.83838939666748,1.1048858165740967
1781799437417639200,38.57363916015625,-0.4731806814670563,-9.905388832092285,1.057029366493225
1781799437466159400,38.62215942382812,-0.481854647397995,-9.923933029174805,1.0034899711608887
1781799437514679800,38.6706796875,-0.5183451771736145,-9.955039978027344,0.981655478477478
1781799437563200000,38.71919995117187,-0.539880633354187,-9.917352676391602,0.9900303483009338
1781799437611720400,38.76772045898438,-0.5518447160720825,-9.871291160583496,0.9499505758285522
1781799437660240400,38.816240478515624,-0.5153541564941406,-9.85274600982666,0.9795617461204529
1781799437708760800,38.8647607421875,-0.5129613280296326,-9.847362518310547,1.007378339767456
1781799437757281000,38.913281005859375,-0.5072783827781677,-9.890433311462402,0.9643075466156006
1781799437805801200,38.96180126953125,-0.47557350993156433,-9.871291160583496,1.0088738203048706
1781799437854321700,39.01032177734375,-0.4540380835533142,-9.868897438049316,1.012762188911438
1781799437902841600,39.05884155273438,-0.46360939741134644,-9.911669731140137,1.0265209674835205
1781799437951362000,39.107362060546876,-0.4492524564266205,-9.934401512145996,1.012762188911438
1781799437999882200,39.15588232421875,-0.4489533603191376,-9.900901794433594,0.97926265001297
1781799438048402700,39.20440258789063,-0.43968117237091064,-9.864710807800293,0.92691969871521
1781799438096922600,39.25292260742187,-0.4325026869773865,-9.914959907531738,0.9508479237556458
1781799438145443000,39.30144311523438,-0.46091747283935547,-9.9140625,0.9586246013641357
1781799438193963300,39.34996337890625,-0.4866403043270111,-9.897611618041992,0.9825528264045715
1781799438242483700,39.39848364257813,-0.48394837975502014,-9.86231803894043,1.017547845840454
1781799438291003600,39.447003662109374,-0.45942193269729614,-9.86949634552002,1.0199406147003174
1781799438339524000,39.49552416992187,-0.5072783827781677,-9.867402076721191,1.0136594772338867
1781799438388044300,39.544044189453125,-0.5249254703521729,-9.917651176452637,1.0271191596984863
1781799438485085000,39.6410849609375,-0.5479564070701599,-9.860821723937988,1.0187442302703857
1781799438533604900,39.68960498046875,-0.5335994362831116,-9.872187614440918,0.953240692615509
1781799438582125300,39.738125244140626,-0.5102694034576416,-9.922138214111328,0.9068797826766968
1781799438630645500,39.7866455078125,-0.5066801905632019,-9.880562782287598,0.8934201598167419
1781799438679166000,39.835166015625,-0.5120640397071838,-9.888040542602539,0.9403793215751648
1781799438727686000,39.88368579101562,-0.5327021479606628,-9.904491424560547,0.966102123260498
1781799438776206300,39.93220629882813,-0.5359922647476196,-9.885647773742676,0.9828519225120544
1781799438824726500,39.9807265625,-0.5599204897880554,-9.904491424560547,0.9720842242240906
1781799438873247000,40.0292470703125,-0.5455635786056519,-9.908080101013184,0.9349954724311829
1781799438921767000,40.077766845703124,-0.5240281820297241,-9.8838529586792,0.9580263495445251
1781799438970287400,40.12628735351562,-0.5234299302101135,-9.892526626586914,0.9379864931106567
1781799439018807600,40.1748076171875,-0.5494518876075745,-9.90149974822998,0.9158528447151184
1781799439067328000,40.22332788085937,-0.5569294691085815,-9.885647773742676,0.9451649188995361
1781799439115848000,40.271847900390625,-0.5368895530700684,-9.8838529586792,0.966102123260498
1781799439164368400,40.32036840820312,-0.5282155871391296,-9.879366874694824,0.9969097375869751
1781799439212888600,40.368888671875,-0.5392823815345764,-9.890433311462402,1.0151549577713013
1781799439261408800,40.41740869140625,-0.529412031173706,-9.870393753051758,0.9699904918670654
1781799439309929000,40.46592895507813,-0.5512465238571167,-9.872187614440918,0.9403793215751648
1781799439358449200,40.51444921875,-0.5638088583946228,-9.912567138671875,0.92691969871521
1781799439406969600,40.56296948242188,-0.5670989751815796,-9.900004386901855,0.9634101986885071
1781799439455489800,40.61148974609375,-0.5605186820030212,-9.89133071899414,0.9475577473640442
1781799439504010000,40.66001000976563,-0.5258227586746216,-9.868897438049316,0.9355936646461487
1781799439552530200,40.7085302734375,-0.5416752099990845,-9.89432144165039,0.9577272534370422
1781799439601050600,40.75705053710937,-0.5368895530700684,-9.88415241241455,0.9628120064735413
1781799439649570800,40.80557080078125,-0.5590232014656067,-9.893723487854004,0.9397810697555542
1781799439698091000,40.85409106445312,-0.5718846321105957,-9.87667465209961,0.9302098155021667
1781799439746611200,40.902611083984375,-0.5727819204330444,-9.882955551147461,0.8709874153137207
1781799439795131600,40.95113159179687,-0.5838487148284912,-9.9140625,0.9122636318206787
1781799439843651800,40.99965185546875,-0.5632106065750122,-9.900901794433594,0.9355936646461487
1781799439892172000,41.048172119140624,-0.4863412082195282,-9.867402076721191,1.0187442302703857
1781799439940692200,41.09669213867188,-0.43489551544189453,-9.879366874694824,1.1060823202133179
1781799439989212400,41.14521240234375,-0.393320232629776,-9.89432144165039,1.186241865158081
1781799440037732600,41.19373266601563,-0.3846462368965149,-9.875179290771484,1.1826525926589966
1781799440086252800,41.24225268554687,-0.40677985548973083,-9.898209571838379,1.1072787046432495
1781799440134773200,41.29077319335938,-0.4130610227584839,-9.908080101013184,1.0274182558059692
1781799440183293400,41.33929345703125,-0.41964125633239746,-9.900004386901855,0.9936196208000183
1781799440231813600,41.38781372070312,-0.4776672124862671,-9.907182693481445,0.9340981245040894
1781799440280333800,41.436333740234375,-0.5431707501411438,-9.909575462341309,0.9020941257476807
1781799440328854300,41.48485424804687,-0.5560321807861328,-9.869794845581055,0.9170492887496948
1781799440377374500,41.53337451171875,-0.6406782865524292,-9.911968231201172,0.8799605369567871
1781799440425894700,41.58189477539062,-0.626022219657898,-9.902098655700684,0.851844847202301
1781799440474414800,41.630414794921876,-0.6777670383453369,-9.8838529586792,0.9116654396057129
1781799440522935300,41.678935302734374,-0.6460621356964111,-9.867402076721191,0.8982058167457581
1781799440571455200,41.72745532226563,-0.6340979933738708,-9.872187614440918,0.8560323119163513
1781799440619975700,41.7759755859375,-0.6014958024024963,-9.911669731140137,0.8973084688186646
1781799440668496000,41.82449584960938,-0.5240281820297241,-9.924830436706543,0.9705886840820312
1781799440717016000,41.87301611328125,-0.47676992416381836,-9.866206169128418,1.0809576511383057
1781799440765536300,41.92153637695313,-0.4250251352787018,-9.893723487854004,1.1024930477142334
1781799440814056400,41.970056396484374,-0.41874396800994873,-9.851848602294922,1.0567302703857422
1781799440862577000,42.01857690429687,-0.4537389874458313,-9.903294563293457,0.9747761487960815
1781799440911096800,42.067096923828124,-0.5006981492042542,-9.900901794433594,0.9696913957595825
1781799440959617300,42.1156171875,-0.5216353535652161,-9.875179290771484,0.9499505758285522
1781799441008137500,42.164137451171875,-0.5210371017456055,-9.868000984191895,0.9469595551490784
1781799441056658000,42.21265795898437,-0.5581258535385132,-9.915258407592773,0.9780662655830383
1781799441105177900,42.261177734375,-0.5748756527900696,-9.920044898986816,0.9299107193946838
1781799441153698300,42.3096982421875,-0.5808576941490173,-9.896116256713867,0.8374879360198975
1781799441202218500,42.35821850585938,-0.615553617477417,-9.871889114379883,0.8374879360198975
1781799441250738700,42.40673876953125,-0.6029912829399109,-9.911968231201172,0.7863413691520691
1781799441299259000,42.4552587890625,-0.6086742877960205,-9.89850902557373,0.857228696346283
1781799441347779000,42.50377905273437,-0.6020939946174622,-9.896714210510254,0.924227774143219
1781799441396299300,42.55229931640625,-0.5838487148284912,-9.891031265258789,0.9397810697555542
1781799441444819500,42.6008193359375,-0.5509474277496338,-9.867103576660156,0.9675976634025574
1781799441493340000,42.64933984375,-0.5470590591430664,-9.898209571838379,0.9762716293334961
1781799441541860000,42.697860107421874,-0.5264210104942322,-9.84975528717041,0.961017370223999
1781799441590380300,42.74638037109375,-0.5138586759567261,-9.892826080322266,0.9858429431915283
1781799441638900500,42.794900390625,-0.5105685591697693,-9.891031265258789,1.038485050201416
1781799441687421000,42.8434208984375,-0.5306084156036377,-9.903892517089844,0.9915258884429932
1781799441735940900,42.89194091796875,-0.5407779216766357,-9.89850902557373,1.0058828592300415
1781799441784461300,42.94046142578125,-0.5246263742446899,-9.89432144165039,0.9777671694755554
1781799441832981500,42.9889814453125,-0.5240281820297241,-9.88415241241455,0.9795617461204529
1781799441881501700,43.03750170898437,-0.5102694034576416,-9.895816802978516,0.9705886840820312
1781799441930022000,43.08602197265625,-0.5111667513847351,-9.888040542602539,0.9978070259094238
1781799441978542300,43.13454223632812,-0.5096712112426758,-9.879366874694824,1.007378339767456
1781799442027062500,43.1830625,-0.5102694034576416,-9.887741088867188,1.0154540538787842
1781799442075582500,43.23158251953125,-0.5111667513847351,-9.891928672790527,0.9939187169075012
1781799442124103000,43.28010302734375,-0.50907301902771,-9.89013385772705,1.0016953945159912
1781799442172623000,43.328623046875,-0.5210371017456055,-9.864710807800293,1.0259226560592651
1781799442221143300,43.37714331054688,-0.5497509837150574,-9.904789924621582,1.0082756280899048
1781799442269663500,43.42566357421875,-0.5177469849586487,-9.879067420959473,1.0250253677368164
1781799442318184000,43.47418383789063,-0.5177469849586487,-9.879067420959473,1.0241280794143677
1781799442366703900,43.522703857421874,-0.5186443328857422,-9.882357597351074,1.0328021049499512
1781799442415224300,43.57122436523437,-0.5102694034576416,-9.89013385772705,1.0067801475524902
1781799442463744500,43.61974462890625,-0.5216353535652161,-9.8838529586792,1.0163514614105225
1781799442512264700,43.6682646484375,-0.5126622319221497,-9.878469467163086,1.0304092168807983
1781799442560785000,43.716784912109375,-0.5048855543136597,-9.89013385772705,1.007378339767456
1781799442609305300,43.76530541992187,-0.49621158838272095,-9.888638496398926,1.0513464212417603
1781799442657825300,43.8138251953125,-0.4914259612560272,-9.900602340698242,1.0423734188079834
1781799442706345700,43.862345703125,-0.494716078042984,-9.902996063232422,1.0199406147003174
1781799442754866000,43.91086596679688,-0.48484569787979126,-9.884750366210938,1.038485050201416
1781799442803385900,43.9593857421875,-0.48006004095077515,-9.882955551147461,1.0082756280899048
1781799442851906300,44.00790625,-0.4899304509162903,-9.885348320007324,1.0432707071304321
1781799442900426500,44.05642651367187,-0.47288158535957336,-9.881460189819336,1.0546365976333618
1781799442948946700,44.10494677734375,-0.47676992416381836,-9.899106979370117,1.023230791091919
1781799442997467000,44.153466796875,-0.48873403668403625,-9.888937950134277,1.0375877618789673
1781799443045987300,44.2019873046875,-0.489631325006485,-9.897313117980957,1.0193424224853516
1781799443094507300,44.25050732421875,-0.46809592843055725,-9.876076698303223,1.0256235599517822
1781799443143027700,44.29902783203125,-0.4863412082195282,-9.879366874694824,1.0322039127349854
1781799443191548000,44.3475478515625,-0.48035913705825806,-9.906285285949707,1.0351948738098145
1781799443240068000,44.39606811523438,-0.5006981492042542,-9.892526626586914,1.0354939699172974
1781799443288588300,44.44458837890625,-0.506381094455719,-9.8871431350708,1.0271191596984863
1781799443337108700,44.49310864257812,-0.506381094455719,-9.897611618041992,1.0154540538787842
1781799443385628700,44.541628662109375,-0.4833501875400543,-9.86949634552002,1.0295119285583496
1781799443434148900,44.59014892578125,-0.5030909776687622,-9.92243766784668,0.9882357716560364
1781799443482669300,44.63866943359375,-0.4660021960735321,-9.886545181274414,1.0034899711608887
1781799443531189200,44.68718920898438,-0.4411766827106476,-9.877572059631348,0.9864411354064941
1781799443579709700,44.735709716796876,-0.4588237404823303,-9.900901794433594,1.1001001596450806
1781799443628230000,44.78422998046875,-0.4698905348777771,-9.869794845581055,1.0498509407043457
1781799443676750000,44.83275,-0.5006981492042542,-9.896116256713867,1.0145567655563354
1781799443725270300,44.88127026367187,-0.5344967842102051,-9.902098655700684,1.0247262716293335
1781799443773790700,44.92979077148438,-0.5350949764251709,-9.897611618041992,0.9930213689804077
1781799443822310700,44.978310546875,-0.5365904569625854,-9.88415241241455,0.9891330599784851
1781799443870831000,45.0268310546875,-0.5455635786056519,-9.875179290771484,1.023230791091919
1781799443919351300,45.075351318359374,-0.5608177781105042,-9.897611618041992,1.0498509407043457
1781799443967871500,45.12387158203125,-0.5781657695770264,-9.888937950134277,1.0154540538787842
1781799444016391700,45.1723916015625,-0.5733801126480103,-9.89013385772705,0.9825528264045715
1781799444064912100,45.220912109375,-0.5880361795425415,-9.89850902557373,1.0007981061935425
1781799444113432000,45.26943212890625,-0.5943173170089722,-9.89013385772705,1.0208379030227661
1781799444161952300,45.3179521484375,-0.594915509223938,-9.909575462341309,1.0462616682052612
1781799444210472700,45.36647265625,-0.5542375445365906,-9.904789924621582,1.0016953945159912
1781799444258992600,45.41499267578125,-0.7049853801727295,-9.945467948913574,0.8799605369567871
1781799444307513000,45.46351318359375,-0.7519445419311523,-9.953245162963867,0.8679963946342468
1781799444356033300,45.512033203125,-0.7432705163955688,-9.728618621826172,0.893121063709259
1781799444404553500,45.560553466796875,-0.587138831615448,-9.438788414001465,1.1285150051116943
1781799444453073700,45.60907373046875,-0.7289136052131653,-9.144769668579102,1.1629117727279663
1781799444501594000,45.657593994140626,-0.719641387462616,-9.428618431091309,0.5533402562141418
1781799444550114000,45.70611401367187,-0.33798620104789734,-9.874281883239746,0.8949156403541565
1781799444598634500,45.75463452148438,-0.5174478888511658,-11.646764755249023,2.144866466522217
1781799444647154700,45.80315478515625,-0.17557336390018463,-10.13599681854248,2.975774049758911
1781799444695675000,45.8516748046875,1.0187442302703857,-9.565906524658203,3.036491870880127
1781799444744195000,45.90019506835937,0.16809579730033875,-9.944570541381836,2.350649118423462
1781799444792715500,45.94871557617188,1.084846019744873,-9.213862419128418,2.095215320587158
1781799444841235500,45.9972353515625,1.1030912399291992,-8.253443717956543,2.681756019592285
1781799444889755600,46.04575561523438,1.277169108390808,-8.071887969970703,3.090928554534912
1781799444938275800,46.09427587890625,1.2293126583099365,-8.256134986877441,3.009572744369507
1781799444986796000,46.14279614257813,1.5427724123001099,-8.485547065734863,3.853341817855835
1781799445035316500,46.19131640625,0.851844847202301,-10.552348136901855,4.878965377807617
1781799445083836400,46.23983642578125,-0.1986042857170105,-14.635400772094727,4.346263408660889
1781799445132356900,46.28835693359375,0.32303106784820557,-10.012467384338379,2.0919251441955566
1781799445180877000,46.336876953125,0.22971096634864807,-8.897112846374512,-0.5279164910316467
1781799445229397200,46.385397216796875,-0.4265206456184387,-11.20080280303955,1.3088740110397339
1781799445277917400,46.43391748046875,-0.47557350993156433,-10.115059852600098,1.2083754539489746
1781799445326438000,46.48243798828125,-0.22013968229293823,-9.14865779876709,0.08554340898990631
1781799445374957800,46.53095776367188,-0.1052841991186142,-8.866005897521973,-0.349352091550827
1781799445423478300,46.579478271484376,-0.22103698551654816,-8.693124771118164,-0.7674978375434875
1781799445471998500,46.62799853515625,-0.01585244946181774,-9.391828536987305,0.44356951117515564
1781799445520518400,46.676518310546875,0.719641387462616,-10.132706642150879,1.7748762369155884
1781799445569038800,46.72503881835937,1.683051586151123,-9.077771186828613,1.8170497417449951
1781799445617558800,46.773558837890626,2.1664018630981445,-8.647661209106445,0.8557332158088684
1781799445666079200,46.82207934570312,1.1443674564361572,-12.879965782165527,0.3604189157485962
1781799445714599400,46.870599365234376,-0.7082754969596863,-9.496515274047852,2.620738983154297
1781799445763119600,46.91911962890625,-2.0811574459075928,-6.298507213592529,1.6758731603622437
1781799445811639800,46.96763989257813,-4.015156269073486,-14.34736442565918,-0.9134600162506104
1781799445860160000,47.01615991210937,-5.804389476776123,-15.541382789611816,-1.6399807929992676
1781799445908680200,47.06468017578125,-2.0141584873199463,-10.50389289855957,4.755435943603516
1781799445957200600,47.11320068359375,-0.646660327911377,-8.003393173217773,3.754936933517456
1781799446005720600,47.16172045898438,-0.41934216022491455,-7.191329479217529,0.04486542567610741
1781799446054241000,47.210240966796874,0.7974081635475159,-5.893522262573242,0.5632106065750122
1781799446102761200,47.25876123046875,1.6878372430801392,-5.796014785766602,1.2544373273849487
1781799446151281400,47.307281494140625,3.077169895172119,-6.7447686195373535,3.208775281906128
1781799446199801600,47.35580151367188,1.911865234375,-11.677572250366211,5.547460079193115
1781799446248321500,47.404321533203124,-0.09511470049619675,-15.225530624389648,7.10847806930542
1781799446296842000,47.45284204101562,-1.4578272104263306,-11.612966537475586,0.6215356588363647
1781799446345362200,47.501362060546874,-0.18574285507202148,-11.569297790527344,-4.566103935241699
1781799446393882400,47.54988232421875,-1.9357935190200806,-13.671690940856934,2.2636101245880127
1781799446442402600,47.598402587890625,-0.6849454641342163,-10.910673141479492,-1.4279168844223022
1781799446490923000,47.64692309570312,1.3908281326293945,-7.407580852508545,-2.5465614795684814
1781799446539443000,47.69544287109375,0.23748764395713806,-7.762914657592773,-0.1585244983434677
1781799446587963400,47.74396337890625,0.39182472229003906,-9.161520004272461,0.5727819204330444
1781799446636483300,47.7924833984375,0.7360920906066895,-10.10877799987793,2.4900310039520264
1781799446685003800,47.84100366210937,1.425225019454956,-9.510871887207031,2.953341245651245
1781799446733524000,47.88952392578125,2.1520447731018066,-8.105985641479492,0.6349952816963196
1781799446782044200,47.93804418945312,2.070389747619629,-10.668100357055664,-0.8895317912101746
1781799446830564400,47.986564453125,-0.1860419660806656,-11.488839149475098,1.306481122970581
1781799446879084300,48.03508422851562,-1.9701902866363525,-7.34177827835083,3.5204403400421143
1781799446927604700,48.08360473632813,-2.8411777019500732,-12.103495597839355,0.9577272534370422
1781799446976125000,48.132125,-4.992923736572266,-15.947265625,-0.32123643159866333
1781799447024645000,48.18064501953125,-2.837887763977051,-10.97767162322998,4.922036170959473
1781799447073165300,48.22916528320312,-0.25363919138908386,-8.503493309020996,3.2925238609313965
1781799447121685500,48.277685546875,-0.359820693731308,-7.2421770095825195,0.9852447509765625
1781799447170205700,48.326205810546874,0.2967100143432617,-6.712764739990234,1.4213366508483887
1781799447218726100,48.37472607421875,1.475474238395691,-6.2291154861450195,1.220937728881836
1781799447267246000,48.42324609375,2.4415764808654785,-5.9647088050842285,2.5683960914611816
1781799447315766500,48.4717666015625,2.789433002471924,-9.257232666015625,4.8176493644714355
1781799447364286500,48.52028637695312,1.1428718566894531,-16.49671745300293,5.247459888458252
1781799447412807000,48.56880688476563,-0.028115665540099144,-11.801401138305664,3.957728624343872
1781799447461327000,48.6173271484375,-1.6974085569381714,-11.291729927062988,-1.4315061569213867
1781799447509847000,48.66584692382813,-1.6630117893218994,-11.809178352355957,-3.1519455909729004
1781799447558367500,48.714367431640625,-1.067797064781189,-12.04068374633789,1.2185449600219727
1781799447606887400,48.76288745117188,0.0568295381963253,-8.658129692077637,-1.7315062284469604
1781799447655407900,48.811407958984375,0.9541380405426025,-7.439883708953857,-0.2760719060897827
1781799447703928000,48.85992797851563,0.4298107624053955,-7.948059558868408,1.4946168661117554
1781799447752448300,48.9084482421875,0.07806584239006042,-9.92124080657959,2.2091734409332275
1781799447800968400,48.95696850585937,0.8344969153404236,-10.226923942565918,2.7224340438842773
1781799447849488600,49.005488525390625,2.3910279273986816,-7.382455825805664,2.630310297012329
1781799447898008800,49.0540087890625,2.1242282390594482,-9.0152587890625,-0.9302098155021667
1781799447946529300,49.102529296875,0.3756731450557709,-14.139188766479492,0.641276478767395
1781799447995049200,49.15104931640625,-0.6326025128364563,-7.149754047393799,3.5814573764801025
1781799448043569700,49.199569580078126,-1.7333009243011475,-9.411569595336914,0.7950153350830078
1781799448092089600,49.24808959960937,-4.578367233276367,-18.316160202026367,-0.7872386574745178
1781799448140610000,49.29661010742188,-4.23230504989624,-11.943474769592285,5.157131195068359
1781799448189130000,49.3451298828125,0.3966103494167328,-7.956733703613281,3.1830523014068604
1781799448237650200,49.393650146484376,-0.08225327730178833,-7.426723480224609,0.007178467698395252
1781799448286170600,49.44217065429687,0.09661021083593369,-6.142375946044922,0.8201399445533752
1781799448334690600,49.49069067382813,1.394118309020996,-6.178267955780029,1.6860426664352417
1781799448383211000,49.5392109375,3.2853455543518066,-6.222834587097168,3.476173162460327
1781799448431731000,49.58773095703125,3.463012456893921,-10.080962181091309,5.827420234680176
1781799448480251400,49.63625146484375,-0.48006004095077515,-17.611772537231445,6.768697261810303
1781799448528771600,49.684771484375,-0.9083753228187561,-12.580862998962402,0.9206385016441345
1781799448577291800,49.733291748046874,-1.80717933177948,-10.197611808776855,-3.6197423934936523
1781799448625812000,49.78181201171875,-1.4069796800613403,-13.207483291625977,-0.28175488114356995
1781799448674332200,49.830332275390624,-0.02871387079358101,-9.16122055053711,-0.15643078088760376
1781799448722852400,49.87885229492188,1.4036896228790283,-7.064509868621826,-1.599302887916565
1781799448771372800,49.927372802734375,0.034995030611753464,-7.882555961608887,0.0568295381963253
1781799448819892700,49.97589282226563,0.742672324180603,-8.93240737915039,2.2244277000427246
1781799448868413000,50.024412841796874,0.08045866340398788,-10.12463092803955,3.3460633754730225
1781799448916933000,50.07293310546875,1.236491084098816,-9.442078590393066,2.5531418323516846
1781799448965453300,50.121453369140625,2.4269204139709473,-8.952147483825684,1.9184455871582031
1781799449013973500,50.16997338867188,0.18843477964401245,-12.195618629455566,-0.7689933776855469
1781799449062493700,50.21849365234375,0.8189435601234436,-8.280661582946777,1.9040886163711548
1781799449111014100,50.26701416015625,-0.9029914736747742,-8.648558616638184,3.8673996925354004
1781799449159534000,50.3155341796875,-4.488935470581055,-17.176279067993164,-0.3963112533092499
1781799449208054500,50.36405444335937,-5.053641319274902,-14.255539894104004,0.3167499005794525
1781799449256574500,50.412574462890625,-0.7465606927871704,-8.668298721313477,3.939483404159546
1781799449305095000,50.46109497070312,-0.9963115453720093,-6.6744794845581055,1.1509476900100708
1781799449353614800,50.50961474609375,0.5748756527900696,-4.609473705291748,-0.4004986882209778
1781799449402135300,50.55813525390625,0.9924231767654419,-5.357530117034912,1.028016448020935
1781799449450655500,50.606655517578126,2.7340989112854004,-7.013961315155029,3.956233024597168
1781799449499175400,50.65517553710937,2.8002007007598877,-10.979765892028809,7.731209754943848
1781799449547695900,50.70369580078125,1.1327024698257446,-15.64666748046875,7.086045265197754
1781799449596215800,50.7522158203125,-1.5200406312942505,-10.777871131896973,2.51425838470459
1781799449644736300,50.800736328125,-0.8264211416244507,-13.762020111083984,-6.306583404541016
1781799449693256200,50.84925610351563,-1.9423737525939941,-11.926725387573242,1.3758729696273804
1781799449741776600,50.897776611328126,-0.6873382925987244,-10.50209903717041,0.7184450030326843
1781799449790296800,50.946296875,0.9427721500396729,-7.197012424468994,-1.3743774890899658
1781799449838817000,50.99481713867188,0.8748757839202881,-6.496513366699219,1.0432707071304321
1781799449887337200,51.04333715820312,0.32602208852767944,-8.295317649841309,1.3836497068405151
1781799449935857400,51.091857421875,0.008973085321485996,-11.033305168151855,2.7248268127441406
1781799449984377600,51.14037768554687,1.7404793500900269,-8.803194046020508,2.9512476921081543
1781799450032897800,51.188897705078126,2.6240291595458984,-8.457730293273926,0.6622136831283569
1781799450081418000,51.23741796875,0.7378866672515869,-13.73061466217041,-2.0252251625061035
1781799450129938200,51.28593823242188,-0.9385846853256226,-7.069893836975098,3.872185230255127
1781799450178458400,51.33445825195312,-2.5022943019866943,-11.411371231079102,3.0442686080932617
1781799450226978600,51.382978515625,-5.885446548461914,-18.08794403076172,-1.261914849281311
1781799450275498800,51.431498779296874,-3.5590245723724365,-11.045867919921875,3.492623805999756
1781799450324019000,51.48001904296875,-0.3071786165237427,-8.042875289916992,2.98295259475708
1781799450372539100,51.5285390625,-1.1222338676452637,-7.156035423278809,0.28564319014549255
1781799450421059300,51.57705932617188,0.12053844332695007,-5.737988471984863,-0.06610172241926193
1781799450469579500,51.62557958984375,1.5329020023345947,-5.6461639404296875,1.5547364950180054
1781799450518099700,51.674099609375,3.211168050765991,-6.204588890075684,4.535894393920898
1781799450566620200,51.7226201171875,2.5163521766662598,-11.519646644592285,6.788437843322754
1781799450615140000,51.77114013671875,0.34606197476387024,-15.523736000061035,7.778468132019043
1781799450663660500,51.81966064453125,-0.9924231767654419,-10.073782920837402,1.7371892929077148
1781799450712180500,51.86818041992188,-1.7976080179214478,-14.118551254272461,-4.503292083740234
1781799450760701000,51.916700927734375,-1.347757339477539,-10.462916374206543,1.0432707071304321
1781799450809220900,51.96522094726563,-0.5431707501411438,-9.41037368774414,-1.2553346157073975
1781799450857741000,52.013740966796874,0.7292127013206482,-8.17537784576416,-1.5284154415130615
1781799450906261200,52.06226123046875,1.261914849281311,-7.952845096588135,1.571486234664917
1781799450954781400,52.110781494140625,0.31435707211494446,-9.11994457244873,2.4424736499786377
1781799451003301600,52.15930151367188,-0.3403790295124054,-10.621739387512207,3.4265220165252686
1781799451051821800,52.20782177734375,0.8814560174942017,-9.136395454406738,2.462214469909668
1781799451100342300,52.25634228515625,2.2468605041503906,-8.222636222839355,0.005383851006627083
1781799451148862200,52.3048623046875,1.6447664499282837,-12.70917797088623,-0.7722834944725037
1781799451197382700,52.35338256835937,0.12502498924732208,-8.0081787109375,2.734398126602173
1781799451245902600,52.401902587890625,-0.781555712223053,-7.384250640869141,3.862015724182129
1781799451294423000,52.45042309570312,-4.864010334014893,-18.265012741088867,-0.42771705985069275
1781799451342943000,52.49894287109375,-5.458028316497803,-13.441082954406738,1.6184453964233398
1781799451391463400,52.54746337890625,-0.6661019921302795,-8.806185722351074,4.5215373039245605
1781799451439983400,52.5959833984375,-0.4298107624053955,-6.742974281311035,1.4485549926757812
1781799451488503600,52.64450366210937,0.25782662630081177,-6.011667728424072,-0.22911277413368225
1781799451537023700,52.693023681640625,1.561017632484436,-5.682056427001953,1.036690354347229
1781799451585544000,52.7415439453125,3.1695926189422607,-6.1695942878723145,4.599902629852295
1781799451634064400,52.790064453125,2.614457845687866,-10.020243644714355,7.882555961608887
1781799451682584300,52.83858422851562,0.7289136052131653,-16.380664825439453,7.477570533752441
1781799451731104800,52.887104736328126,-1.212263822555542,-9.79083251953125,2.71435809135437
1781799451779624700,52.93562475585937,0.02632104977965355,-12.959527015686035,-3.896113395690918
1781799451828145200,52.98414526367188,-3.4591243267059326,-12.54018497467041,1.8607187271118164
1781799451876665000,53.0326650390625,0.22881366312503815,-9.628120422363281,-0.2584248483181
1781799451925185500,53.081185546875,0.14745768904685974,-8.801400184631348,-3.0245277881622314
1781799451973705500,53.12970556640625,1.1455638408660889,-7.3037919998168945,0.3245265781879425
1781799452022226000,53.17822583007813,1.1730812788009644,-8.3359956741333,2.3258235454559326
1781799452070745900,53.22674584960937,-0.32303106784820557,-10.443175315856934,3.4265220165252686
1781799452119266300,53.27526635742188,0.906281590461731,-9.001200675964355,3.805485248565674
1781799452167786200,53.3237861328125,2.20528507232666,-7.821239948272705,1.7653049230575562
1781799452216306400,53.372306396484376,1.800299882888794,-12.859028816223145,-1.3657035827636719
1781799452264826600,53.42082666015625,0.13310076296329498,-7.729714393615723,2.6368906497955322
1781799452313346800,53.46934692382813,-1.5394822359085083,-10.095916748046875,4.614259243011475
1781799452361867300,53.5178671875,-5.386841773986816,-18.126230239868164,-0.5030909776687622
1781799452410387200,53.56638720703125,-4.0319061279296875,-12.700504302978516,2.7110681533813477
1781799452458907600,53.61490771484375,-0.6729813814163208,-8.345268249511719,4.280759811401367
1781799452507427600,53.663427490234376,-0.34636107087135315,-6.861119747161865,0.7878368496894836
1781799452555948000,53.711947998046874,0.8608179688453674,-5.160421371459961,-0.247358039021492
1781799452604468000,53.76046801757813,1.781157374382019,-5.496313571929932,1.1150553226470947
1781799452652988400,53.808988525390625,2.8277182579040527,-6.118447303771973,4.743471622467041
1781799452701508400,53.85750830078125,2.3563320636749268,-11.652447700500488,7.275975227355957
1781799452750028800,53.90602880859375,0.498604416847229,-16.271791458129883,7.70668363571167
1781799452798548700,53.954548828125,-1.1955139636993408,-10.864910125732422,3.119642496109009
1781799452847069000,54.00306884765625,-0.26560330390930176,-10.794022560119629,-4.523332118988037
1781799452895589000,54.05158911132813,-1.6663018465042114,-12.408281326293945,0.9667003750801086
1781799452944109300,54.100109375,-0.9577272534370422,-10.30199909210205,1.5224334001541138
1781799452992629500,54.14862939453125,1.4036896228790283,-7.388139247894287,-1.0666006803512573
1781799453041149700,54.197149658203124,0.7483552694320679,-7.1371917724609375,0.8982058167457581
1781799453089670000,54.245669921875,0.5018945336341858,-8.80798053741455,2.311466693878174
1781799453138190000,54.294190185546874,-0.3197409212589264,-10.462018966674805,2.667099952697754
1781799453186710500,54.34271044921875,1.5906288623809814,-8.872586250305176,2.5148565769195557
1781799453235230500,54.39123046875,2.5420749187469482,-8.408976554870605,0.8225327730178833
1781799453283751000,54.4397509765625,1.8131613731384277,-11.377273559570312,-0.38225340843200684
1781799453332270800,54.488270751953124,-0.5225326418876648,-7.688138961791992,4.255934238433838
1781799453380791300,54.53679125976562,-2.7499513626098633,-11.48255729675293,3.3418760299682617
1781799453429311200,54.585311279296874,-5.4164533615112305,-18.52583122253418,-1.2538390159606934
1781799453477831400,54.63383154296875,-3.5048868656158447,-11.547163963317871,4.538287162780762
1781799453526351600,54.6823515625,-0.2602194547653198,-7.767999649047852,3.714258909225464
1781799453574871800,54.73087182617188,0.04486542567610741,-6.687041759490967,0.4785645306110382
1781799453623392000,54.77939208984375,0.7417750358581543,-5.184648513793945,0.6011967062950134
1781799453671912200,54.827912109375,2.078465461730957,-5.242076396942139,2.0333011150360107
1781799453720432400,54.876432373046875,3.4713873863220215,-6.285048007965088,5.85703182220459
1781799453768952600,54.92495263671875,1.648654818534851,-15.060425758361816,7.424928665161133
1781799453817472800,54.97347265625,-1.4518451690673828,-14.623137474060059,6.0125651359558105
1781799453865993000,55.02199291992188,-0.6340979933738708,-10.849058151245117,-2.784348249435425
1781799453914513200,55.07051318359375,-1.2547364234924316,-12.356535911560059,-1.2197413444519043
1781799453963033300,55.11903344726562,-1.5448660850524902,-11.459227561950684,2.0506489276885986
1781799454011553500,55.167553466796875,0.9317052960395813,-8.681758880615234,-3.0541388988494873
1781799454060073700,55.21607373046875,0.7857431173324585,-7.5843505859375,-0.03918246924877167
1781799454108593700,55.26459375,1.4386845827102661,-9.100801467895508,2.388934373855591
1781799454157114000,55.31311401367188,0.1666002720594406,-9.675677299499512,3.6355948448181152
1781799454205634000,55.361634033203124,0.641276478767395,-8.059924125671387,4.086043834686279
1781799454254154500,55.41015454101562,2.015354871749878,-6.732804775238037,3.1106693744659424
1781799454302674400,55.45867431640625,2.41375994682312,-12.699606895446777,-0.024825535714626312
1781799454351195000,55.50719482421875,0.5901299118995667,-9.751350402832031,2.5010979175567627
1781799454399714800,55.55571484375,-0.30538398027420044,-7.012465953826904,3.453740358352661
1781799454448235300,55.6042353515625,-3.485445261001587,-17.931215286254883,-0.8925228714942932
1781799454496755200,55.652755126953124,-6.605985164642334,-15.497714042663574,2.0955145359039307
1781799454545275600,55.70127563476562,-0.8503493666648865,-9.450154304504395,7.026224613189697
1781799454593795600,55.749795654296875,0.5733801126480103,-6.4304118156433105,2.2157537937164307
1781799454642316000,55.79831591796875,0.916451096534729,-5.282454967498779,-0.29431718587875366
1781799454690836000,55.8468359375,1.1874382495880127,-5.292026519775391,0.31016963720321655
1781799454739356200,55.89535620117187,2.9455647468566895,-4.773082733154297,2.210070848464966
1781799454787876400,55.94387646484375,2.9925239086151123,-9.657432556152344,6.875476837158203
1781799454836396500,55.992396484375,-0.16749759018421173,-17.560028076171875,8.094321250915527
1781799454884917000,56.0409169921875,-0.5886343717575073,-11.589037895202637,5.052145957946777
1781799454933437000,56.08943701171875,-0.40348970890045166,-11.180164337158203,-2.0955145359039307
1781799454981957400,56.137957275390626,-1.3399807214736938,-11.443973541259766,-2.0482561588287354
1781799455030477300,56.18647729492187,-1.8729819059371948,-12.56710433959961,2.347957134246826
1781799455078997800,56.23499780273438,1.5640087127685547,-8.233702659606934,-1.578664779663086
1781799455127517700,56.283517578125,1.1757732629776,-7.4001030921936035,-0.03768695518374443
1781799455176038100,56.3320380859375,1.4482558965682983,-7.846663475036621,1.6926229000091553
1781799455224558000,56.38055810546875,0.15314064919948578,-9.355937004089355,4.178765773773193
1781799455273078500,56.42907861328125,-0.022432712838053703,-9.568000793457031,4.314857482910156
1781799455321598500,56.47759838867187,2.1568305492401123,-8.15234661102295,2.974876642227173
1781799455370118400,56.526118408203125,2.0620148181915283,-9.934999465942383,-0.02392822690308094
1781799455418638800,56.57463891601562,0.48006004095077515,-11.230114936828613,1.2457633018493652
1781799455467158800,56.62315869140625,-0.30957141518592834,-7.220641613006592,4.344468593597412
1781799455564199200,56.72019921875,-5.633601665496826,-15.467803955078125,1.1524431705474854
1781799455612719600,56.7687197265625,-0.9466604590415955,-9.215357780456543,6.7486572265625
1781799455661239600,56.817239501953125,-0.4411766827106476,-6.15762996673584,2.313859462738037
1781799455709760000,56.86576000976562,0.7292127013206482,-4.4258246421813965,-0.6227321028709412
1781799455758280000,56.914280029296876,0.9756734371185303,-4.67078971862793,-0.050847481936216354
1781799455806800400,56.96280029296875,2.8196423053741455,-5.184648513793945,2.9449665546417236
1781799455855320600,57.01132055664063,2.6473591327667236,-11.496017456054688,7.28046178817749
1781799455903840800,57.0598408203125,0.5608177781105042,-16.103097915649414,7.546065330505371
1781799455952361000,57.10836083984375,-1.6094722747802734,-12.022438049316406,2.644667148590088
1781799456000881000,57.156880859375,0.062213387340307236,-9.241978645324707,-2.870789051055908
1781799456049401300,57.2054013671875,-2.541177749633789,-16.63071632385254,2.185544490814209
1781799456097921300,57.25392138671875,0.17318053543567657,-10.287641525268555,0.07597211748361588
1781799456146441700,57.30244165039063,1.4811571836471558,-7.8526458740234375,-1.6812570095062256
1781799456194961700,57.35096166992187,0.6349952816963196,-7.386045455932617,-0.0032901312224566936
1781799456243482000,57.39948217773438,1.1069796085357666,-7.774280548095703,2.4837498664855957
1781799456292002000,57.448001953125,-0.14506487548351288,-9.407979965209961,4.408177375793457
1781799456340522200,57.496522216796876,0.716949462890625,-8.891729354858398,3.9535412788391113
1781799456389042400,57.54504248046875,3.4974093437194824,-6.8156561851501465,3.454338550567627
1781799456437562600,57.59356274414063,1.693520188331604,-13.608880043029785,0.1860419660806656
1781799456486082800,57.64208276367187,0.40378883481025696,-7.804490089416504,2.2127628326416016
1781799456534603000,57.69060302734375,-1.0265209674835205,-7.272386074066162,3.699902057647705
1781799456583123200,57.73912329101562,-5.304289817810059,-21.106491088867188,-0.7953144311904907
1781799456631643100,57.78764306640625,-4.94775915145874,-13.755439758300781,4.117449760437012
1781799456680163600,57.83616357421875,0.19800607860088348,-8.098807334899902,5.645565986633301
1781799456728683500,57.88468359375,-0.09481559693813324,-6.416054725646973,0.4531407952308655
1781799456777204000,57.93320385742187,0.8368897438049316,-4.4512481689453125,-0.7782655358314514
1781799456825724000,57.981723876953126,2.1134605407714844,-3.689134359359741,0.9403793215751648
1781799456874244400,58.03024438476562,3.4552359580993652,-5.270790100097656,5.459823131561279
1781799456922764300,58.07876440429688,0.8437690734863281,-17.491533279418945,9.479764938354492
1781799456971284700,58.12728466796875,0.03439682722091675,-13.667802810668945,6.553941249847412
1781799457019804700,58.1758046875,-0.9672985672950745,-9.265008926391602,-1.0423734188079834
1781799457068325000,58.2243251953125,-1.5601203441619873,-13.445868492126465,-3.743271827697754
1781799457116845000,58.272844970703126,-0.7992027401924133,-11.865110397338867,4.063611030578613
1781799457165365500,58.321365478515624,-0.28893333673477173,-9.751649856567383,0.33798620104789734
1781799457213885400,58.36988549804688,0.8679963946342468,-7.167401313781738,0.004187439568340778
1781799457262406000,58.418406005859374,1.2370892763137817,-6.334399700164795,1.0510473251342773
1781799457310925800,58.46692578125,0.5054838061332703,-8.95693302154541,2.20947265625
1781799457359446000,58.51544604492187,0.10378868132829666,-9.993324279785156,4.4012980461120605
1781799457407966200,58.56396630859375,1.1446665525436401,-7.899305820465088,3.3020951747894287
1781799457456486400,58.612486328125,2.5872395038604736,-10.780263900756836,-0.04366901144385338
1781799457505006600,58.66100659179688,1.9160526990890503,-11.3811616897583,0.9571290612220764
1781799457553526800,58.70952685546875,-1.1012966632843018,-5.886343479156494,4.05493688583374
1781799457602047000,58.758046875,-2.7798616886138916,-14.464015007019043,1.9028922319412231
1781799457650567200,58.80656713867187,-6.330810546875,-18.548263549804688,0.31824541091918945
1781799457699087400,58.85508740234375,-2.017747640609741,-11.120344161987305,6.940083026885986
1781799457747607600,58.903607666015624,0.10827522724866867,-6.580860614776611,3.139981508255005
1781799457796127700,58.95212768554688,0.9777671694755554,-4.730011940002441,-0.8428717851638794
1781799457844648000,59.00064794921875,1.1778669357299805,-5.041677474975586,-0.06281159073114395
1781799457893168000,59.04916821289063,2.390429735183716,-5.623133182525635,1.80717933177948
1781799457941688300,59.09768823242187,2.734398126602173,-8.374878883361816,5.607879161834717
1781799457990208300,59.14620825195313,1.0112667083740234,-16.7889404296875,8.319246292114258
1781799458038728700,59.194728759765624,-1.2337992191314697,-12.480962753295898,5.7134623527526855
1781799458087248600,59.24324853515625,-0.3128615617752075,-11.41226863861084,-3.3649067878723145
1781799458135769000,59.29176904296875,-2.3467607498168945,-13.619946479797363,0.7259225845336914
1781799458184289000,59.3402890625,-1.165902853012085,-10.984850883483887,1.114457130432129
1781799458232809500,59.3888095703125,1.9286150932312012,-7.6890363693237305,-1.5951154232025146
1781799458281329400,59.43732934570313,1.160519003868103,-6.806982040405273,0.6499504446983337
1781799458329849600,59.485849609375,0.7914260625839233,-8.18674373626709,2.4885356426239014
1781799458378369800,59.53436987304688,-0.30538398027420044,-10.136894226074219,5.011467933654785
1781799458426890000,59.58288989257812,0.6637091636657715,-8.594121932983398,3.7561333179473877
1781799458475410200,59.63141015625,3.697509288787842,-6.5868425369262695,2.274078845977783
1781799458523930000,59.67993017578125,1.4036896228790283,-14.079368591308594,-0.5422734022140503
1781799458572450600,59.72845043945313,-0.4576273262500763,-9.000003814697266,2.865704298019409
1781799458620970500,59.77697045898437,-0.4049852192401886,-7.136892795562744,4.959722995758057
1781799458669491000,59.82549096679688,-4.598406791687012,-18.646669387817383,0.29341986775398254
1781799458718011000,59.87401098632812,-6.02901554107666,-14.101502418518066,1.1548360586166382
1781799458766531300,59.92253125,-0.02063809521496296,-8.080561637878418,5.226522922515869
1781799458815051300,59.97105126953125,-0.589531660079956,-6.055635929107666,2.1720848083496094
1781799458863571700,60.01957177734375,0.8925228714942932,-5.128417015075684,-0.38344982266426086
1781799458912091600,60.06809155273437,1.66929292678833,-4.987539768218994,0.5138586759567261
1781799458960611600,60.116611572265626,2.9425735473632812,-5.188536643981934,3.204587697982788
1781799459009132300,60.16513232421875,1.984248161315918,-13.33430290222168,8.054839134216309
1781799459057652200,60.21365234375,0.017647067084908485,-15.760026931762695,8.732905387878418
1781799459106172400,60.26217236328125,-0.6690930128097534,-9.55513858795166,2.3416759967803955
1781799459154692600,60.31069262695313,-0.5078766345977783,-11.706585884094238,-4.336392879486084
1781799459203212800,60.359212890625,-2.570788860321045,-14.854044914245605,3.728914976119995
1781799459251733000,60.40773291015625,0.43220359086990356,-9.370293617248535,-0.33918261528015137
1781799459300253200,60.456253173828124,1.1419745683670044,-8.196314811706543,-0.48006004095077515
1781799459348773400,60.5047734375,0.763310432434082,-7.5978102684021,1.8993029594421387
1781799459397293600,60.55329345703125,0.6741777658462524,-8.333602905273438,2.587538480758667
1781799459445813800,60.60181372070313,-1.0686944723129272,-9.525827407836914,3.259622573852539
1781799459494334000,60.650333984375,2.242672920227051,-8.677870750427246,2.802593469619751
1781799459542854100,60.69885424804688,3.4169507026672363,-6.642475605010986,1.5260226726531982
1781799459591374300,60.747374267578124,1.5801602602005005,-13.897514343261719,0.9418748021125793
1781799459639894500,60.79589453125,-0.7881359457969666,-8.715557098388672,4.040879249572754
1781799459688414500,60.84441455078125,-1.5305092334747314,-9.1112699508667,4.122833251953125
1781799459736934700,60.8929345703125,-5.557629585266113,-19.529621124267578,-0.3723830282688141
1781799459785454800,60.94145483398437,-4.683651447296143,-11.838191032409668,3.145963668823242
1781799459833975000,60.98997509765625,-0.006580262444913387,-7.71386194229126,4.153940200805664
1781799459882495200,61.0384951171875,-0.22791635990142822,-5.693422317504883,1.2762718200683594
1781799459931015400,61.08701538085938,0.4618147611618042,-4.72163724899292,-0.18484555184841156
1781799459979535600,61.13553564453125,1.7581263780593872,-4.925027370452881,0.6236293911933899
1781799460076576000,61.23257592773437,0.7202396392822266,-15.706487655639648,9.913464546203613
1781799460125096200,61.28109619140625,-0.7734799385070801,-15.706487655639648,6.634399890899658
1781799460173616400,61.329616455078124,-0.25363919138908386,-10.730912208557129,-0.7887341380119324
1781799460222136600,61.37813647460938,-1.0360921621322632,-11.33240795135498,-2.905484914779663
1781799460270656800,61.42665673828125,-1.827518343925476,-13.425529479980469,3.680161237716675
1781799460319177000,61.47517700195313,0.9026923179626465,-7.976773262023926,-0.38763725757598877
1781799460367697200,61.523697265625,0.6756733059883118,-7.03788948059082,-0.37417763471603394
1781799460416217300,61.57221728515625,0.6777670383453369,-7.253542900085449,1.5092729330062866
1781799460464737500,61.620737548828124,-0.18843477964401245,-9.197113037109375,2.723032236099243
1781799460513257700,61.6692578125,-0.09481559693813324,-9.421440124511719,2.9638099670410156
1781799460561777700,61.71777758789062,2.934497833251953,-8.038089752197266,2.885145902633667
1781799460610298000,61.76629809570313,2.9943184852600098,-9.74506950378418,1.7309080362319946
1781799460658818000,61.814818115234374,0.42831525206565857,-12.697214126586914,0.8057830333709717
1781799460707338500,61.86333837890625,-1.3800604343414307,-6.963712215423584,4.3779683113098145
1781799460755858400,61.9118583984375,-3.082852840423584,-16.631912231445312,3.0969107151031494
