time,seconds_elapsed,z,y,x
1781799398970081800,0.126081787109375,0,0,0
1781799399018602200,0.174602294921875,0.1758441925048828,0.16344523429870605,-0.18595755100250244
1781799399067122700,0.223122802734375,-0.1331338882446289,0.11978960037231445,-0.21894973516464233
1781799399115643100,0.27164306640625,-0.3592205047607422,0.2199862003326416,-0.11791926622390747
1781799399164163600,0.32016357421875,-0.2604084014892578,0.30478763580322266,0.07081210613250732
1781799399212684000,0.36868408203125,-0.14159393310546875,0.5767695903778076,0.22494179010391235
1781799399261204500,0.41720458984375,0.4591350555419922,-0.06428313255310059,0.12727349996566772
1781799399309725000,0.465724853515625,-0.028974533081054688,-0.4189009666442871,0.08889073133468628
1781799399358245400,0.514245361328125,-0.0652761459350586,-0.1453855037689209,-0.26186442375183105
1781799399406765600,0.562765625,-0.3006620407104492,0.3528900146484375,-0.1817171573638916
1781799399455286000,0.6112861328125,0.43247413635253906,0.028733491897583008,0.04068237543106079
1781799399503806500,0.659806396484375,0.6005134582519531,-0.4370894432067871,0.005415201187133789
1781799399552327000,0.708326904296875,0.8188962936401367,-0.38649487495422363,0.32084447145462036
1781799399600847400,0.756847412109375,-0.3858146667480469,0.017266273498535156,0.283463716506958
1781799399649367800,0.805367919921875,-0.3064088821411133,0.1273641586303711,0.31488144397735596
1781799399697888300,0.85388818359375,0.0711984634399414,-0.0796804428100586,0.3162136971950531
1781799399746408700,0.90240869140625,0.36015987396240234,-0.25882530212402344,0.15550845861434937
1781799399794929200,0.95092919921875,0.31353092193603516,-0.44803810119628906,-0.06509697437286377
1781799399843449600,0.99944970703125,0.27179431915283203,-0.2576940059661865,0.06010890007019043
1781799399891970000,1.047969970703125,-0.014429092407226562,0.015719175338745117,0.4325459599494934
1781799399940490200,1.096490234375,-0.324462890625,0.14421844482421875,0.5731955766677856
1781799399989010700,1.1450107421875,0.14342212677001953,0.08054041862487793,0.30290400981903076
1781799400037531100,1.19353125,0.24997711181640625,-0.002251863479614258,0.07453024387359619
1781799400086051600,1.242051513671875,0.19072437286376953,0.10791206359863281,0.011411309242248535
1781799400134572000,1.290572021484375,-0.037985801696777344,-0.005150794982910156,0.008459031581878662
1781799400183092200,1.33909228515625,-0.0035495758056640625,-0.033040523529052734,0.051394641399383545
1781799400231612700,1.38761279296875,0.2154541015625,-0.03403973579406738,-0.06564116477966309
1781799400280133000,1.436133056640625,-0.1481609344482422,-0.08438754081726074,-0.03809469938278198
1781799400328653600,1.484653564453125,-0.4222879409790039,-0.39519453048706055,-0.12130790948867798
1781799400377174000,1.533174072265625,-0.9191656112670898,-0.18909931182861328,0.1952209174633026
1781799400425694500,1.581694580078125,-0.3462791442871094,0.4647407531738281,0.09967565536499023
1781799400474215000,1.63021484375,0.0049533843994140625,0.1978740692138672,0.09032148122787476
1781799400522735400,1.6787353515625,0.30208301544189453,0.0997307300567627,-0.029090285301208496
1781799400571255600,1.727255615234375,0.3425006866455078,-0.02964329719543457,-0.07438641786575317
1781799400619776000,1.77577587890625,0.02716064453125,0.0850532054901123,0.02737027406692505
1781799400668296400,1.82429638671875,-0.052603721618652344,0.6200988292694092,0.04430818557739258
1781799400716817000,1.87281689453125,0.032813072204589844,0.29960036277770996,-0.15409427881240845
1781799400765337300,1.92133740234375,0.015642166137695312,-0.3067657947540283,0.15238022804260254
1781799400813857500,1.969857421875,0.4366464614868164,0.0986943244934082,-0.08817017078399658
1781799400862378000,2.0183779296875,0.19773101806640625,0.4221804141998291,-0.830733060836792
1781799400910898400,2.0668984375,-0.038315773010253906,0.3419375419616699,-1.588160753250122
1781799400959419000,2.1154189453125,0.5252981185913086,-0.2245497703552246,-2.3755228519439697
1781799401007939300,2.163939208984375,0.21177005767822266,-0.49550342559814453,-1.3704209327697754
1781799401056459500,2.21245947265625,2.1816840171813965,-0.00814199447631836,-0.8659772872924805
1781799401104980000,2.26097998046875,1.2419872283935547,0.2793271541595459,-0.45741796493530273
1781799401153500400,2.30950048828125,0.6660861968994141,-0.3374342918395996,-0.8541259765625
1781799401202020600,2.3580205078125,-0.46033811569213867,0.5469791889190674,-0.2118692398071289
1781799401250541000,2.406541015625,0.6118953227996826,-0.5699548721313477,0.06336402893066406
1781799401299061500,2.4550615234375,0.6009348630905151,-0.28110170364379883,0.32694053649902344
1781799401347582000,2.50358203125,1.1498233079910278,-1.0589165687561035,-0.2972450256347656
1781799401396102100,2.55210205078125,0.21835196018218994,-0.04838848114013672,0.06720829010009766
1781799401444622600,2.60062255859375,-0.7729196548461914,0.22434043884277344,-0.09202957153320312
1781799401493143000,2.64914306640625,-0.10654020309448242,0.24530839920043945,-0.23515033721923828
1781799401590183700,2.74618359375,-1.3752055168151855,-0.41173744201660156,0.07495594024658203
1781799401687224600,2.843224609375,-2.459806442260742,-0.8081579208374023,-0.02056121826171875
1781799401791461000,2.947461181640625,-3.5983612537384033,0.596466064453125,0.43137073516845703
1781799401888502000,3.044501953125,-2.4891750812530518,1.1209447383880615,0.13385677337646484
1781799401937022500,3.0930224609375,-3.3448479175567627,0.7558565139770508,0.4858512878417969
1781799401985542700,3.141542724609375,-1.8493995666503906,-1.0061681270599365,0.6674318313598633
1781799402034063000,3.19006298828125,-1.216616153717041,-1.4323618412017822,-0.5442929267883301
1781799402082583600,3.23858349609375,0.7897529602050781,-2.026425361633301,-0.8987841606140137
1781799402131103700,3.287103759765625,0.5872621536254883,-0.6552497148513794,-0.6082477569580078
1781799402228144600,3.38414453125,0.9181051254272461,1.4891703128814697,-0.8528299331665039
1781799402276664800,3.432664794921875,1.2709569931030273,2.251713991165161,-0.4718608856201172
1781799402325185300,3.481185302734375,0.7147984504699707,0.6725970506668091,1.120370864868164
1781799402373705700,3.529705810546875,1.284520149230957,-0.0991671085357666,1.0118408203125
1781799402422226000,3.578225830078125,0.7180542945861816,1.698930263519287,-0.73089599609375
1781799402470746400,3.626746337890625,1.1563029289245605,1.5773154497146606,-2.1389126777648926
1781799402519266800,3.675266845703125,1.196706771850586,-0.8966370224952698,-2.5125646591186523
1781799402567787000,3.723787109375,-0.011653423309326172,-1.053096055984497,-3.49868106842041
1781799402664827600,3.82082763671875,-1.2386128902435303,-1.356981635093689,-2.6478867530822754
1781799402713929000,3.869928955078125,-0.6905899047851562,-1.3341546058654785,-0.9218635559082031
1781799402763419000,3.9194189453125,1.0457671880722046,-1.2870512008666992,1.3807373046875
1781799402812909300,3.968909423828125,1.6120283603668213,-0.6827588081359863,2.8798441886901855
1781799402862400000,4.01839990234375,1.1595046520233154,-0.1320629119873047,4.40308952331543
1781799402911890700,4.067890625,0.7354162335395813,0.5548253059387207,5.012750625610352
1781799402961381400,4.11738134765625,0.8432778716087341,0.5912313461303711,5.067844867706299
1781799403010871800,4.166871826171875,1.7062358856201172,0.5312108993530273,4.639030456542969
1781799403060362500,4.216362548828125,1.034285545349121,2.173635482788086,4.9209065437316895
1781799403109853200,4.265853271484375,0.5395458340644836,0.24161338806152344,4.029088973999023
1781799403159343900,4.31534375,-1.4291622638702393,-0.5728187561035156,0.33428525924682617
1781799403208254200,4.364254150390625,-1.0844073295593262,-0.19965124130249023,-2.0388364791870117
1781799403256776000,4.41277587890625,0.011993050575256348,0.1163792610168457,-2.2935538291931152
1781799403305296100,4.461296142578125,0.4220247268676758,0.26046276092529297,-0.7224483489990234
1781799403353816600,4.509816650390625,1.3278629779815674,0.972966194152832,-0.01145315170288086
1781799403402337000,4.5583369140625,1.8375324010849,0.25511741638183594,0.28837108612060547
1781799403450857500,4.606857421875,1.1521100997924805,-0.2849431037902832,0.6069478988647461
1781799403499377700,4.655377685546875,-1.122206687927246,-0.36263179779052734,-0.6501402854919434
1781799403547898000,4.703898193359375,-3.7939627170562744,0.4329376220703125,-0.7425975799560547
1781799403596418300,4.752418212890625,-0.2689096927642822,-0.45598649978637695,-1.1509265899658203
1781799403693459000,4.849458984375,1.1675469875335693,-0.6401300430297852,-0.4977421760559082
1781799403741979400,4.8979794921875,-0.5331919193267822,0.058342933654785156,0.08925485610961914
1781799403790499800,4.946499755859375,-1.0703129768371582,0.2540702819824219,1.132049560546875
1781799403839020300,4.995020263671875,-0.9947308301925659,0.10133695602416992,2.326916217803955
1781799403887540500,5.04354052734375,-0.9319357872009277,-0.8268132209777832,2.7541542053222656
1781799403936061000,5.09206103515625,-6.201639175415039,-3.0022711753845215,3.7946043014526367
1781799403984581000,5.1405810546875,-5.591529846191406,-0.8883028030395508,3.31174373626709
1781799404033101600,5.1891015625,-0.8387031555175781,-1.0507769584655762,2.042163848876953
1781799404081621800,5.237621826171875,0.7550508975982666,0.23745059967041016,-0.40512561798095703
1781799404130142200,5.28614208984375,2.404127597808838,0.054627418518066406,0.29807138442993164
1781799404178662700,5.33466259765625,3.494600772857666,-0.9256854057312012,-0.4029250144958496
1781799404227182800,5.383182861328125,-0.5327167510986328,-1.3367919921875,-0.4827384948730469
1781799404275703300,5.431703369140625,-1.183760404586792,-1.1524081230163574,1.032670497894287
1781799404324223500,5.480223388671875,-1.3971672058105469,-0.9297118186950684,2.565537452697754
1781799404372744000,5.528743896484375,0.5247106552124023,-1.4311447143554688,1.2767457962036133
1781799404421264100,5.57726416015625,1.7858586311340332,-2.4122776985168457,-0.14162635803222656
1781799404469784600,5.62578466796875,0.3978385925292969,-1.5683884620666504,-4.1228227615356445
1781799404518305000,5.674304931640625,-6.251526355743408,1.8519642353057861,-0.7551610469818115
1781799404566825500,5.722825439453125,-7.040862083435059,2.877340078353882,2.5688636302948
1781799404615345700,5.771345703125,3.074007034301758,-1.754582405090332,-0.25875425338745117
1781799404663866000,5.8198662109375,5.007514476776123,-1.2259254455566406,-5.971063137054443
1781799404712386300,5.86838623046875,3.2201504707336426,-2.431734085083008,-5.116939544677734
1781799404760906800,5.91690673828125,-1.8588836193084717,1.3117183446884155,-9.115038871765137
1781799404809427200,5.96542724609375,-2.325735092163086,1.5700058937072754,-2.9276247024536133
1781799404857947600,6.01394775390625,-0.3009495735168457,-0.049875497817993164,1.3091564178466797
1781799404906467800,6.0624677734375,-1.442152500152588,-0.5538554191589355,2.8586597442626953
1781799404954988300,6.11098828125,-0.8043241500854492,-0.9532856941223145,3.870539665222168
1781799405003508500,6.159508544921875,-1.1279582977294922,-0.2602057456970215,5.500844478607178
1781799405052029000,6.20802880859375,0.020627260208129883,0.49591875076293945,4.231281757354736
1781799405100549400,6.25654931640625,2.0678277015686035,-1.7145838737487793,2.366529941558838
1781799405149069600,6.305069580078125,0.9238510131835938,-0.8280272483825684,0.7206807136535645
1781799405246110200,6.402110107421875,-0.4325718879699707,-2.577727794647217,0.11590242385864258
1781799405294630700,6.450630615234375,1.6595964431762695,-0.8045148849487305,-0.10172700881958008
1781799405343732700,6.499732666015625,1.0960092544555664,1.3936328887939453,2.697394371032715
1781799405440192000,6.59619189453125,1.2038183212280273,0.08940887451171875,0.6966900825500488
1781799405488712200,6.644712158203125,-0.47347211837768555,-1.450905442237854,0.25774049758911133
1781799405537232600,6.693232666015625,-1.8593730926513672,-4.946446418762207,-4.344558238983154
1781799405585753000,6.741753173828125,-5.67144250869751,-3.583765745162964,-3.6176369190216064
1781799405634273300,6.790273193359375,-4.553218364715576,-1.8725943565368652,0.46476030349731445
1781799405682794000,6.8387939453125,-1.776583194732666,-0.9818445444107056,-0.668032169342041
1781799405731314200,6.887314208984375,-2.8998851776123047,1.1798369884490967,-1.2951359748840332
1781799405779834600,6.935834716796875,-3.104118585586548,2.1587932109832764,-2.801757574081421
1781799405828354800,6.984354736328125,-1.1964659690856934,2.873476028442383,-3.4856977462768555
1781799405876875500,7.03287548828125,2.3023228645324707,1.1341452598571777,-3.337214469909668
1781799405925395700,7.081395751953125,4.481365203857422,0.06874346733093262,-0.3246908187866211
1781799405973916400,7.12991650390625,5.198917388916016,-0.4180946350097656,3.460698127746582
1781799406022436600,7.1784365234375,4.336986541748047,-2.5814242362976074,4.675167083740234
1781799406070957000,7.22695703125,3.7179980278015137,-5.826119899749756,7.916058540344238
1781799406119477500,7.2754775390625,-5.466145992279053,-2.9291512966156006,4.443503379821777
1781799406167998000,7.323998046875,-5.345600605010986,1.6023414134979248,-1.2514276504516602
1781799406216518100,7.37251806640625,-1.2495131492614746,1.9017841815948486,-3.0579910278320312
1781799406265038800,7.421038818359375,2.4095804691314697,-1.191816806793213,-2.013820171356201
1781799406313559000,7.46955908203125,2.1099846363067627,-3.0449347496032715,2.339118003845215
1781799406362079700,7.518079833984375,-0.8969333171844482,-0.9742097854614258,0.24248743057250977
1781799406410600000,7.566599853515625,-1.3126673698425293,1.0182275772094727,1.25239896774292
1781799406459120400,7.615120361328125,-0.6738932132720947,1.242541790008545,1.708631992340088
1781799406507640800,7.663640869140625,2.8092598915100098,1.0809998512268066,1.2930588722229004
1781799406556161000,7.7121611328125,1.2950959205627441,1.2682480812072754,2.956784725189209
1781799406604681700,7.760681640625,-0.11645174026489258,1.4627275466918945,1.1034700870513916
1781799406653202000,7.809201904296875,-3.616014003753662,2.2253313064575195,-0.5049362182617188
1781799406701722600,7.85772265625,-3.421266794204712,3.6445741653442383,-0.655787467956543
1781799406750242800,7.906242919921875,-0.19705653190612793,3.8911337852478027,-1.8885812759399414
1781799406798763500,7.954763427734375,3.8247156143188477,2.023857593536377,-3.025528907775879
1781799406847283700,8.00328369140625,3.666661024093628,-0.35526275634765625,-1.2315864562988281
1781799406944324600,8.10032470703125,0.6011464595794678,-0.8270125389099121,-0.6672983169555664
1781799406992845300,8.14884521484375,0.07259559631347656,-0.49088621139526367,0.3193788528442383
1781799407041365500,8.197365478515625,-2.432873010635376,-2.5646214485168457,0.6198210716247559
1781799407089886200,8.24588623046875,0.09501707553863525,-2.3659024238586426,-0.29195690155029297
1781799407138406400,8.294406494140626,-1.1349245309829712,-1.521409511566162,-0.13966703414916992
1781799407186927000,8.342927001953125,-0.3025447130203247,-1.6976227760314941,3.329801559448242
1781799407235447300,8.391447265625,1.5072247982025146,-0.43381309509277344,2.10598087310791
1781799407283968000,8.439968017578124,3.7058465480804443,-0.6675252914428711,-0.20076322555541992
1781799407332488200,8.48848828125,2.991565227508545,-2.8612499237060547,-1.6577701568603516
1781799407381009000,8.5370087890625,0.029659509658813477,0.04254913330078125,1.0097002983093262
1781799407429529300,8.585529296875,-2.7227532863616943,1.3191957473754883,3.4829282760620117
1781799407478049800,8.6340498046875,0.2946746349334717,1.0288376808166504,3.587803363800049
1781799407526570200,8.6825703125,1.195415735244751,0.3306093215942383,1.5932445526123047
1781799407575090700,8.731090576171875,1.9265156984329224,-0.8318443298339844,0.9325242042541504
1781799407623611100,8.779611083984374,1.2303547859191895,-0.9302759170532227,-0.19193458557128906
1781799407672131800,8.8281318359375,1.8892812728881836,-1.5535354614257812,-0.5841526985168457
1781799407720652000,8.876652099609375,1.357879400253296,-1.0198602676391602,1.6823148727416992
1781799407769172500,8.92517236328125,1.4167603254318237,-1.4293899536132812,-1.7802987098693848
1781799407817693000,8.97369287109375,1.1505930423736572,-2.6448984146118164,-1.8938970565795898
1781799407866213400,9.02221337890625,-3.643359661102295,-3.7269110679626465,-6.124146461486816
1781799407914734000,9.070734130859375,-0.27553409337997437,-0.30656957626342773,0.5612192153930664
1781799407963254300,9.119254150390624,-1.1052052974700928,0.7674858570098877,0.9453554153442383
1781799408011775000,9.16777490234375,-1.7384181022644043,0.5547051429748535,-0.7629070281982422
1781799408060295200,9.216295166015625,-1.9530504941940308,-1.2719073295593262,0.15091323852539062
1781799408108816000,9.26481591796875,0.5793242454528809,-0.4435153007507324,-0.5516500473022461
1781799408157336000,9.313336181640626,0.8923439979553223,0.9562489986419678,0.8118629455566406
1781799408205856800,9.361856689453125,0.7291617393493652,-0.04742121696472168,0.2832326889038086
1781799408254377200,9.410377197265625,-0.5220044851303101,0.3894636631011963,0.16907978057861328
1781799408302897700,9.458897705078124,0.012470841407775879,0.3830695152282715,-0.1756448745727539
1781799408351418000,9.507418212890625,0.49444258213043213,-0.3603639602661133,-0.2655467987060547
1781799408399938600,9.5559384765625,0.7005448341369629,-0.4713137149810791,-0.5337495803833008
1781799408448459000,9.604458984375,0.363305926322937,-0.45377016067504883,0.03075885772705078
1781799408496979500,9.6529794921875,0.18022167682647705,-0.18954181671142578,0.09939384460449219
1781799408545500000,9.7015,0.3113119602203369,0.4119603633880615,0.10019207000732422
1781799408594020600,9.7500205078125,0.16322147846221924,0.4425783157348633,0.10724449157714844
1781799408642540800,9.798540771484374,0.14938414096832275,0.2016599178314209,0.1173553466796875
1781799408691061500,9.8470615234375,0.029216289520263672,0.8038284778594971,0.4172983169555664
1781799408739581700,9.895581787109375,0.4890183210372925,0.7087419033050537,0.6881513595581055
1781799408788102400,9.944102294921874,0.3423713445663452,0.012625932693481445,-0.3449411392211914
1781799408836622600,9.99262255859375,0.0030096769332885742,0.28267598152160645,-0.3018922805786133
1781799408885143300,10.041143310546875,0.3931471109390259,0.3618316650390625,0.35657596588134766
1781799408933663700,10.089663818359375,0.5834180116653442,-0.20685625076293945,0.14838027954101562
1781799408982184000,10.138183837890624,0.4018288850784302,-1.0175676345825195,-0.4635505676269531
1781799409030704600,10.18670458984375,-0.029497861862182617,-0.12128782272338867,-0.08778953552246094
1781799409079225000,10.23522509765625,-1.8329365253448486,6.019862174987793,4.836728572845459
1781799409127745500,10.28374560546875,0.7713453769683838,2.758756637573242,1.4879183769226074
1781799409176266000,10.332265869140626,5.226966381072998,-0.48433399200439453,-2.2016372680664062
1781799409224786400,10.380786376953125,1.0274251699447632,-1.4063639640808105,-0.8783183097839355
1781799409273307000,10.429306884765625,-2.5986318588256836,1.7393450736999512,0.7239341735839844
1781799409321827600,10.47782763671875,4.65817928314209,0.7309284210205078,-0.2774186134338379
1781799409370347800,10.52634765625,-2.9501640796661377,-0.37247705459594727,1.413801670074463
1781799409418868500,10.574868408203125,1.5945651531219482,0.4645242691040039,-0.13028335571289062
1781799409467389000,10.623388916015625,0.3125861883163452,-0.18034696578979492,-0.19717836380004883
1781799409515909400,10.671909423828126,-0.4249686002731323,0.1734147071838379,-0.43612051010131836
1781799409564429800,10.720429931640625,0.2484126091003418,-0.1298227310180664,0.11605262756347656
1781799409612950500,10.768950439453125,0.49701154232025146,-0.7491850852966309,0.08021879196166992
1781799409661470700,10.817470703125,0.06579649448394775,0.022328853607177734,-0.4125852584838867
1781799409709991400,10.865991455078126,-0.07112038135528564,-0.06399393081665039,0.42281198501586914
1781799409758511900,10.914511962890625,-0.055989742279052734,0.14436721801757812,-0.3830418586730957
1781799409807032300,10.9630322265625,0.4291332960128784,-0.2128305435180664,0.04631328582763672
1781799409855552800,11.011552734375,0.29520130157470703,-0.13047313690185547,0.13394880294799805
1781799409904073500,11.060073486328125,0.4272880554199219,-0.3875398635864258,0.09691905975341797
1781799409952593700,11.10859375,0.1940152645111084,0.05802297592163086,-0.22057723999023438
1781799410001114400,11.1571142578125,-0.21093857288360596,0.6520123481750488,-0.014964580535888672
1781799410049634800,11.205634765625,0.14147675037384033,0.479520320892334,0.4012641906738281
1781799410098155500,11.254155517578125,-0.12119841575622559,-0.03879213333129883,0.05417299270629883
1781799410146675700,11.30267578125,0.19108235836029053,-0.6812338829040527,-0.20874977111816406
1781799410195196400,11.351196533203124,0.5113029479980469,-0.9002833366394043,-0.5584497451782227
1781799410243716900,11.399716796875,0.34879815578460693,-0.24109888076782227,-0.35241222381591797
1781799410292237300,11.4482373046875,0.16216468811035156,0.5315957069396973,0.28885936737060547
1781799410340757800,11.4967578125,0.35077011585235596,0.49329519271850586,0.40069103240966797
1781799410389278200,11.5452783203125,-0.116371750831604,0.46123266220092773,0.29413461685180664
1781799410437798700,11.593798583984375,0.05575895309448242,0.43979310989379883,0.5412487983703613
1781799410486319000,11.642319091796875,0.08770179748535156,0.4257659912109375,0.3749699592590332
1781799410534839800,11.69083984375,-0.01660025119781494,0.12481689453125,0.09184837341308594
1781799410583360300,11.7393603515625,0.23988080024719238,-0.4834146499633789,-0.10570096969604492
1781799410631880700,11.787880615234375,0.1742091178894043,-0.4878091812133789,-0.39400529861450195
1781799410680401200,11.836401123046874,0.2561361789703369,-0.3396782875061035,-0.3050098419189453
1781799410728921900,11.884921875,0.2260972261428833,-0.16754436492919922,-0.0737924575805664
1781799410777442000,11.933442138671875,0.29216623306274414,0.18834161758422852,0.023635387420654297
1781799410825962800,11.981962646484375,0.15628957748413086,0.10122299194335938,-0.07183504104614258
1781799410874483200,12.030483154296874,0.16776907444000244,-0.06682109832763672,-0.10065555572509766
1781799410923003600,12.079003662109375,0.13093149662017822,-0.1634368896484375,-0.06559181213378906
1781799410971524000,12.127524169921875,0.40681350231170654,-0.2316751480102539,0.24486398696899414
1781799411020044800,12.176044921875,0.18342328071594238,0.020931243896484375,-0.11042594909667969
1781799411068565200,12.224565185546876,0.3610856533050537,-0.004069328308105469,-0.10085344314575195
1781799411117085700,12.273085693359375,0.11118853092193604,0.1457366943359375,-0.13712596893310547
1781799411165606100,12.321606201171875,0.1652677059173584,-0.2816429138183594,-0.08846616744995117
1781799411214126800,12.370126953125,0.6986070871353149,-0.2401576042175293,0.01412200927734375
1781799411262647000,12.41864697265625,-0.22106939554214478,0.48961687088012695,-0.2706108093261719
1781799411311167700,12.467167724609375,0.2568854093551636,0.25675106048583984,0.2363753318786621
1781799411359688200,12.515688232421875,-0.18365848064422607,0.12155580520629883,0.1421642303466797
1781799411408208600,12.564208740234376,0.8847623467445374,0.13450098037719727,0.03280925750732422
1781799411456729000,12.61272900390625,-0.8088812232017517,0.40668725967407227,0.7003655433654785
1781799411505249500,12.66124951171875,-0.061832547187805176,-0.5102925300598145,-0.614959716796875
1781799411553770000,12.70977001953125,0.40567559003829956,-0.6282429695129395,0.44265222549438477
1781799411602290700,12.758290771484376,1.16206955909729,-1.0317378044128418,1.1406631469726562
1781799411650811000,12.806810791015625,-0.10595232248306274,1.5693988800048828,-0.252713680267334
1781799411699331600,12.85533154296875,-1.1231133937835693,0.6118454933166504,0.18350887298583984
1781799411747852000,12.90385205078125,-0.0402756929397583,-0.8432579040527344,-0.05559396743774414
1781799411796372200,12.952372314453125,-0.47167205810546875,-0.9502468109130859,-0.6251416206359863
1781799411844893000,13.000892822265625,-0.1386650800704956,-0.2311840057373047,-0.6231536865234375
1781799411893413400,13.049413330078124,0.6828960180282593,0.003631591796875,-0.6746654510498047
1781799411941933800,13.097933837890626,-0.7919838428497314,1.2450385093688965,-0.34990978240966797
1781799411990454300,13.146454345703125,-0.6810883283615112,-0.8970131874084473,-0.6049389839172363
1781799412038974700,13.194974609375,1.2380797863006592,-0.6112809181213379,0.8211374282836914
1781799412087495200,13.2434951171875,-0.4815605878829956,0.4249567985534668,-0.3555154800415039
1781799412136016000,13.292015869140625,0.3136413097381592,0.29723215103149414,0.6800355911254883
1781799412184536000,13.3405361328125,-0.10511612892150879,0.17712736129760742,0.7971596717834473
1781799412233056800,13.389056884765624,0.38062334060668945,-0.18631696701049805,-0.10552692413330078
1781799412281577200,13.4375771484375,-0.10461091995239258,-0.31331396102905273,-0.6920046806335449
1781799412330097700,13.48609765625,0.18476295471191406,0.07080745697021484,0.6963491439819336
1781799412378618000,13.5346181640625,-0.4516720771789551,1.0289735794067383,0.39652109146118164
1781799412427138600,13.583138671875,-0.21845793724060059,0.29540348052978516,-0.23139381408691406
1781799412475659000,13.631658935546875,0.33861875534057617,-0.7323932647705078,-0.23728322982788086
1781799412524179700,13.6801796875,0.3501741886138916,-1.0806431770324707,-0.837033748626709
1781799412572700000,13.728699951171874,0.13550329208374023,1.3092350959777832,-1.0940113067626953
1781799412621220600,13.777220703125,0.3475761413574219,-1.0361132621765137,1.1638398170471191
1781799412669740800,13.82574072265625,0.23081421852111816,-0.27462339401245117,-0.5957746505737305
1781799412718261500,13.874261474609375,-0.2465672492980957,0.9598259925842285,0.2744884490966797
1781799412766781700,13.92278173828125,0.13648366928100586,0.6463699340820312,0.2735457420349121
1781799412815302400,13.971302490234375,-0.007275819778442383,-0.3301997184753418,-0.05302858352661133
1781799412863822800,14.01982275390625,-0.11240506172180176,-0.9110236167907715,-0.8625669479370117
1781799412912343300,14.06834326171875,0.2474520206451416,0.20624589920043945,-0.2923097610473633
1781799412960863700,14.11686376953125,0.019530296325683594,0.049716949462890625,1.0547680854797363
1781799413009384000,14.165384033203125,0.2559702396392822,-0.5515074729919434,0.3918461799621582
1781799413057904600,14.213904541015625,0.7360193729400635,-0.08122491836547852,-0.516169548034668
1781799413106425000,14.262425048828124,-0.3030400276184082,0.6395831108093262,-0.9107770919799805
1781799413154945500,14.310945556640625,-0.08926057815551758,0.05919075012207031,-0.1888117790222168
1781799413203466000,14.359466064453125,1.1164085865020752,-1.2301054000854492,0.5750312805175781
1781799413251986400,14.407986328125,0.6372635364532471,0.1334667205810547,0.2810549736022949
1781799413300507000,14.4565068359375,-1.168408751487732,1.3408117294311523,-0.7484622001647949
1781799413349027300,14.50502734375,-0.17572236061096191,0.24718093872070312,-0.31798839569091797
1781799413397547800,14.5535478515625,1.9987232685089111,-1.0455398559570312,0.6004519462585449
1781799413446068200,14.602068115234376,1.2935030460357666,-0.7772598266601562,0.9288101196289062
1781799413494588700,14.650588623046875,-0.6475183963775635,0.9784202575683594,-0.24677515029907227
1781799413543109000,14.699109130859375,-0.7758290767669678,0.49201393127441406,-1.0765948295593262
1781799413591629600,14.747629638671874,0.38652658462524414,-0.44502925872802734,-0.404843807220459
1781799413640150000,14.79614990234375,0.340792179107666,-0.01902914047241211,0.3952317237854004
1781799413688670500,14.84467041015625,-0.04441118240356445,0.7586565017700195,0.5890107154846191
1781799413737191200,14.893191162109375,0.042163848876953125,0.306119441986084,-0.02141284942626953
1781799413785711400,14.94171142578125,-0.6507166624069214,-0.03488922119140625,0.09454774856567383
1781799413834232000,14.990232177734375,1.1626992225646973,-0.5756411552429199,0.031193256378173828
1781799413882752300,15.038752197265625,0.5605406761169434,-0.17747068405151367,1.0640506744384766
1781799413931273000,15.08727294921875,-0.20251011848449707,1.8400588035583496,0.4245471954345703
1781799413979793200,15.135793212890626,-0.4376850128173828,1.329470157623291,-0.3511219024658203
1781799414028313900,15.18431396484375,0.5057296752929688,-0.6632585525512695,-0.044302940368652344
1781799414076834000,15.232833984375,0.7140903472900391,-0.7759513854980469,-0.17064762115478516
1781799414125354800,15.281354736328124,3.8182926177978516,-0.8289880752563477,-0.20330142974853516
1781799414173875000,15.329875,-2.1051855087280273,0.9072399139404297,-0.46528005599975586
1781799414222395600,15.378395751953125,-0.3625516891479492,1.0844740867614746,-0.9838862419128418
1781799414270915800,15.426915771484374,0.2440556287765503,-1.9682598114013672,0.7367773056030273
1781799414319436300,15.475436279296876,0.32307887077331543,0.036589622497558594,-0.4251675605773926
1781799414367956700,15.523956787109375,-0.20039033889770508,0.6915931701660156,-0.8231081962585449
1781799414416477200,15.572477294921875,-1.4825931787490845,-0.07931661605834961,-0.7098512649536133
1781799414464997600,15.62099755859375,-0.8348610401153564,-0.33141422271728516,0.10396814346313477
1781799414513518000,15.66951806640625,2.0902047157287598,-0.2497878074645996,1.2997446060180664
1781799414562038500,15.71803857421875,2.0783159732818604,-0.5695781707763672,-0.6133675575256348
1781799414610559000,15.76655908203125,-1.489377498626709,0.2332019805908203,0.39923667907714844
1781799414659079400,15.815079345703126,-2.006791114807129,-1.9428210258483887,-1.0633025169372559
1781799414707600000,15.863599853515625,-1.340970754623413,-3.492910385131836,-1.6016044616699219
1781799414756120300,15.912120361328125,-3.518080711364746,0.048035621643066406,-1.7456812858581543
1781799414804640800,15.960640869140626,1.3906466960906982,-0.42725372314453125,-1.4254536628723145
1781799414853161200,16.0091611328125,3.124922752380371,2.521831512451172,-2.3756179809570312
1781799414901681700,16.057681640625,4.566328048706055,4.300185680389404,-2.0215702056884766
1781799414950202000,16.1062021484375,5.777383327484131,1.3488802909851074,0.045416831970214844
1781799414998722600,16.15472265625,2.32443904876709,1.2869911193847656,0.7859611511230469
1781799415047243000,16.203242919921873,0.6791950464248657,-2.2816274166107178,2.3536739349365234
1781799415095763500,16.251763427734375,0.5632753968238831,-3.0142552852630615,0.9980030059814453
1781799415144284000,16.300283935546876,0.21018707752227783,-4.091859817504883,0.08666515350341797
1781799415192804400,16.348804443359374,-0.33063554763793945,-5.009940147399902,0.3756723403930664
1781799415241324800,16.39732470703125,-3.3868284225463867,-2.1987600326538086,-1.2829227447509766
1781799415289845200,16.44584521484375,-6.911578178405762,2.3929014205932617,3.028019905090332
1781799415338365700,16.49436572265625,3.2360856533050537,-2.838369369506836,-0.20537042617797852
1781799415386886100,16.54288623046875,1.1318609714508057,-0.7513308525085449,0.9690361022949219
1781799415435406300,16.59140625,1.4477243423461914,0.8020114898681641,3.677544116973877
1781799415483927000,16.639927001953126,0.4233522415161133,1.0754570960998535,-0.20226669311523438
1781799415532447200,16.688447265625,-0.5441175699234009,0.8565564155578613,1.9997153282165527
1781799415580968000,16.736968017578125,1.3611986637115479,-0.44004058837890625,3.061728000640869
1781799415629488000,16.785488037109374,1.2254642248153687,-1.8549566268920898,1.5433826446533203
1781799415678008600,16.834008544921875,-2.7280538082122803,1.5533723831176758,0.7821774482727051
1781799415726529000,16.882529052734377,-2.7645974159240723,1.8615913391113281,1.9341373443603516
1781799415775049500,16.931049560546874,-0.0976400375366211,-0.33496665954589844,1.1194751262664795
1781799415823570000,16.97956982421875,2.025054931640625,0.5517826080322266,0.9573062658309937
1781799415872090400,17.02809033203125,-2.314682722091675,1.595458984375,1.2673884630203247
1781799415920610800,17.07661083984375,-2.938323974609375,5.677772521972656,2.325115203857422
1781799415969131300,17.12513134765625,0.9755401611328125,0.8341922760009766,-1.1858199834823608
1781799416017651500,17.1736513671875,0.11810636520385742,-2.690357208251953,-1.17111074924469
1781799416066172200,17.222172119140627,1.286569595336914,-0.7494697570800781,-1.3719459772109985
1781799416114692400,17.2706923828125,0.9728302955627441,0.1847705841064453,0.19382238388061523
1781799416163213000,17.319213134765626,0.11250066757202148,-0.0284576416015625,-0.0987403392791748
1781799416211733200,17.367733154296875,-1.2177073955535889,-0.31638240814208984,-0.18720221519470215
1781799416260253700,17.416253662109376,0.1870884895324707,-0.24791526794433594,-0.02541828155517578
1781799416308774100,17.464774169921874,1.03182053565979,0.2980203628540039,-0.5707101821899414
1781799416357294600,17.513294677734375,-1.7276326417922974,2.9493279457092285,-0.8071589469909668
1781799416405814800,17.561814697265625,2.902320623397827,1.3006319999694824,-0.6676998138427734
1781799416454335500,17.61033544921875,1.4176969528198242,0.9293551445007324,-0.08541536331176758
1781799416502855700,17.658855712890624,0.34133684635162354,-1.8504610061645508,-0.0037512779235839844
1781799416551376100,17.707376220703125,1.9545801877975464,-1.0676155090332031,-0.48395872116088867
1781799416599896600,17.755896484375,1.0732898712158203,0.3111076354980469,-1.3144938945770264
1781799416648416800,17.804416748046876,0.3516496419906616,0.2116250991821289,1.9372735023498535
1781799416696937500,17.8529375,0.22144679725170135,0.4554777145385742,2.7122344970703125
1781799416745457700,17.901457763671875,1.347499132156372,1.3296937942504883,1.4350934028625488
1781799416793978000,17.94997802734375,-0.33451080322265625,-2.482036590576172,-0.630436897277832
1781799416842498600,17.99849853515625,-0.7333207726478577,-2.59372615814209,-1.236621618270874
1781799416891019000,18.04701904296875,0.49572861194610596,0.10763931274414062,-0.45264768600463867
1781799416939539200,18.095539306640624,0.3962329030036926,1.062413215637207,-0.3814678192138672
1781799416988060000,18.144059814453126,0.23992624878883362,0.53814697265625,0.6258827447891235
1781799417036580000,18.192580078125,0.29812416434288025,1.2717008590698242,1.394845962524414
1781799417085100500,18.2411005859375,0.5423091053962708,0.6186695098876953,0.862930417060852
1781799417133621000,18.28962109375,0.6906912326812744,3.157228946685791,0.34694063663482666
1781799417182141400,18.338141357421875,0.12356674671173096,4.346126556396484,-0.9174464344978333
1781799417230661600,18.38666162109375,0.7493693232536316,-0.7137546539306641,-0.6549504399299622
1781799417279182300,18.435182373046874,0.09837174415588379,-9.561663627624512,0.06425976753234863
1781799417327702500,18.48370263671875,-1.1954046487808228,-2.7915687561035156,0.30190789699554443
1781799417376223000,18.532222900390625,1.2044947147369385,3.0727691650390625,-0.5947479009628296
1781799417424743400,18.580743408203126,0.22391337156295776,0.3663911819458008,-0.13658428192138672
1781799417473263900,18.629263916015624,-0.3963155746459961,-1.0053768157958984,-0.15204358100891113
1781799417521784000,18.6777841796875,0.23989194631576538,0.18141937255859375,-0.5117928385734558
1781799417570304300,18.72630419921875,-0.29139602184295654,-0.09648799896240234,-0.2506445646286011
1781799417618825000,18.774824951171876,0.34046000242233276,-0.08805465698242188,-0.04067873954772949
1781799417667345200,18.82334521484375,0.43300867080688477,-0.2016153335571289,0.5940893888473511
1781799417715865600,18.871865478515623,0.40210390090942383,-0.01975250244140625,0.7278851270675659
1781799417764386000,18.920385986328125,0.5772872567176819,0.24219417572021484,0.4849975109100342
1781799417812906500,18.968906494140626,0.10570347309112549,-0.07201194763183594,-0.2022954225540161
1781799417861426700,19.0174267578125,0.07372033596038818,-0.22137928009033203,-0.537912130355835
1781799417909947400,19.065947509765625,0.07382404804229736,0.06881141662597656,-0.536763072013855
1781799417958467600,19.114467529296874,0.17945802211761475,0.07726669311523438,-0.28476715087890625
1781799418006988000,19.162988037109375,0.12242203950881958,-0.09617137908935547,-0.02316194772720337
1781799418055508200,19.21150830078125,0.14904868602752686,0.13346385955810547,-0.10857170820236206
1781799418104029000,19.26002880859375,0.03737837076187134,0.18168926239013672,-0.5721381902694702
1781799418152549000,19.308549072265624,0.15725970268249512,-0.4235696792602539,-0.4346684217453003
1781799418201069600,19.357069580078125,0.26106148958206177,-0.6321315765380859,0.41351890563964844
1781799418249589800,19.40558984375,0.30252861976623535,0.22051048278808594,0.1561155915260315
1781799418298110500,19.4541103515625,0.35293304920196533,0.08170223236083984,0.6146149039268494
1781799418346630700,19.502630615234374,0.006217598915100098,-0.21822643280029297,0.13085252046585083
1781799418395151000,19.551151123046875,-0.0035659074783325195,0.008828163146972656,-0.3739875555038452
1781799418443671300,19.59967138671875,0.2670319080352783,-0.18597698211669922,0.07609343528747559
1781799418492192000,19.64819189453125,0.19198089838027954,0.16032981872558594,-0.22693488001823425
1781799418540712200,19.696712158203123,0.2095808982849121,0.27701854705810547,-0.1194196343421936
1781799418589232400,19.745232421875,0.3173724412918091,-0.34372901916503906,0.36163032054901123
1781799418637752800,19.7937529296875,0.30076098442077637,-0.27768516540527344,0.38791847229003906
1781799418686273300,19.842273193359375,0.45780229568481445,0.25418949127197266,0.3543570041656494
1781799418734793700,19.890793701171877,0.19409167766571045,0.1700000762939453,-0.12877166271209717
1781799418783314000,19.93931396484375,0.07153505086898804,-0.14034652709960938,-0.22003278136253357
1781799418831834400,19.98783447265625,0.07254552841186523,-0.08667373657226562,-0.3313618004322052
1781799418880354800,20.036354736328125,0.1528104543685913,-0.1021871566772461,-0.14254418015480042
1781799418928875300,20.084875244140626,0.2362300157546997,-0.04594898223876953,0.09309136867523193
1781799418977395500,20.1333955078125,0.27078425884246826,0.08850955963134766,-0.05165928602218628
1781799419025916000,20.181916015625,0.17190617322921753,-0.05978584289550781,-0.24878306686878204
1781799419074436000,20.23043603515625,0.19169378280639648,-0.09939956665039062,-0.26236289739608765
1781799419122956800,20.278956787109376,0.14681291580200195,-0.08693885803222656,-0.2870258688926697
1781799419171477000,20.32747705078125,0.24388283491134644,-0.029816627502441406,-0.02307620644569397
1781799419219998000,20.375998046875,0.09653961658477783,0.11938953399658203,0.15145456790924072
1781799419268518400,20.424518310546876,0.2549969553947449,-0.12689208984375,0.14908453822135925
1781799419317038600,20.47303857421875,0.08657312393188477,-0.04257965087890625,-0.09557521343231201
1781799419365559300,20.521559326171875,-0.01781916618347168,0.011112213134765625,-0.20250608026981354
1781799419414079500,20.57007958984375,0.08169275522232056,-0.11278152465820312,-0.2142656296491623
1781799419462600000,20.618599853515626,-0.10597670078277588,-0.02878570556640625,-0.25968635082244873
1781799419511120100,20.6671201171875,0.018417954444885254,-0.021576881408691406,-0.2705550789833069
1781799419559640600,20.715640625,-0.07291263341903687,0.1141519546508789,-0.20947127044200897
1781799419608160800,20.764160888671874,0.05200916528701782,-0.060214996337890625,-0.07645080983638763
1781799419656681500,20.812681396484376,0.044278621673583984,0.10553932189941406,-0.03556069731712341
1781799419705201700,20.86120166015625,0.16351020336151123,-0.19388484954833984,0.26715797185897827
1781799419753722000,20.90972216796875,0.08396923542022705,0.0692300796508789,0.30360135436058044
1781799419802242300,20.9582421875,0.20515793561935425,0.03625297546386719,0.3669169247150421
1781799419850762800,21.0067626953125,0.15041106939315796,-0.1205301284790039,0.16967904567718506
1781799419899283000,21.055282958984375,0.2045575976371765,0.10819435119628906,0.014328747987747192
1781799419947803600,21.1038037109375,0.18106621503829956,-0.00980377197265625,0.15318220853805542
1781799419996323800,21.15232373046875,-0.004425644874572754,-0.10454940795898438,-0.12520387768745422
1781799420044844000,21.200843994140627,-0.06452065706253052,0.19558143615722656,-0.0808660089969635
1781799420093364500,21.249364501953124,0.05589103698730469,-0.17211151123046875,-0.10106703639030457
1781799420141884700,21.297884765625,0.06489741802215576,-0.24346256256103516,-0.3495253026485443
1781799420190405000,21.346405029296875,0.15691739320755005,-0.09625530242919922,-0.029409348964691162
1781799420238925600,21.394925537109376,0.15992587804794312,0.2733011245727539,0.13064253330230713
1781799420287446000,21.443446044921874,0.23665565252304077,0.13630199432373047,0.17744916677474976
1781799420335966200,21.49196630859375,0.24416673183441162,-0.2100086212158203,0.1485714316368103
1781799420384486700,21.540486572265625,-0.18177491426467896,-0.01989269256591797,-0.3251977860927582
1781799420433006800,21.5890068359375,-0.21301203966140747,0.21026992797851562,-0.28764599561691284
1781799420481527300,21.63752734375,-0.5351583361625671,0.3311920166015625,-0.5208014845848083
1781799420530047500,21.686047607421877,1.1449772119522095,-0.11067390441894531,0.4315432608127594
1781799420578568200,21.734568115234374,-0.0766947865486145,-0.31052494049072266,0.22470131516456604
1781799420627088400,21.78308837890625,0.0027037858963012695,-0.036510467529296875,0.19483846426010132
1781799420675608800,21.83160888671875,0.05718308687210083,0.018323898315429688,0.05410170555114746
1781799420724129000,21.88012890625,-0.03357189893722534,-0.04479408264160156,-0.33077993988990784
1781799420772649500,21.9286494140625,0.14747703075408936,0.10099029541015625,-0.30434709787368774
1781799420821169700,21.977169677734373,0.17415928840637207,-0.022905349731445312,0.08915412425994873
1781799420869689900,22.02568994140625,0.21202677488327026,-0.12758541107177734,0.4564211964607239
1781799420918210300,22.074210205078124,0.21669095754623413,0.014937400817871094,0.6419438719749451
1781799420966730500,22.12273046875,0.2952367067337036,-0.07728862762451172,0.748833954334259
1781799421015251200,22.171251220703127,0.27271348237991333,-0.06754493713378906,0.6697832942008972
1781799421063771400,22.219771484375,0.21804434061050415,0.06982231140136719,0.6494181752204895
1781799421112291800,22.268291748046874,0.011370837688446045,-0.052501678466796875,0.16616523265838623
1781799421160812000,22.31681201171875,0.0824575424194336,-0.08786773681640625,-0.06694477796554565
1781799421209332500,22.36533251953125,0.028431594371795654,-0.056549072265625,-0.2950630486011505
1781799421257852700,22.413852783203126,0.10001522302627563,0.08411216735839844,-0.19781336188316345
1781799421306373000,22.462373046875,0.11376303434371948,-0.05178356170654297,-0.16731199622154236
1781799421354893300,22.510893310546876,0.09225672483444214,-0.08897972106933594,-0.06879425048828125
1781799421403413800,22.559413818359374,0.14657682180404663,0.022832870483398438,0.026402711868286133
1781799421451934000,22.607933837890624,0.13109099864959717,-0.0723714828491211,0.09151697158813477
1781799421500454700,22.65645458984375,0.13792234659194946,0.009894371032714844,0.027558505535125732
1781799421548974800,22.704974853515626,0.10984271764755249,0.0372314453125,-0.04732513427734375
1781799421597495300,22.753495361328124,0.04586857557296753,-0.05037212371826172,-0.036218881607055664
1781799421646015500,22.802015380859373,0.06226140260696411,-0.012875556945800781,-0.007970452308654785
1781799421694536000,22.850535888671875,0.05079305171966553,-0.026239395141601562,0.009876847267150879
1781799421743056100,22.89905615234375,0.0690651535987854,-0.028964996337890625,0.003409862518310547
1781799421791576300,22.947576416015625,0.10312759876251221,0.010653495788574219,0.036863625049591064
1781799421840096800,22.9960966796875,0.06456434726715088,-0.03961753845214844,0.02184528112411499
1781799421888617000,23.044616943359376,0.09876245260238647,0.01027679443359375,0.05561262369155884
1781799421937137400,23.093137451171874,0.0976209044456482,0.008874893188476562,0.0577431321144104
1781799421985657600,23.14165771484375,0.09791409969329834,-0.020603179931640625,0.023740410804748535
1781799422034178000,23.190177978515624,0.10067689418792725,-0.002109527587890625,0.02138441801071167
1781799422082698500,23.238698486328126,0.10415798425674438,-0.0076751708984375,-0.01019895076751709
1781799422131219000,23.287218994140623,0.10190534591674805,-0.024791717529296875,0.0027499794960021973
1781799422179739100,23.3357392578125,0.0845949649810791,-0.018563270568847656,-0.0010508894920349121
1781799422228259600,23.384259521484374,0.08976811170578003,0.010578155517578125,0.0407562255859375
1781799422276779800,23.43277978515625,0.07691293954849243,-0.012226104736328125,0.004626214504241943
1781799422325300200,23.48130029296875,0.0779833197593689,0.005192756652832031,-0.025972366333007812
1781799422373820400,23.5298203125,0.07383966445922852,0.007978439331054688,-0.01028287410736084
1781799422422340900,23.5783408203125,0.057835936546325684,-0.017618179321289062,-0.024196505546569824
1781799422470861000,23.626861083984377,0.07146227359771729,0.005572319030761719,0.04146385192871094
1781799422519381500,23.675381591796874,0.08149391412734985,0.0029993057250976562,0.05339491367340088
1781799422567901700,23.723901611328124,0.07518619298934937,-0.005326271057128906,0.0528717041015625
1781799422616422000,23.772421875,0.0776524543762207,0.006821632385253906,0.04965251684188843
1781799422664942300,23.8209423828125,0.06791961193084717,-0.0006437301635742188,0.02736145257949829
1781799422713462500,23.869462646484376,0.0676988959312439,-0.04080963134765625,-0.02215743064880371
1781799422761983000,23.91798291015625,0.06661760807037354,0.044602394104003906,-0.012830376625061035
1781799422810503200,23.966503173828126,0.06368863582611084,-0.007332801818847656,-0.01059037446975708
1781799422859023600,24.015023681640624,0.03963857889175415,-0.0064449310302734375,0.03319054841995239
1781799422907543800,24.063543701171874,0.0487213134765625,-0.0299072265625,0.003968715667724609
1781799422956064500,24.112064453125,0.06540882587432861,0.004894256591796875,-0.009948551654815674
1781799423004584700,24.160584716796876,0.06501328945159912,0.013674736022949219,-0.016707241535186768
1781799423053105200,24.209105224609374,0.059972941875457764,0.0033407211303710938,-0.018588364124298096
1781799423101625300,24.257625244140623,0.06856012344360352,-0.03264141082763672,-0.018892526626586914
1781799423150145800,24.306145751953125,0.06916666030883789,-0.02878856658935547,0.011150240898132324
1781799423198666000,24.354666015625,0.054038822650909424,0.054901123046875,-0.01184755563735962
1781799423247186400,24.4031865234375,0.06643033027648926,-0.010716438293457031,0.007997334003448486
1781799423295706600,24.45170654296875,0.06550157070159912,-0.029770851135253906,0.015033483505249023
1781799423344227000,24.50022705078125,0.07827621698379517,0.034455299377441406,-0.009923338890075684
1781799423392747300,24.548747314453124,0.07137590646743774,-0.024566650390625,0.025725483894348145
1781799423441267700,24.597267822265625,0.03297370672225952,0.0005559921264648438,-0.04605972766876221
1781799423489788000,24.645787841796874,0.045815110206604004,-0.023428916931152344,-0.03056877851486206
1781799423538308000,24.69430810546875,0.05311697721481323,-0.02855682373046875,-0.04253906011581421
1781799423586828500,24.74282861328125,0.09519588947296143,0.00567626953125,0.006406664848327637
1781799423635348700,24.7913486328125,0.07908141613006592,0.017014503479003906,0.04185330867767334
1781799423683869200,24.839869140625,0.09577721357345581,-0.0033102035522460938,0.019234299659729004
1781799423732389400,24.888389404296873,0.06786543130874634,-0.008279800415039062,0.04295063018798828
1781799423780909800,24.936909912109375,0.06803697347640991,-0.004500389099121094,0.052329063415527344
1781799423829430000,24.985429931640624,0.059587061405181885,-0.013342857360839844,0.0252913236618042
1781799423877950500,25.033950439453125,0.06477600336074829,0.012041091918945312,0.035605013370513916
1781799423926470700,25.082470703125,0.09021502733230591,-0.025369644165039062,0.0015822052955627441
1781799423974991000,25.1309912109375,0.06954967975616455,-0.014071464538574219,-0.0161130428314209
1781799424023511300,25.17951123046875,0.09282839298248291,0.0025796890258789062,0.026932358741760254
1781799424072031700,25.22803173828125,0.07665878534317017,-0.013914108276367188,0.004801332950592041
1781799424120552000,25.276552001953124,0.07530826330184937,-0.010686874389648438,-0.010317325592041016
1781799424169072400,25.325072265625,0.07131093740463257,0.0041790008544921875,-0.002717733383178711
1781799424217592600,25.373592529296875,0.059013426303863525,0.0029850006103515625,-0.006558775901794434
1781799424266113000,25.422113037109376,0.07052093744277954,-0.0047473907470703125,-0.007470667362213135
1781799424314633200,25.47063330078125,0.0763501524925232,-0.027240753173828125,0.001204371452331543
1781799424363153400,25.5191533203125,0.06244915723800659,0.015032768249511719,-0.01001584529876709
1781799424411673900,25.567673828125,0.06514245271682739,-0.0021953582763671875,-0.01586318016052246
1781799424460194000,25.616194091796874,0.049268901348114014,-0.007328987121582031,0.020161867141723633
1781799424508714800,25.66471484375,0.07417440414428711,0.010489463806152344,-0.025236904621124268
1781799424557235000,25.71323486328125,0.038936495780944824,-0.029870986938476562,-0.0030960440635681152
1781799424605755400,25.76175537109375,0.065970778465271,-0.00054168701171875,-0.021873891353607178
1781799424654275600,25.810275634765624,0.04183244705200195,-0.011524200439453125,0.016756296157836914
1781799424702796000,25.858796142578125,0.05845397710800171,-0.03787517547607422,-0.008531033992767334
1781799424751316200,25.907316162109375,0.07768553495407104,0.016946792602539062,0.0020458102226257324
1781799424799836700,25.955836669921876,0.08285504579544067,-0.010679244995117188,-0.014640212059020996
1781799424848356900,26.00435693359375,0.07236528396606445,0.021574020385742188,-0.010758638381958008
1781799424896877300,26.052877197265627,0.07007747888565063,0.015509605407714844,0.011554121971130371
1781799424945397500,26.1013974609375,0.04573112726211548,-0.033100128173828125,0.0023704171180725098
1781799424993918000,26.14991796875,0.05649864673614502,0.0055408477783203125,0.0014093518257141113
1781799425042438100,26.198438232421875,0.029361724853515625,-0.0007982254028320312,-0.02746182680130005
1781799425090958600,26.24695849609375,0.038882434368133545,-0.00031185150146484375,-0.03726816177368164
1781799425139478800,26.295478759765626,0.029871702194213867,-0.02309417724609375,-0.053579628467559814
1781799425187999000,26.3439990234375,0.06668329238891602,-0.0087127685546875,-0.008044540882110596
1781799425236519400,26.39251953125,0.05506235361099243,0.015404701232910156,0.010273337364196777
1781799425285039600,26.44103955078125,0.05785036087036133,-0.0072917938232421875,0.013432800769805908
1781799425333560000,26.48956005859375,0.045765578746795654,-0.025429725646972656,-0.020253002643585205
1781799425382080300,26.538080322265625,0.07961815595626831,0.03325939178466797,-0.010172843933105469
1781799425430600700,26.5866005859375,0.0774502158164978,-0.019168853759765625,-0.01170438528060913
1781799425479121000,26.635120849609375,0.11504584550857544,0.027960777282714844,-0.008270263671875
1781799425527641300,26.683641357421877,0.10061502456665039,0.0714273452758789,-0.04863405227661133
1781799425576161500,26.73216162109375,0.04533904790878296,-0.04394340515136719,-0.12844717502593994
1781799425624682000,26.780681884765624,-0.020527541637420654,-0.009751319885253906,-0.12256264686584473
1781799425673202200,26.8292021484375,0.017057716846466064,-0.09318923950195312,0.03858309984207153
1781799425721722600,26.87772265625,0.016356825828552246,-0.13222026824951172,0.08334553241729736
1781799425770242800,26.926242919921876,0.15789133310317993,0.10047245025634766,0.08621078729629517
1781799425818763300,26.97476318359375,0.07139307260513306,0.083221435546875,0.1426703929901123
1781799425867283500,27.023283447265626,0.11333388090133667,0.12169933319091797,0.1876591444015503
1781799425915804000,27.071803955078124,0.14662599563598633,-0.12630462646484375,0.31831109523773193
1781799425964324000,27.120323974609374,0.16631567478179932,-0.03994941711425781,0.09732145071029663
1781799426012844300,27.16884423828125,0.08513683080673218,0.12078094482421875,0.1845356822013855
1781799426061364700,27.21736474609375,-0.04652810096740723,-0.0025320053100585938,-0.15112662315368652
1781799426109885000,27.265885009765626,0.007166862487792969,-0.07777595520019531,-0.13448673486709595
1781799426158405400,27.3144052734375,-0.02646559476852417,0.0035715103149414062,0.011512279510498047
1781799426206925600,27.362925537109376,0.026411116123199463,0.0510101318359375,-0.007657647132873535
1781799426255446000,27.411446044921874,0.050813138484954834,-0.10349273681640625,0.006983578205108643
1781799426303966200,27.45996630859375,0.01828211545944214,-0.035121917724609375,-0.0455937385559082
1781799426352486700,27.508486572265625,-0.012779295444488525,0.0024881362915039062,-0.0628613829612732
1781799426401006800,27.5570068359375,0.007424592971801758,-0.0715179443359375,-0.16736119985580444
1781799426449527300,27.60552734375,0.04803657531738281,0.01728343963623047,-0.030947566032409668
1781799426498047500,27.654047607421877,0.13781487941741943,-0.07965087890625,0.04823660850524902
1781799426546568000,27.70256787109375,0.1511712670326233,0.03169441223144531,0.03985154628753662
1781799426595088100,27.751088134765624,0.1717073917388916,-0.03466224670410156,0.0003211498260498047
1781799426643608600,27.799608642578125,0.16827380657196045,-0.01262664794921875,-0.11064422130584717
1781799426692128800,27.848128662109374,0.09620845317840576,-0.006709098815917969,0.03410273790359497
1781799426740649200,27.896649169921876,0.01717740297317505,0.0821981430053711,0.10760313272476196
1781799426789169400,27.94516943359375,-0.26578032970428467,0.09794902801513672,-0.20526552200317383
1781799426837689600,27.993689697265626,-0.13880759477615356,0.008128166198730469,-0.21381670236587524
1781799426886210000,28.0422099609375,0.09561562538146973,-0.1459035873413086,0.40964770317077637
1781799426934730200,28.090730224609374,0.23739981651306152,-0.020429611206054688,0.5770696997642517
1781799426983250700,28.139250732421875,0.11110299825668335,-0.25717830657958984,-0.2369042932987213
1781799427031771000,28.18777099609375,0.5293568968772888,0.46938133239746094,-0.5488262176513672
1781799427080291300,28.236291259765625,-0.5813620090484619,-0.15650463104248047,-0.5140615701675415
1781799427128811500,28.2848115234375,-0.18474876880645752,-0.031151771545410156,-0.4414275288581848
1781799427177332000,28.33333203125,0.09194093942642212,-0.1816272735595703,0.019637227058410645
1781799427225852200,28.38185205078125,0.22588616609573364,0.031932830810546875,0.09246242046356201
1781799427274372600,28.43037255859375,0.19779372215270996,-0.2971620559692383,-0.05510634183883667
1781799427322892800,28.478892822265625,0.16154789924621582,0.5176095962524414,-0.5430822968482971
1781799427371413200,28.527413330078126,0.07133406400680542,-0.23931121826171875,-0.5761115550994873
1781799427419933400,28.575933349609375,0.09170201420783997,-0.060242652893066406,-0.4053223133087158
1781799427468454000,28.624453857421877,0.15852689743041992,0.13754558563232422,-0.193256676197052
1781799427516974000,28.67297412109375,0.25915199518203735,-0.05355548858642578,0.46712571382522583
1781799427565494500,28.72149462890625,0.33380159735679626,-0.4432640075683594,1.0439362525939941
1781799427614014700,28.7700146484375,0.2783118784427643,-0.29469776153564453,0.3146272897720337
1781799427662535000,28.818534912109374,0.16079989075660706,0.47830677032470703,-0.3606991469860077
1781799427711055400,28.867055419921876,0.12003684043884277,-0.19985389709472656,-0.4430496394634247
1781799427759575600,28.915575439453125,0.16694563627243042,-0.4274568557739258,0.20977669954299927
1781799427808096000,28.964095947265626,-0.1857476830482483,-0.033585548400878906,-0.024791747331619263
1781799427856616200,29.0126162109375,0.2643609046936035,0.03320884704589844,-0.06900447607040405
1781799427905136600,29.06113671875,0.22996073961257935,0.35901832580566406,-0.10705539584159851
1781799427953656800,29.10965673828125,0.29386186599731445,0.37293052673339844,-0.20526601374149323
1781799428002177300,29.15817724609375,-0.06180226802825928,-0.09232902526855469,0.40882429480552673
1781799428050697200,29.206697265625,-0.11601376533508301,-0.18602943420410156,0.5875636339187622
1781799428099217700,29.2552177734375,0.17295706272125244,-0.38695240020751953,1.1969549655914307
1781799428147737900,29.30373779296875,0.437292218208313,-0.15950298309326172,0.6018756031990051
1781799428196258300,29.35225830078125,0.45062363147735596,-0.1995868682861328,0.39763298630714417
1781799428244778500,29.400778564453127,0.44989949464797974,0.21636676788330078,0.17243531346321106
1781799428293299000,29.449298828125,0.42749977111816406,0.1628255844116211,-0.043337494134902954
1781799428341819100,29.497819091796874,0.31092655658721924,0.09861564636230469,-0.7367737293243408
1781799428390339600,29.546339599609375,0.14697265625,0.04327201843261719,-0.807034432888031
1781799428438859800,29.59485986328125,0.14858651161193848,0.07425689697265625,-0.6396307945251465
1781799428487380000,29.6433798828125,0.07127165794372559,0.22339725494384766,-0.5739363431930542
1781799428535900400,29.691900390625,0.2523704171180725,-0.18774795532226562,-0.18220682442188263
1781799428584420600,29.740420654296877,-0.22883987426757812,-0.08341121673583984,-0.15689319372177124
1781799428632941000,29.788941162109374,0.296450674533844,0.0067005157470703125,-0.0418323278427124
1781799428681461200,29.837461181640624,0.0954594612121582,-0.22080135345458984,0.1257615089416504
1781799428729981700,29.885981689453125,0.46903151273727417,-0.1903390884399414,0.35435950756073
1781799428778502000,29.934501953125,0.15073758363723755,0.25485801696777344,-0.22093072533607483
1781799428827022300,29.983022216796876,0.17517685890197754,-0.03167438507080078,-0.12807637453079224
1781799428875542500,30.03154248046875,0.10512161254882812,-0.050922393798828125,-0.25561416149139404
1781799428924063000,30.08006298828125,0.30336427688598633,0.07205963134765625,-0.1326482892036438
1781799428972583200,30.128583251953124,0.03427445888519287,-0.15735721588134766,0.03520113229751587
1781799429021103600,30.177103515625,-0.035093605518341064,-0.13719463348388672,0.17369812726974487
1781799429069623800,30.225623779296875,0.13204538822174072,0.5171403884887695,0.14246594905853271
1781799429118144300,30.274144287109376,0.2960315942764282,-0.5278310775756836,0.1488966941833496
1781799429166664400,30.32266455078125,0.22442752122879028,0.015891075134277344,0.31069111824035645
1781799429215185000,30.371184814453127,0.32530665397644043,0.1708087921142578,0.3681511878967285
1781799429263705000,30.419705078125,-0.09209007024765015,-0.029089927673339844,-0.15615516901016235
1781799429312225300,30.468225341796874,-0.17839384078979492,-0.05663490295410156,-0.33002591133117676
1781799429360745700,30.516745849609375,-0.15100955963134766,-0.08303260803222656,-0.25865793228149414
1781799429409266000,30.565265869140624,0.005271196365356445,0.06333065032958984,-0.19554877281188965
1781799429457786400,30.613786376953126,-0.0005196332931518555,0.04810905456542969,0.158275306224823
1781799429506306600,30.662306640625,0.051882028579711914,-0.18011856079101562,0.19093209505081177
1781799429554827000,30.710826904296876,0.24222689867019653,-0.08407211303710938,0.07285791635513306
1781799429603347200,30.75934716796875,0.27011144161224365,0.034008026123046875,-0.05015432834625244
1781799429651867400,30.807867431640624,0.1195562481880188,-0.00029087066650390625,-0.30737069249153137
1781799429700387600,30.8563876953125,0.10295999050140381,0.05778789520263672,-0.502602756023407
1781799429748908000,30.904907958984374,0.13258051872253418,0.0473175048828125,-0.47406741976737976
1781799429797428200,30.95342822265625,0.12108850479125977,-0.16483783721923828,-0.2616421580314636
1781799429845948700,31.00194873046875,0.13370543718338013,-0.11656665802001953,-0.16391104459762573
1781799429894468900,31.05046875,0.1873301863670349,-0.017790794372558594,0.03328299522399902
1781799429942989300,31.0989892578125,0.15479731559753418,-0.007508277893066406,0.17560887336730957
1781799429991509500,31.147509521484373,0.15548241138458252,0.11073112487792969,0.33781737089157104
1781799430040029700,31.19602978515625,0.11682403087615967,0.11423397064208984,0.29743635654449463
1781799430088550100,31.244550048828124,0.13483542203903198,0.029443740844726562,0.2968904376029968
1781799430137070300,31.2930703125,0.2842370867729187,-0.013621330261230469,0.22318118810653687
1781799430185590800,31.3415908203125,0.20385992527008057,-0.02171802520751953,0.07393002510070801
1781799430234111000,31.390111083984376,0.026624321937561035,0.000194549560546875,-0.1911449432373047
1781799430282631400,31.43863134765625,-0.06592029333114624,0.10552406311035156,-0.4273802638053894
1781799430331151600,31.487151611328127,-0.08147549629211426,0.08193588256835938,-0.36534374952316284
1781799430379672000,31.535672119140624,-0.23326575756072998,0.057822227478027344,-0.08425700664520264
1781799430428192300,31.584192138671874,-0.03902721405029297,-0.36286449432373047,-0.16076338291168213
1781799430476712700,31.632712646484375,0.14321362972259521,-0.36933326721191406,-0.3762916326522827
1781799430525233000,31.68123291015625,0.4826696813106537,0.1564178466796875,0.18381381034851074
1781799430573753000,31.729753173828126,0.41117846965789795,-0.034961700439453125,0.4538578987121582
1781799430622273300,31.778273193359375,0.6220732927322388,-0.00270843505859375,0.5366320610046387
1781799430670793700,31.826793701171876,0.5325875282287598,0.21422386169433594,0.24479913711547852
1781799430719314000,31.87531396484375,-0.08201998472213745,0.09478950500488281,-0.44423508644104004
1781799430767834400,31.92383447265625,-0.32130032777786255,0.16594314575195312,-0.5416926145553589
1781799430816354600,31.9723544921875,-0.3920711278915405,-0.21111106872558594,-0.7573755383491516
1781799430864874800,32.020874755859374,-0.3160431981086731,0.009855270385742188,-0.6598443984985352
1781799430913395200,32.06939526367187,-0.11236315965652466,-0.14768505096435547,-0.275781512260437
1781799430961915400,32.117915283203125,0.31209027767181396,-0.1043863296508789,0.17424261569976807
1781799431010435800,32.16643579101562,0.4963231086730957,0.05566883087158203,0.2570291757583618
1781799431058956000,32.2149560546875,0.18837112188339233,0.13010883331298828,0.25298917293548584
1781799431107476500,32.2634765625,0.27328944206237793,0.08586788177490234,0.35772109031677246
1781799431155996700,32.31199658203125,0.023517727851867676,0.07205677032470703,0.34141719341278076
1781799431204517000,32.36051708984375,-0.0736427903175354,0.07925033569335938,0.3095585107803345
1781799431253037300,32.40903735351562,-0.26934605836868286,0.19573116302490234,0.3732638359069824
1781799431301557500,32.4575576171875,-0.41195178031921387,0.5723133087158203,0.15273195505142212
1781799431350077700,32.50607763671875,0.10783195495605469,-0.046738624572753906,-0.09001022577285767
1781799431398598100,32.55459814453125,0.37911999225616455,-0.8380117416381836,0.10463166236877441
1781799431447118300,32.60311840820312,0.8236026763916016,-0.20835399627685547,1.3754910230636597
1781799431495638800,32.651638671875,0.7197758555412292,0.35346508026123047,1.1174861192703247
1781799431544159000,32.700158935546874,0.22032922506332397,0.1090240478515625,-0.39254605770111084
1781799431592679400,32.74867944335937,-0.29780709743499756,-0.0642080307006836,-1.262459635734558
1781799431641199600,32.79719970703125,-0.4588925242424011,-0.36160850524902344,-1.6289317607879639
1781799431689719800,32.8457197265625,-0.21291375160217285,-0.18315601348876953,-0.8653361797332764
1781799431738240300,32.894240234375,-0.10082167387008667,0.06849002838134766,0.13948476314544678
1781799431786760400,32.94276049804687,0.16989517211914062,0.11966133117675781,0.36669862270355225
1781799431835281000,32.99128100585938,0.3791429400444031,0.11940574645996094,0.6692856550216675
1781799431883801000,33.039801025390624,0.2843188941478729,0.08015251159667969,0.3351994752883911
1781799431932321300,33.0883212890625,0.11005574464797974,-0.2535419464111328,-0.3177146911621094
1781799431980841500,33.136841552734374,0.6006220579147339,-0.051544189453125,-0.08171439170837402
1781799432029362000,33.18536181640625,0.6732639670372009,-0.21509552001953125,0.45547640323638916
1781799432077882000,33.233882080078125,0.05340909957885742,-0.18646907806396484,0.16916269063949585
1781799432126402600,33.28240258789062,-0.1680009365081787,0.058109283447265625,-0.26693451404571533
1781799432174922800,33.3309228515625,-0.010406553745269775,0.07961750030517578,-0.9451757669448853
1781799432223443200,33.37944311523437,0.2412746548652649,-0.22928619384765625,-0.1850113868713379
1781799432271963400,33.42796337890625,0.16079068183898926,0.11383533477783203,-0.47048139572143555
1781799432320483800,33.47648388671875,0.2442421317100525,0.09542274475097656,-0.6576833724975586
1781799432369004000,33.52500415039062,0.13431736826896667,-0.11727714538574219,0.051476478576660156
1781799432417524000,33.57352392578125,0.1850893497467041,-0.16817378997802734,0.7119990587234497
1781799432466044400,33.62204443359375,0.5541347861289978,-0.055210113525390625,0.7911953926086426
1781799432514564600,33.670564697265625,0.4759961664676666,0.1929931640625,0.618678092956543
1781799432563085000,33.7190849609375,0.14905154705047607,-0.02731800079345703,0.18253040313720703
1781799432611605200,33.767605224609376,0.22283202409744263,0.05383014678955078,-0.08621960878372192
1781799432660125700,33.816125732421874,0.23998934030532837,0.10138225555419922,-0.23530250787734985
1781799432708646000,33.86464599609375,0.3266603648662567,-0.1332416534423828,-0.08001691102981567
1781799432757166300,33.913166259765624,0.7605212926864624,0.05126953125,0.5687223076820374
1781799432805686500,33.9616865234375,0.5555546283721924,0.07118988037109375,0.8584859371185303
1781799432854207000,34.01020703125,0.2532684803009033,-0.18118572235107422,0.12034356594085693
1781799432902727000,34.05872680664063,0.1888790726661682,0.019378662109375,-0.8379745483398438
1781799432951247400,34.107247314453126,-0.05707031488418579,-0.18082904815673828,-0.9840241074562073
1781799432999767600,34.155767578125,-0.04889899492263794,-0.18569087982177734,-0.5736137628555298
1781799433048288000,34.2042880859375,0.2267225682735443,0.031719207763671875,0.20236188173294067
1781799433096808200,34.25280810546875,0.32765066623687744,0.0648794174194336,0.7396777868270874
1781799433145328600,34.30132861328125,0.2934117019176483,0.07383441925048828,0.4528476595878601
1781799433193848800,34.349848876953125,0.2016659379005432,0.03184318542480469,0.18368273973464966
1781799433242369000,34.398369140625,0.2463933229446411,0.010690689086914062,0.19142532348632812
1781799433290889500,34.446889404296876,0.34113961458206177,-0.11054706573486328,-0.008516013622283936
1781799433339409700,34.49540966796875,0.39653319120407104,-0.06811809539794922,-0.4395402669906616
1781799433387929900,34.543929931640626,0.25100648403167725,0.13746929168701172,-0.35555392503738403
1781799433436450000,34.59244995117187,0.08490657806396484,-0.061987876892089844,0.18254321813583374
1781799433484970500,34.64097045898438,-0.15764737129211426,0.018138885498046875,0.062429845333099365
1781799433533490700,34.68949072265625,0.2907422184944153,-0.11313152313232422,-0.08721268177032471
1781799433582011100,34.73801123046875,0.33087214827537537,0.02193164825439453,0.10001486539840698
1781799433630531300,34.78653125,0.38731950521469116,-0.048496246337890625,0.7551488280296326
1781799433679051800,34.8350517578125,0.2550492584705353,-0.018204689025878906,0.6660571098327637
1781799433727572000,34.883572021484376,0.15007799863815308,0.17263507843017578,-0.023651063442230225
1781799433776092200,34.93209204101562,-0.06984132528305054,0.0021867752075195312,-0.4138100743293762
1781799433824612400,34.9806123046875,-0.09150207042694092,-0.0020265579223632812,-0.6809836626052856
1781799433873132800,35.0291328125,0.12868839502334595,-0.04532909393310547,-0.17585021257400513
1781799433921653000,35.07765307617188,0.2954927384853363,-0.12816429138183594,0.4000382423400879
1781799433970173400,35.12617333984375,0.5492855310440063,-0.02955341339111328,0.3069474697113037
1781799434018693600,35.17469360351563,0.5506507754325867,0.2580385208129883,-0.14504903554916382
1781799434067213800,35.2232138671875,0.4146890640258789,-0.12021160125732422,-0.2751390337944031
1781799434115734000,35.27173413085937,0.2238987684249878,-0.0756845474243164,-0.39591267704963684
1781799434164254200,35.320254150390625,0.20008915662765503,-0.1273517608642578,-0.5144922733306885
1781799434212774700,35.36877465820312,0.1805000901222229,-0.09257888793945312,-0.6028395891189575
1781799434261294800,35.417294921875,0.2425594925880432,0.028883934020996094,-0.26376765966415405
1781799434309815300,35.46581518554687,0.2218959629535675,-0.03012847900390625,-0.008896231651306152
1781799434358335500,35.51433544921875,0.20285940170288086,0.04612255096435547,0.16762083768844604
1781799434406856000,35.56285595703125,0.10445195436477661,-0.0006151199340820312,0.2805365324020386
1781799434455376100,35.61137622070312,-0.12887877225875854,-0.07345104217529297,-0.33438676595687866
1781799434503896300,35.659896240234374,-0.15663427114486694,-0.047919273376464844,-1.1054977178573608
1781799434552416500,35.70841650390625,0.009921014308929443,0.01126861572265625,-0.7594219446182251
1781799434600937000,35.75693701171875,0.22166931629180908,0.07237625122070312,0.3441924452781677
1781799434649457200,35.80545703125,0.32846829295158386,-0.15261268615722656,0.9200727343559265
1781799434697977600,35.8539775390625,0.36141422390937805,0.1680889129638672,0.8691884279251099
1781799434746497800,35.90249780273437,0.37660643458366394,0.18373394012451172,0.5958670377731323
1781799434795017700,35.95101782226563,0.2281719446182251,0.07720565795898438,0.31183576583862305
1781799434843538200,35.9995380859375,0.16583913564682007,0.1570568084716797,0.02491140365600586
1781799434892058400,36.04805834960938,0.17017695307731628,-0.13224411010742188,0.09077215194702148
1781799434940578800,36.096578857421875,0.3425353765487671,-0.22222042083740234,0.38907861709594727
1781799434989099000,36.14509912109375,0.2387908697128296,-0.056214332580566406,0.3254976272583008
1781799435037619500,36.193619384765626,0.029393017292022705,-0.08054924011230469,-0.27314507961273193
1781799435086139600,36.2421396484375,-0.1841505765914917,0.031099319458007812,-0.44283217191696167
1781799435134659800,36.290659912109376,-0.21341174840927124,-0.07773780822753906,-0.41444963216781616
1781799435183180000,36.33917993164062,0.1617080569267273,-0.07751274108886719,0.13259202241897583
1781799435231700500,36.38770043945313,0.4850023090839386,0.09345245361328125,0.6514079570770264
1781799435280220700,36.436220703125,0.5469918251037598,0.16470718383789062,0.7244946956634521
1781799435328741000,36.4847412109375,0.34392502903938293,0.11893653869628906,0.45431554317474365
1781799435377261300,36.53326123046875,0.16978192329406738,-0.25858497619628906,-0.045473575592041016
1781799435425781500,36.58178149414063,0.15791070461273193,0.050197601318359375,-0.237859308719635
1781799435474301700,36.6303017578125,0.21734553575515747,-0.025882720947265625,0.17993402481079102
1781799435522822000,36.67882177734375,0.25223714113235474,-0.06549739837646484,0.40677130222320557
1781799435571342300,36.72734228515625,0.3042469918727875,-0.054762840270996094,0.18429231643676758
1781799435619862500,36.77586254882812,0.2987701892852783,-0.023593902587890625,0.01383596658706665
1781799435668382700,36.8243828125,0.28893032670021057,0.10567188262939453,0.261987566947937
1781799435716903000,36.87290283203125,0.23805510997772217,0.06546211242675781,0.3960863947868347
1781799435765423400,36.92142333984375,0.061325013637542725,0.16664600372314453,0.2599451541900635
1781799435813943600,36.969943603515624,-0.12368768453598022,-0.01877117156982422,-0.2526305913925171
1781799435862464000,37.01846411132812,-0.13541454076766968,-0.08314228057861328,-0.43803107738494873
1781799435910984200,37.066984130859375,-0.08706361055374146,-0.08401298522949219,-0.6172940731048584
1781799435959504400,37.11550439453125,0.038270413875579834,-0.06982803344726562,-0.18667566776275635
1781799436008024600,37.164024658203125,0.17506307363510132,-0.010277748107910156,0.3845314383506775
1781799436056545000,37.212544921875,0.2613341808319092,-0.04420948028564453,0.5954905152320862
1781799436105065200,37.261065185546876,0.31459301710128784,0.1054544448852539,0.597105860710144
1781799436153585700,37.309585693359374,0.35379576683044434,0.09854602813720703,0.4608328342437744
1781799436202105900,37.35810595703125,0.3959861993789673,0.009039878845214844,0.2230205535888672
1781799436250625800,37.40662573242187,0.4523298442363739,-0.09580802917480469,0.07883578538894653
1781799436299146200,37.45514624023438,0.3111807703971863,-0.01392364501953125,0.07034647464752197
1781799436347666400,37.50366650390625,0.08618545532226562,0.09500598907470703,-0.038262784481048584
1781799436396187000,37.55218676757813,-0.13721120357513428,-0.05138587951660156,-0.25188112258911133
1781799436444707000,37.60070703125,-0.22037190198898315,-0.02038860321044922,-0.4106411635875702
1781799436493227300,37.64922729492187,-0.18163436651229858,0.15282917022705078,-0.44236519932746887
1781799436541747500,37.69774755859375,-0.024809300899505615,-0.05457592010498047,-0.21991974115371704
1781799436590268000,37.74626782226562,0.11342871189117432,-0.06661033630371094,0.008204758167266846
1781799436638788000,37.7947880859375,0.2602437734603882,-0.044470787048339844,0.2044203281402588
1781799436687308500,37.84330859375,0.2710852324962616,-0.08417701721191406,0.34915268421173096
1781799436735828500,37.891828369140626,0.29568690061569214,0.047821998596191406,0.3865988254547119
1781799436784349000,37.940348876953124,0.2760910093784332,0.058508872985839844,0.3019641637802124
1781799436832869000,37.988869140625,0.22813907265663147,0.06264400482177734,0.2183992862701416
1781799436881389600,38.0373896484375,0.18713712692260742,-0.0049457550048828125,0.11250805854797363
1781799436929909800,38.08590966796875,0.12609511613845825,-0.03447914123535156,-0.012627840042114258
1781799436978429700,38.1344296875,0.05370664596557617,-0.03960704803466797,0.009329795837402344
1781799437026950100,38.1829501953125,0.0710153877735138,-0.0033960342407226562,-0.038090288639068604
1781799437075470300,38.23147021484375,0.07993674278259277,-0.0063114166259765625,-0.09557616710662842
1781799437123990800,38.27999072265625,0.06171092391014099,-0.0027217864990234375,-0.13507682085037231
1781799437172511000,38.328510986328126,0.06891947984695435,0.028037071228027344,-0.14750009775161743
1781799437221031200,38.37703125,0.03434920310974121,-0.021625518798828125,-0.08370387554168701
1781799437269551400,38.42555126953125,0.05085545778274536,-0.022861480712890625,-0.007741570472717285
1781799437318071800,38.47407177734375,0.057387590408325195,0.029497146606445312,0.07537966966629028
1781799437366592000,38.52259204101563,0.07595288753509521,0.015142440795898438,0.11337524652481079
1781799437415112200,38.5711123046875,0.09396860003471375,0.047524452209472656,0.09198296070098877
1781799437463632400,38.61963232421875,0.07527884840965271,-0.018111228942871094,0.038945674896240234
1781799437512152800,38.66815283203125,0.07190024852752686,-0.034134864807128906,-0.011677384376525879
1781799437560673000,38.71667309570312,0.05023068189620972,-0.060204505920410156,-0.02496349811553955
1781799437609193500,38.765193359375,0.042105138301849365,-0.02067852020263672,-0.007339119911193848
1781799437657713400,38.81371337890625,0.04019397497177124,0.02332019805908203,-0.034503042697906494
1781799437706233900,38.86223388671875,0.07931101322174072,0.03859519958496094,0.002228260040283203
1781799437754754000,38.91075415039062,0.08078247308731079,0.03995037078857422,0.028513431549072266
1781799437803274200,38.959274169921876,0.08087801933288574,-0.0028867721557617188,-0.01264965534210205
1781799437851794700,39.007794677734374,0.10365796089172363,0.014779090881347656,0.02831554412841797
1781799437900314600,39.05631469726563,0.11347630620002747,0.015522003173828125,0.026499509811401367
1781799437948835000,39.1048349609375,0.09857681393623352,-0.024954795837402344,0.03754013776779175
1781799437997355300,39.15335522460938,0.1118435263633728,-0.04405498504638672,0.025223851203918457
1781799438045875700,39.201875732421875,0.10769510269165039,-0.009754180908203125,-0.005659282207489014
1781799438094395600,39.25039575195313,0.11182206869125366,0.024092674255371094,-0.0533791184425354
1781799438142916000,39.298916015625,0.11754843592643738,-0.02437114715576172,-0.026169657707214355
1781799438191436300,39.34743627929687,0.0923011302947998,-0.02179718017578125,-0.014420926570892334
1781799438239956700,39.39595678710938,0.0701526403427124,-0.005610466003417969,0.008472859859466553
1781799438288476700,39.4444765625,0.07444566488265991,0.02660369873046875,0.03684961795806885
1781799438336997000,39.4929970703125,0.09378305077552795,0.017167091369628906,0.031332314014434814
1781799438385517300,39.54151733398437,0.04494631290435791,0.016765594482421875,0.01737111806869507
1781799438482558000,39.638557861328124,0.012421071529388428,-0.04562854766845703,0.022739946842193604
1781799438531078000,39.68707788085938,0.02523326873779297,0.0272674560546875,0.02435171604156494
1781799438579598300,39.735598388671875,0.04296642541885376,0.014245033264160156,-0.036120057106018066
1781799438628118500,39.78411840820313,0.06919306516647339,-0.03271770477294922,-0.07228505611419678
1781799438676639000,39.832638916015625,0.07221841812133789,0.007913589477539062,-0.07778632640838623
1781799438725159000,39.88115893554688,0.06737023591995239,-0.0000476837158203125,-0.027605652809143066
1781799438773679400,39.929679443359376,0.050060927867889404,-0.015347480773925781,-0.0012688636779785156
1781799438822199600,39.97819946289062,0.04931604862213135,0.0027742385864257812,0.015406608581542969
1781799438870720000,40.02671997070313,0.032734036445617676,-0.015007972717285156,0.0052887797355651855
1781799438919240000,40.07523999023437,0.05105459690093994,-0.017548561096191406,-0.026928484439849854
1781799438967760400,40.12376049804688,0.07408422231674194,0.0058841705322265625,-0.003054201602935791
1781799439016280600,40.17228051757812,0.07430386543273926,-0.002841949462890625,-0.02099233865737915
1781799439064801000,40.22080102539063,0.05270063877105713,-0.01136016845703125,-0.03855985403060913
1781799439113321000,40.269321044921874,0.04920756816864014,0.0036268234252929688,-0.008075892925262451
1781799439161841400,40.31784130859375,0.06978750228881836,0.0047206878662109375,0.012186408042907715
1781799439210361600,40.366361572265625,0.07792222499847412,0.007857322692871094,0.03877735137939453
1781799439258881800,40.4148818359375,0.06616419553756714,-0.0032596588134765625,0.05143845081329346
1781799439307402000,40.463402099609375,0.07252299785614014,0.014985084533691406,0.0029627084732055664
1781799439355922200,40.51192211914063,0.05079931020736694,0.011616706848144531,-0.025399625301361084
1781799439404442600,40.560442626953126,0.04100269079208374,-0.026519775390625,-0.03517329692840576
1781799439452962800,40.608962890625,0.040656864643096924,-0.013269424438476562,0.001221776008605957
1781799439501483000,40.65748291015625,0.04850202798843384,-0.004689216613769531,-0.014467418193817139
1781799439550003200,40.70600317382812,0.0803079605102539,0.015976905822753906,-0.025046586990356445
1781799439598523600,40.75452368164063,0.06401318311691284,-0.009070396423339844,-0.004471838474273682
1781799439647043800,40.8030439453125,0.0656690001487732,0.00043392181396484375,-0.0024045705795288086
1781799439695564000,40.85156396484375,0.043591201305389404,-0.008927345275878906,-0.026656031608581543
1781799439744084200,40.900084228515624,0.029396533966064453,0.007023811340332031,-0.03836888074874878
1781799439792604700,40.94860473632812,0.025843322277069092,0.0003452301025390625,-0.09368956089019775
1781799439841124900,40.997124755859375,0.016348183155059814,-0.028730392456054688,-0.05188065767288208
1781799439889644800,41.04564477539063,0.03498584032058716,-0.01480865478515625,-0.028617143630981445
1781799439938165200,41.094165283203125,0.10247248411178589,0.01677989959716797,0.046347081661224365
1781799439986685400,41.142685546875,0.14211004972457886,0.0040302276611328125,0.11917775869369507
1781799440035205600,41.19120556640625,0.17025268077850342,-0.010079383850097656,0.1822507381439209
1781799440083725800,41.23972583007812,0.16869089007377625,0.0080718994140625,0.1639089584350586
1781799440132246300,41.28824633789063,0.14159831404685974,-0.013888359069824219,0.0830458402633667
1781799440180766500,41.33676635742187,0.13392099738121033,-0.022062301635742188,0.007049441337585449
1781799440229286700,41.38528662109375,0.12908411026000977,-0.012747764587402344,-0.017712652683258057
1781799440277806800,41.43380688476562,0.08031699061393738,-0.018462181091308594,-0.06422770023345947
1781799440326327300,41.48232739257813,0.025587618350982666,-0.019280433654785156,-0.08306503295898438
1781799440374847500,41.530847412109374,0.023215115070343018,0.01824188232421875,-0.06073498725891113
1781799440423367700,41.57936767578125,-0.045252084732055664,-0.022226333618164062,-0.08627784252166748
1781799440471888000,41.627887939453124,-0.019273996353149414,-0.011269569396972656,-0.10070323944091797
1781799440520408300,41.676408203125,-0.05746781826019287,0.006072998046875,-0.03539478778839111
1781799440568928300,41.72492822265625,-0.019879400730133057,0.02012157440185547,-0.04595756530761719
1781799440617448400,41.77344848632813,-0.0046506524085998535,0.013338088989257812,-0.08650213479995728
1781799440665969000,41.821968994140626,0.031438469886779785,-0.02432537078857422,-0.04371285438537598
1781799440714489000,41.87048901367187,0.10844987630844116,-0.03497886657714844,0.02869337797164917
1781799440763009300,41.91900927734375,0.14919376373291016,0.0215606689453125,0.12841153144836426
1781799440811529500,41.96752954101562,0.18761548399925232,-0.0059833526611328125,0.13660293817520142
1781799440860050000,42.0160498046875,0.18203166127204895,0.03303718566894531,0.08503067493438721
1781799440908569900,42.06456982421875,0.1382727324962616,-0.01686382293701172,0.007407546043395996
1781799440957090300,42.11309033203125,0.08739864826202393,-0.013306617736816406,0.0037839412689208984
1781799441005610500,42.161610595703124,0.0640142560005188,0.011128425598144531,-0.016265690326690674
1781799441054131000,42.210130859375,0.06064176559448242,0.01662921905517578,-0.018166542053222656
1781799441102651000,42.25865087890625,0.028604209423065186,-0.02844524383544922,0.013324379920959473
1781799441151171300,42.30717138671875,0.019609808921813965,-0.030732154846191406,-0.029495418071746826
1781799441199691500,42.35569140625,0.01968139410018921,-0.006771087646484375,-0.11259210109710693
1781799441248211700,42.40421166992188,-0.007709920406341553,0.01569080352783203,-0.1044543981552124
1781799441296732000,42.45273193359375,0.011663198471069336,-0.02303600311279297,-0.1438937783241272
1781799441345252000,42.50125219726562,0.013007521629333496,-0.009457588195800781,-0.0685732364654541
1781799441393772300,42.549772216796875,0.024395346641540527,-0.007513999938964844,-0.0035692453384399414
1781799441442292500,42.59829248046875,0.045104265213012695,-0.0023202896118164062,0.007899463176727295
1781799441490813000,42.64681298828125,0.07745176553726196,0.019196510314941406,0.030178368091583252
1781799441539333000,42.6953330078125,0.07866042852401733,-0.011605262756347656,0.031098783016204834
1781799441587853300,42.743853271484376,0.09060502052307129,0.033050537109375,0.007797062397003174
1781799441636373500,42.79237353515625,0.09526407718658447,-0.009813308715820312,0.023982763290405273
1781799441684894000,42.84089404296875,0.09199035167694092,-0.007840156555175781,0.06512343883514404
1781799441733414000,42.88941381835937,0.06810373067855835,-0.01952648162841797,0.01305079460144043
1781799441781934300,42.93793432617188,0.05716794729232788,-0.013751029968261719,0.020720303058624268
1781799441830454500,42.98645458984375,0.07135337591171265,-0.009267807006835938,-0.01055687665939331
1781799441878974700,43.034974609375,0.06859129667282104,0.00020885467529296875,-0.011333703994750977
1781799441927495000,43.083494873046874,0.0790407657623291,-0.010852813720703125,-0.02179199457168579
1781799441976015400,43.13201538085937,0.0745842456817627,-0.0035572052001953125,0.00057220458984375
1781799442024535600,43.18053564453125,0.07190722227096558,0.0040683746337890625,0.004984378814697266
1781799442073055500,43.22905541992188,0.0704454779624939,-0.004416465759277344,0.008139848709106445
1781799442121576000,43.277575927734375,0.06992608308792114,-0.008581161499023438,-0.01438760757446289
1781799442170096000,43.32609619140625,0.06991106271743774,-0.006669044494628906,-0.009305119514465332
1781799442218616300,43.3746162109375,0.05695599317550659,0.016529083251953125,0.010124802589416504
1781799442267136500,43.42313647460937,0.03182035684585571,-0.022368431091308594,-0.01006770133972168
1781799442315657000,43.47165698242188,0.06257915496826172,0.002750396728515625,0.0042067766189575195
1781799442364177000,43.52017700195312,0.061215102672576904,0.002147674560546875,0.0015635490417480469
1781799442412697300,43.568697265625,0.05890780687332153,-0.0015974044799804688,0.0066225528717041016
1781799442461217500,43.61721752929687,0.06520414352416992,-0.008944511413574219,-0.020180106163024902
1781799442509737700,43.66573779296875,0.052156269550323486,-0.002933502197265625,-0.01228487491607666
1781799442558258000,43.7142578125,0.0584140419960022,0.001789093017578125,-0.0005998611450195312
1781799442606778400,43.7627783203125,0.06385546922683716,-0.009294509887695312,-0.023673415184020996
1781799442655298300,43.81129833984375,0.06883382797241211,-0.007527351379394531,0.016898036003112793
1781799442703818800,43.85981884765625,0.07167381048202515,-0.018192291259765625,0.006344199180603027
1781799442752339000,43.9083388671875,0.0687200129032135,-0.01917743682861328,-0.014401912689208984
1781799442800859000,43.95685888671875,0.07674577832221985,-0.0010833740234375,0.004731178283691406
1781799442849379300,44.00537939453125,0.07933712005615234,0.00037288665771484375,-0.02451789379119873
1781799442897899500,44.0538994140625,0.0684782862663269,-0.0021009445190429688,0.009873390197753906
1781799442946419700,44.102419677734375,0.08222609758377075,0.0013380050659179688,0.01922619342803955
1781799442994940000,44.15093994140625,0.07645851373672485,-0.015222549438476562,-0.010944843292236328
1781799443043460400,44.19946044921875,0.06541287899017334,-0.005036354064941406,0.0036913156509399414
1781799443091980300,44.24798022460938,0.06520962715148926,-0.012364387512207031,-0.012763738632202148
1781799443140500700,44.296500732421876,0.08338937163352966,0.00762176513671875,-0.0072203874588012695
1781799443189021000,44.34502099609375,0.06495344638824463,0.0034694671630859375,-0.0019530057907104492
1781799443237541000,44.393541015625,0.07232242822647095,-0.021744728088378906,0.0014456510543823242
1781799443286061300,44.44206127929687,0.05527830123901367,-0.00756072998046875,0.002398967742919922
1781799443334581800,44.49058178710938,0.054088294506073,-0.002532958984375,-0.005075573921203613
1781799443383101700,44.53910180664062,0.05900615453720093,-0.012429237365722656,-0.01438295841217041
1781799443431622000,44.587621826171876,0.08641985058784485,0.013957977294921875,0.0006988048553466797
1781799443480142300,44.636142333984374,0.07559823989868164,-0.03668689727783203,-0.03658097982406616
1781799443528662300,44.68466235351563,0.11095297336578369,-0.0012445449829101562,-0.019997596740722656
1781799443577182700,44.7331826171875,0.13240176439285278,0.006740570068359375,-0.03402912616729736
1781799443625703000,44.78170288085938,0.11293196678161621,-0.01571941375732422,0.07374095916748047
1781799443674223000,44.83022314453125,0.10467523336410522,0.01342010498046875,0.021254777908325195
1781799443722743300,44.87874340820313,0.08130437135696411,-0.012548446655273438,-0.012325644493103027
1781799443771263700,44.927263671875,0.060520052909851074,-0.01763439178466797,-0.0005598068237304688
1781799443819783700,44.97578369140625,0.07301890850067139,-0.01318359375,-0.028187155723571777
1781799443868304100,45.02430419921875,0.08345484733581543,-0.000537872314453125,-0.025674104690551758
1781799443916824300,45.07282421875,0.0860479474067688,0.007033348083496094,0.010840296745300293
1781799443965344500,45.121344482421875,0.08515268564224243,-0.01534271240234375,0.03596031665802002
1781799444013864700,45.16986474609375,0.08348780870437622,-0.007201194763183594,0.005083441734313965
1781799444062385200,45.21838525390625,0.10501527786254883,-0.00879669189453125,-0.0224074125289917
1781799444110905000,45.26690502929687,0.10816818475723267,-0.017259597778320312,0.0009452700614929199
1781799444159425300,45.31542529296875,0.12328493595123291,-0.009430885314941406,0.025676071643829346
1781799444207945700,45.36394580078125,0.15146607160568237,-0.028289794921875,0.05927520990371704
1781799444256465700,45.412465576171876,0.21970045566558838,-0.02284526824951172,0.03477287292480469
1781799444304986000,45.46098608398437,0.11577743291854858,-0.06035327911376953,-0.05734127759933472
1781799444353506300,45.50950634765625,0.11621850728988647,-0.0664825439453125,-0.059051454067230225
1781799444402026500,45.558026611328124,0.1396297812461853,0.14173412322998047,-0.03998684883117676
1781799444450546700,45.60654663085938,0.22279882431030273,0.3949899673461914,0.128243088722229
1781799444499067100,45.655067138671875,-0.0536879301071167,0.632080078125,0.06468987464904785
1781799444547587000,45.70358715820313,-0.23756909370422363,0.3222074508666992,-0.5724650621414185
1781799444596107500,45.752107421875,-0.18608400225639343,-0.11477088928222656,-0.30903637409210205
1781799444644627700,45.80062768554688,-0.6125422716140747,-1.8996973037719727,0.663259744644165
1781799444693148000,45.84914794921875,-0.47366729378700256,-0.4411773681640625,1.1617878675460815
1781799444741668000,45.89766821289062,0.6565265655517578,0.09033870697021484,1.029505968093872
1781799444790188500,45.9461884765625,-0.10860782861709595,-0.30006885528564453,0.25363636016845703
1781799444838708500,45.99470849609375,0.9323961734771729,0.42423152923583984,-0.020144224166870117
1781799444887228700,46.043228759765626,1.1005138158798218,1.3820295333862305,0.6217219829559326
1781799444935748900,46.09174877929688,1.431825876235962,1.5730829238891602,1.1675219535827637
1781799444984269000,46.14026904296875,1.4873162508010864,1.4116630554199219,1.3018914461135864
1781799445032789500,46.18878955078125,1.7524611949920654,1.204817771911621,2.3404712677001953
1781799445081309400,46.237309326171875,0.9516411423683167,-0.8367538452148438,3.4095630645751953
1781799445129830000,46.28582983398437,-0.11161134392023087,-4.8585405349731445,2.838939666748047
1781799445178350000,46.33435009765625,0.32358691096305847,-0.21837711334228516,0.6702826023101807
1781799445226870300,46.38287036132812,0.18680624663829803,0.8978300094604492,-1.8399091958999634
1781799445275390500,46.431390380859376,-0.30390724539756775,-1.3844633102416992,0.031351685523986816
1781799445323911000,46.479910888671874,-0.202635258436203,-0.28382110595703125,0.044149041175842285
1781799445372430800,46.52843090820313,0.2508160471916199,0.6870527267456055,-0.8741207718849182
1781799445420951300,46.576951416015625,0.5294259786605835,0.9575939178466797,-1.1915416717529297
1781799445469471500,46.62547143554688,0.6765714883804321,1.099508285522461,-1.5375730991363525
1781799445517991400,46.673991455078124,1.2766764163970947,0.3571786880493164,-0.22469490766525269
1781799445566511900,46.72251196289063,2.52215838432312,-0.4669675827026367,1.0655124187469482
1781799445615031800,46.77103173828125,3.739870548248291,0.49416065216064453,0.8038439750671387
1781799445663552300,46.81955224609375,4.268648624420166,0.8709497451782227,-0.33089160919189453
1781799445712072400,46.868072509765625,3.216525077819824,-3.310153007507324,-0.7181829214096069
1781799445760592600,46.91659252929688,0.920337975025177,0.17285823822021484,1.6994554996490479
1781799445809112800,46.96511279296875,-1.319565773010254,3.4447999000549316,0.8505284190177917
1781799445857633000,47.01363305664062,-4.011754035949707,-4.524478912353516,-1.797330617904663
1781799445906153200,47.0621533203125,-5.871413707733154,-5.672695159912109,-2.73294997215271
1781799445954673700,47.11067358398437,-2.276848077774048,-0.7278423309326172,2.954130172729492
1781799446003193600,47.159193603515625,-0.9645615816116333,1.627614974975586,1.3663623332977295
1781799446051714000,47.20771411132812,-0.6699827313423157,2.377021312713623,-2.4471516609191895
1781799446100234200,47.256234130859376,0.602041482925415,3.6802778244018555,-1.704494833946228
1781799446148754200,47.30475415039062,1.4011832475662231,3.8133249282836914,-0.6085597276687622
1781799446197274600,47.35327465820313,2.5113413333892822,2.8694114685058594,1.6167106628417969
1781799446245794600,47.40179467773437,1.1095932722091675,-2.0487537384033203,3.9308652877807617
1781799446294315000,47.45031494140625,-0.7264500856399536,-5.539650917053223,5.2821502685546875
1781799446342835200,47.49883520507812,-2.1276633739471436,-1.9798774719238281,-1.539016842842102
1781799446391355400,47.54735546875,-0.8364399671554565,-1.9360904693603516,-6.749241352081299
1781799446439875600,47.59587548828125,-2.0283660888671875,-3.927145004272461,0.2637413740158081
1781799446488396000,47.64439599609375,-0.47624683380126953,-1.092738151550293,-3.0623703002929688
1781799446536916000,47.692916015625,1.6203076839447021,2.426602363586426,-3.812551736831665
1781799446585436400,47.7414365234375,0.5405630469322205,2.077848434448242,-1.1017966270446777
1781799446633956400,47.78995629882812,1.0200903415679932,0.6699438095092773,-0.1879117488861084
1781799446682476800,47.83847680664063,1.9463818073272705,-0.32768726348876953,1.7462701797485352
1781799446730997000,47.8869970703125,3.141866683959961,0.16474342346191406,1.9582793712615967
1781799446779517200,47.93551708984375,4.026383399963379,1.4847650527954102,-0.5855592489242554
1781799446828037400,47.984037353515625,3.961735963821411,-1.0670166015625,-2.00077223777771
1781799446876557300,48.03255737304688,1.3718444108963013,-1.7919559478759766,0.3424098491668701
1781799446925077800,48.081077880859375,-1.1540900468826294,2.4160032272338867,2.521301031112671
1781799446973598000,48.12959790039063,-2.927647352218628,-2.297830581665039,-0.17234665155410767
1781799447022118100,48.1781181640625,-5.194421768188477,-6.103228569030762,-1.7040603160858154
1781799447070638300,48.22663842773437,-3.116955041885376,-1.236861228942871,2.84285044670105
1781799447119158500,48.275158447265625,-0.6293385028839111,1.083287239074707,0.6447417736053467
1781799447167678700,48.3236787109375,-0.7404595613479614,2.261298656463623,-1.828518271446228
1781799447216199200,48.37219921875,0.03471261262893677,2.7928967475891113,-1.2603384256362915
1781799447264719000,48.42071899414063,1.2914637327194214,3.335315704345703,-1.0689634084701538
1781799447313239600,48.469239501953126,2.185783624649048,3.64334774017334,0.6900900602340698
1781799447361759500,48.51775952148437,2.184986114501953,0.3409385681152344,2.945251941680908
1781799447410280000,48.56628002929688,0.6313077807426453,-6.818984031677246,3.2690088748931885
1781799447458800000,48.61480004882812,-0.6079654693603516,-2.1205577850341797,1.8635532855987549
1781799447507320000,48.663320068359376,-2.2034733295440674,-1.6307010650634766,-3.669293165206909
1781799447555840500,48.71184057617187,-1.8234045505523682,-2.067288398742676,-5.129727363586426
1781799447604360400,48.7603603515625,-0.8107790350914001,-2.21402645111084,-0.43909573554992676
1781799447652881000,48.808880859375,0.5677205920219421,1.1909408569335938,-3.0367863178253174
1781799447701401000,48.85740112304688,1.5321097373962402,2.405374050140381,-1.3018803596496582
1781799447749921300,48.90592138671875,1.1465609073638916,1.8710598945617676,0.5398909449577332
1781799447798441500,48.95444140625,1.2198067903518677,-0.142181396484375,1.2407481670379639
1781799447846961700,49.00296166992187,2.4315478801727295,-0.5241432189941406,1.6048181056976318
1781799447895481900,49.05148193359375,4.030585765838623,2.2258615493774414,1.124210000038147
1781799447944002300,49.100002197265624,3.698486089706421,0.6031017303466797,-2.310997486114502
1781799447992522200,49.14852221679688,1.6890894174575806,-4.410897254943848,-0.5992351770401001
1781799448041042700,49.197042724609375,0.09153622388839722,2.618009567260742,2.402371883392334
1781799448089562600,49.24556274414063,-2.1847853660583496,0.38358497619628906,-0.23021060228347778
1781799448138083000,49.2940830078125,-5.184442043304443,-8.446160316467285,-1.9580953121185303
1781799448186603000,49.34260302734375,-4.667742729187012,-2.1305580139160156,3.3417158126831055
1781799448235123200,49.391123291015624,-0.12663179636001587,1.7244315147399902,0.8573567867279053
1781799448283643600,49.4396435546875,-0.5336545705795288,2.186405658721924,-2.4611809253692627
1781799448332163600,49.48816357421875,-0.23416206240653992,3.477786064147949,-1.4425255060195923
1781799448380684000,49.53668408203125,1.1464345455169678,3.4847750663757324,-0.18094408512115479
1781799448429204000,49.585203857421874,2.851735830307007,3.4443235397338867,1.8822789192199707
1781799448477724400,49.63372436523437,2.553243398666382,-0.43497276306152344,4.201700687408447
1781799448526244600,49.68224462890625,-1.1565189361572266,-7.86225700378418,4.9973578453063965
1781799448574764800,49.73076489257812,-1.6409454345703125,-2.829339027404785,-0.985491931438446
1781799448623285000,49.779284912109375,-2.4350709915161133,-0.4189939498901367,-5.371484756469727
1781799448671805200,49.82780517578125,-1.5180044174194336,-3.322382926940918,-1.7380397319793701
1781799448720325400,49.876325439453126,0.08792175352573395,0.7567024230957031,-1.271270990371704
1781799448768845800,49.924845703125,1.736088514328003,2.84208345413208,-2.368666887283325
1781799448817365800,49.97336572265625,0.61118483543396,1.9994406700134277,-0.528584897518158
1781799448865886000,50.02188598632812,1.6327011585235596,0.9123573303222656,1.612152338027954
1781799448914406100,50.07040625,1.4706507921218872,-0.34185123443603516,2.6161913871765137
1781799448962926300,50.11892626953125,2.9260525703430176,0.25661182403564453,1.5056360960006714
1781799449011446500,50.167446533203126,4.224323272705078,0.6818008422851562,0.6404802799224854
1781799449059966700,50.215966796875,1.9382227659225464,-2.5304946899414062,-2.057802677154541
1781799449108487200,50.26448706054688,2.079793691635132,1.4606008529663086,0.7850358486175537
1781799449157007000,50.31300708007812,-0.6683089733123779,1.1601829528808594,2.7455334663391113
1781799449205527600,50.36152758789063,-4.670454978942871,-7.308980941772461,-1.7610933780670166
1781799449254047500,50.41004760742187,-5.16883659362793,-4.414447784423828,-1.5280144214630127
1781799449302568000,50.45856787109375,-0.9927430748939514,0.9996833801269531,1.3761403560638428
1781799449351087900,50.507087890625,-1.236914873123169,2.823707103729248,-1.848526954650879
1781799449399608300,50.5556083984375,0.2841789424419403,4.83534049987793,-3.3288540840148926
1781799449448128500,50.60412841796875,0.7538106441497803,4.1683735847473145,-1.416145920753479
1781799449496648400,50.6526484375,2.344879388809204,2.547630786895752,1.787795066833496
1781799449545169000,50.7011689453125,2.0827009677886963,-1.4374275207519531,5.406685829162598
1781799449593688800,50.749688720703126,0.6318356394767761,-6.0299882888793945,4.637446403503418
1781799449642209300,50.798209228515624,-1.9925270080566406,-1.183476448059082,-0.0763087272644043
1781799449690729200,50.84672924804688,-1.1777570247650146,-4.124575614929199,-8.835360527038574
1781799449739249700,50.895249755859375,-1.8214120864868164,-2.2002735137939453,-0.9203511476516724
1781799449787769900,50.94376977539063,-0.15432679653167725,-0.6924476623535156,-1.1520425081253052
1781799449836290000,50.9922900390625,1.724088430404663,2.6197242736816406,-2.869016170501709
1781799449884810200,51.04081030273438,1.7142963409423828,3.298172950744629,-0.2640289068222046
1781799449933330400,51.089330322265624,1.4691698551177979,1.4701499938964844,0.25372743606567383
1781799449981850600,51.1378505859375,1.6761952638626099,-1.328709602355957,1.5882505178451538
1781799450030370800,51.186370849609375,3.6073553562164307,0.7718238830566406,1.284368872642517
1781799450078891000,51.23489111328125,4.502335071563721,1.0700254440307617,-1.102415680885315
1781799450127411200,51.2834111328125,2.3830747604370117,-4.071610450744629,-3.5014588832855225
1781799450175931400,51.33193139648437,-0.047819674015045166,2.6903109550476074,2.6300230026245117
1781799450224451600,51.38045166015625,-2.5264554023742676,-1.6014204025268555,1.6977589130401611
1781799450272971800,51.4289716796875,-5.984145164489746,-8.21480941772461,-2.8336052894592285
1781799450321492000,51.477491943359375,-3.6735317707061768,-1.2612590789794922,1.3526434898376465
1781799450370012200,51.52601220703125,-0.6009722352027893,1.5584735870361328,0.20986509323120117
1781799450418532400,51.574532470703126,-1.3725879192352295,2.3314037322998047,-2.732042074203491
1781799450467052500,51.62305249023437,-0.06248462200164795,3.749331474304199,-2.8988397121429443
1781799450515572700,51.67157275390625,1.3812239170074463,3.8892531394958496,-0.9204926490783691
1781799450564093200,51.72009326171875,2.769591808319092,3.320455551147461,2.18882155418396
1781799450612613000,51.768613037109375,1.7666491270065308,-1.9878807067871094,4.381853103637695
1781799450661133600,51.81713354492187,-0.13577914237976074,-5.902143478393555,5.296934127807617
1781799450709653500,51.865653564453126,-1.5257742404937744,-0.49771976470947266,-0.9118936061859131
1781799450758174000,51.914174072265624,-2.041294574737549,-4.471616744995117,-7.0511980056762695
1781799450806694000,51.96269384765625,-1.284799575805664,-0.7144479751586914,-1.1238733530044556
1781799450855214000,52.01121411132812,-0.24351048469543457,0.4060392379760742,-3.0001988410949707
1781799450903734300,52.059734375,1.1744364500045776,1.6520071029663086,-3.0068960189819336
1781799450952254500,52.10825439453125,1.7791285514831543,1.8678169250488281,0.24205970764160156
1781799451000774700,52.156774658203126,1.242224931716919,0.6770610809326172,1.2276382446289062
1781799451049294800,52.205294921875,1.2289252281188965,-0.8937921524047852,2.217329263687134
1781799451097815300,52.25381518554688,2.71921968460083,0.4801206588745117,0.8824225664138794
1781799451146335200,52.30233520507812,4.104436874389648,1.338963508605957,-1.691447377204895
1781799451194855700,52.35085571289063,3.3982648849487305,-3.0723466873168945,-2.2944512367248535
1781799451243375600,52.39937573242187,1.3434070348739624,1.708648681640625,1.3411211967468262
1781799451291896000,52.44789599609375,-0.611150324344635,2.388636589050293,2.519519329071045
1781799451340416000,52.496416015625,-5.157247543334961,-8.417112350463867,-1.9267785549163818
1781799451388936400,52.5449365234375,-5.672491073608398,-3.623994827270508,-0.3153543472290039
1781799451437456400,52.59345629882812,-1.0462212562561035,0.843419075012207,1.9116873741149902
1781799451485976600,52.6419765625,-0.8637634515762329,2.7388839721679688,-1.5818862915039062
1781799451534496800,52.690496826171874,-0.1187623143196106,3.4301915168762207,-3.2156143188476562
1781799451583017000,52.73901684570313,1.2383410930633545,3.814086437225342,-1.5929930210113525
1781799451631537400,52.787537353515624,2.6733345985412598,3.349289894104004,2.2136857509613037
1781799451680057300,52.83605737304688,1.8826733827590942,-0.517430305480957,5.39101505279541
1781799451728577800,52.884577880859375,0.2504274547100067,-6.788579940795898,4.876194953918457
1781799451777097700,52.93309765625,-1.660165548324585,-0.24922657012939453,-0.07783246040344238
1781799451825618200,52.9816181640625,-0.40051794052124023,-3.4244794845581055,-6.770514488220215
1781799451874138000,53.03013818359375,-3.3085577487945557,-2.920071601867676,-0.8690245151519775
1781799451922658600,53.078658447265624,0.6661720275878906,0.09869575500488281,-2.5040829181671143
1781799451971178500,53.12717846679688,0.8347461819648743,0.9617090225219727,-4.9134063720703125
1781799452019699000,53.175698974609375,1.9089751243591309,2.4591798782348633,-1.3351235389709473
1781799452068219000,53.22421899414063,2.15189528465271,1.4216318130493164,0.8738833665847778
1781799452116739000,53.272739013671874,1.1876742839813232,-0.7542352676391602,1.8990298509597778
1781799452165259300,53.32125927734375,2.7084319591522217,0.5489425659179688,1.8380972146987915
1781799452213779500,53.369779541015625,4.0123372077941895,1.663682460784912,-0.35408687591552734
1781799452262299600,53.41829956054688,3.414205312728882,-3.2732181549072266,-3.293802261352539
1781799452310819800,53.46681982421875,1.0628787279129028,1.980733871459961,1.030724048614502
1781799452359340300,53.51534033203125,-1.6453869342803955,-0.34476184844970703,2.9266090393066406
1781799452407860200,53.563860107421874,-5.732460021972656,-8.322803497314453,-2.4005253314971924
1781799452456380700,53.61238061523437,-4.3065032958984375,-2.966752052307129,0.3199300765991211
1781799452504900600,53.660900634765625,-1.0153167247772217,1.1887626647949219,1.2269420623779297
1781799452553421000,53.70942114257812,-0.6547589302062988,2.5199384689331055,-2.590444564819336
1781799452601941000,53.75794091796875,0.58591628074646,4.211880683898926,-3.4593420028686523
1781799452650461400,53.80646142578125,1.558182954788208,3.968161106109619,-1.6319737434387207
1781799452698981400,53.8549814453125,2.379650831222534,3.3569517135620117,2.1846437454223633
1781799452747501800,53.90350170898437,1.6034448146820068,-2.1930665969848633,4.565499305725098
1781799452796021800,53.952021728515625,-0.0031048059463500977,-6.736237525939941,4.845635414123535
1781799452844542000,54.0005419921875,-1.5984318256378174,-1.3840398788452148,0.01639413833618164
1781799452893062100,54.049062255859376,-0.6551520824432373,-1.260920524597168,-7.420246124267578
1781799452941582300,54.09758227539062,-1.5655786991119385,-2.743589401245117,-1.5980250835418701
1781799452990102500,54.1461025390625,-0.4797678291797638,-0.5658893585205078,-0.7305114269256592
1781799453038622700,54.19462280273437,2.0475854873657227,2.374795436859131,-2.964712619781494
1781799453087143000,54.243142822265625,1.5461333990097046,2.6123743057250977,-0.812112033367157
1781799453135663000,54.2916630859375,1.6356196403503418,0.9165821075439453,0.7234902381896973
1781799453184183600,54.34018359375,1.3319487571716309,-0.8007841110229492,1.0884532928466797
1781799453232703500,54.38870336914062,3.481031894683838,0.6518440246582031,0.5224900245666504
1781799453281224000,54.43722387695313,4.426433563232422,1.0712823867797852,-1.2501204013824463
1781799453329744000,54.48574389648437,3.359684705734253,-1.7704448699951172,-2.180142879486084
1781799453378264300,54.53426440429688,0.1633104681968689,2.031994342803955,2.6532740592956543
1781799453426784300,54.5827841796875,-3.0994954109191895,-1.7386178970336914,1.6328747272491455
1781799453475304400,54.631304443359376,-5.899600028991699,-8.706430435180664,-3.0622594356536865
1781799453523824600,54.67982470703125,-4.005890369415283,-1.8171567916870117,2.188962936401367
1781799453572344800,54.7283447265625,-0.8193131685256958,1.7706232070922852,0.7539019584655762
1781799453620865000,54.77686499023437,-0.4756343960762024,2.7515869140625,-2.6562962532043457
1781799453669385200,54.82538525390625,0.3636036813259125,4.277014255523682,-2.2842228412628174
1781799453717905400,54.87390551757812,1.7625441551208496,4.286611557006836,-0.4253230094909668
1781799453766425600,54.922425537109376,2.71288800239563,3.20401668548584,3.445780038833618
1781799453814945800,54.97094580078125,0.8349466919898987,-5.5448760986328125,4.800654888153076
1781799453863466000,55.01946606445313,-1.939426302909851,-5.06452751159668,3.199258804321289
1781799453911986200,55.06798608398437,-1.2234770059585571,-1.3464469909667969,-5.740793228149414
1781799453960506400,55.11650634765625,-1.523910403251648,-2.802739143371582,-4.118383407592773
1781799454009026600,55.16502661132812,-1.4525030851364136,-1.7719612121582031,-0.46033430099487305
1781799454057546800,55.213546630859376,1.2133235931396484,1.0761442184448242,-5.131242752075195
1781799454106066700,55.26206665039062,1.253460168838501,2.1909093856811523,-1.8262168169021606
1781799454154587100,55.31058715820313,2.2303855419158936,0.6802949905395508,0.812038779258728
1781799454203107000,55.35910717773437,1.5697457790374756,0.027048110961914062,1.994466781616211
1781799454251627500,55.40762744140625,2.347212791442871,1.5000677108764648,2.0516061782836914
1781799454300147500,55.4561474609375,3.7210021018981934,2.7275547981262207,0.8165059089660645
1781799454348668000,55.50466796875,4.043432235717773,-3.166017532348633,-2.1701266765594482
1781799454397187800,55.55318774414062,1.6730742454528809,-0.1064300537109375,0.5114295482635498
1781799454445708300,55.60170825195313,-0.2856695353984833,2.665186882019043,1.4747262001037598
1781799454494228200,55.65022827148437,-4.342360019683838,-8.196764945983887,-2.8535773754119873
1781799454542748700,55.69874877929688,-7.197030067443848,-5.784891128540039,-0.33988380432128906
1781799454591268600,55.7472685546875,-1.4093375205993652,0.03391456604003906,3.764187812805176
1781799454639789000,55.7957890625,0.055758893489837646,2.8574271202087402,-1.466623306274414
1781799454688309000,55.84430908203125,0.4773997664451599,3.9808349609375,-3.873208999633789
1781799454736829200,55.8928291015625,0.8885549306869507,4.081671714782715,-2.799236536026001
1781799454785349400,55.94134936523437,2.387768507003784,4.657749652862549,-0.4830653667449951
1781799454833869600,55.98986962890625,1.9795879125595093,-0.2764616012573242,4.06834077835083
1781799454882390000,56.03839013671875,-0.8335484266281128,-8.071088790893555,5.141335487365723
1781799454930910000,56.08690991210938,-1.0957164764404297,-2.1236467361450195,1.8900198936462402
1781799454979430400,56.135430419921875,-0.9741666913032532,-1.7585172653198242,-5.368095397949219
1781799455027950300,56.18395043945313,-1.537328839302063,-1.9212589263916016,-5.072403907775879
1781799455076470800,56.232470703125,-1.5152831077575684,-2.897395133972168,-0.28584718704223633
1781799455124990700,56.28099072265625,2.0990447998046875,1.5117549896240234,-3.7460551261901855
1781799455173511200,56.32951123046875,1.8009967803955078,2.3821144104003906,-1.8192263841629028
1781799455222031000,56.37803100585938,2.2545952796936035,1.9333653450012207,0.13161087036132812
1781799455270551600,56.426551513671875,1.497467041015625,0.35924339294433594,2.596019983291626
1781799455319071500,56.47507153320313,1.8668289184570312,0.00033664703369140625,2.417111396789551
1781799455367591400,56.52359130859375,4.1530890464782715,1.2831954956054688,0.6881618499755859
1781799455416111900,56.57211181640625,4.016243934631348,-0.46238136291503906,-2.1423404216766357
1781799455464631800,56.6206318359375,1.9307687282562256,-1.6251506805419922,-0.7454036474227905
1781799455561672200,56.71767211914062,-4.267864227294922,-7.743441581726074,-1.0803300142288208
1781799455610192600,56.76619262695313,-5.85874080657959,-5.790771484375,-1.5335456132888794
1781799455658712600,56.814712646484374,-1.1655433177947998,0.218963623046875,3.272697687149048
1781799455707233000,56.86323291015625,-0.5583457946777344,3.069995403289795,-1.5714433193206787
1781799455755753000,56.9117529296875,0.610695481300354,4.784751892089844,-4.348333358764648
1781799455804273400,56.9602734375,0.8467763662338257,4.670987129211426,-3.225135087966919
1781799455852793600,57.008793701171875,2.44571590423584,4.191845893859863,0.05888628959655762
1781799455901313800,57.05731372070313,2.015958070755005,-2.099384307861328,4.357385635375977
1781799455949834000,57.105833984375,0.06002002954483032,-6.635875701904297,4.498519420623779
1781799455998354000,57.15435400390625,-2.1811013221740723,-2.6300764083862305,-0.6956944465637207
1781799456046874400,57.202874267578125,-0.6559398770332336,0.14608383178710938,-6.110539436340332
1781799456095394300,57.25139428710938,-2.526733160018921,-7.061775207519531,-0.8512201309204102
1781799456143914800,57.299914794921875,0.5593680143356323,-0.6269474029541016,-2.620816230773926
1781799456192434700,57.3484345703125,2.064479112625122,1.8658394813537598,-3.9697983264923096
1781799456240955100,57.396955078125,1.4189395904541016,2.362034797668457,-1.9219722747802734
1781799456289475000,57.44547509765625,2.2044243812561035,1.9579744338989258,0.7836726903915405
1781799456337995300,57.493995361328125,1.5273480415344238,0.23690509796142578,2.6812539100646973
1781799456386515500,57.54251538085938,2.7219607830047607,0.5863838195800781,1.7700707912445068
1781799456435035600,57.59103564453125,5.419894695281982,2.5911636352539062,1.0847656726837158
1781799456483555800,57.63955590820313,3.483816623687744,-4.091947555541992,-1.9899487495422363
1781799456532076000,57.688075927734374,1.576944351196289,1.810295581817627,0.16002106666564941
1781799456580596200,57.73659619140625,-1.112976312637329,2.3600854873657227,1.5207953453063965
1781799456629116200,57.7851162109375,-5.666325569152832,-11.390236854553223,-3.1477577686309814
1781799456677636600,57.83363671875,-5.2410478591918945,-4.150606155395508,1.1537048816680908
1781799456726156500,57.882156494140624,-0.10633206367492676,1.2506208419799805,1.970794677734375
1781799456774677000,57.93067700195313,-0.30388587713241577,2.77408504486084,-3.4846484661102295
1781799456823197000,57.979197021484374,0.7226839065551758,4.7676191329956055,-4.449745178222656
1781799456871717400,58.02771728515625,1.9449013471603394,5.624924659729004,-2.251830816268921
1781799456920237300,58.0762373046875,2.727046251296997,4.043636798858643,2.466562509536743
1781799456968757800,58.1247578125,0.4341927170753479,-8.05342960357666,6.411383628845215
1781799457017277700,58.173277587890624,-0.08831511437892914,-4.1701250076293945,3.4379820823669434
1781799457065798100,58.22179809570312,-1.226503610610962,0.1364450454711914,-4.36855411529541
1781799457114318000,58.270318115234375,-1.5671652555465698,-3.9959850311279297,-6.997380256652832
1781799457162838500,58.31883862304687,-0.3460453152656555,-2.2797012329101562,1.1576459407806396
1781799457211358500,58.3673583984375,0.6091157793998718,-0.08521175384521484,-2.142451047897339
1781799457259878700,58.41587866210938,1.9658575057983398,2.4981489181518555,-2.226553201675415
1781799457308398800,58.46439892578125,2.42669677734375,3.3427700996398926,-0.8489683866500854
1781799457356919000,58.5129189453125,1.9920470714569092,0.7066860198974609,0.5212551355361938
1781799457405439200,58.561439208984375,2.028390645980835,-0.439727783203125,2.505678415298462
1781799457453959400,58.60995947265625,3.222291946411133,1.4800148010253906,0.8905656337738037
1781799457502479600,58.658479736328125,4.684230327606201,-1.4000825881958008,-2.420746088027954
1781799457550999800,58.70699975585938,3.4569292068481445,-1.806838035583496,-1.1007405519485474
1781799457599520000,58.75552001953125,-0.6262845993041992,3.7781152725219727,2.096731185913086
1781799457648040200,58.80404028320312,-3.2628581523895264,-4.753200531005859,-0.10821712017059326
1781799457696560400,58.852560302734375,-6.712018013000488,-8.792180061340332,-1.9679992198944092
1781799457745080600,58.90108056640625,-2.3284149169921875,-1.5520954132080078,3.848494291305542
1781799457793600800,58.949600830078126,-0.053446121513843536,2.7688074111938477,-0.4749565124511719
1781799457842121000,58.99812084960938,0.8232461214065552,4.566171646118164,-4.390931129455566
1781799457890641000,59.046640869140624,1.116578221321106,4.351191997528076,-3.148341417312622
1781799457939161300,59.09516137695312,2.2761600017547607,3.8259830474853516,-0.9271548986434937
1781799457987681300,59.143681396484375,2.0615530014038086,1.0330734252929688,2.815274477005005
1781799458036201700,59.19220166015625,0.33624863624572754,-7.312680244445801,5.377955436706543
1781799458084721700,59.2407216796875,-1.8259186744689941,-3.0585060119628906,2.4461159706115723
1781799458133242000,59.2892421875,-0.910800039768219,-1.9917888641357422,-6.622546672821045
1781799458181762000,59.337761962890625,-2.3271501064300537,-4.028426170349121,-2.1949942111968994
1781799458230282500,59.38628247070312,-0.715420126914978,-1.2827777862548828,-1.420343279838562
1781799458278802400,59.434802490234375,2.5380306243896484,2.067261219024658,-3.7049615383148193
1781799458327322600,59.48332250976563,1.8664305210113525,2.967691421508789,-1.1233415603637695
1781799458375842800,59.5318427734375,1.7914986610412598,1.5717363357543945,0.8880606889724731
1781799458424363000,59.58036303710937,1.3157240152359009,-0.4594755172729492,3.366597890853882
1781799458472883200,59.62888330078125,2.7158448696136475,0.891876220703125,1.6293163299560547
1781799458521403100,59.67740307617188,5.709292888641357,2.828704357147217,0.027953386306762695
1781799458569923600,59.725923583984375,3.383704662322998,-4.552982330322266,-2.5100457668304443
1781799458618443500,59.77444360351563,1.0171115398406982,0.6311178207397461,1.0029942989349365
1781799458666964000,59.8229638671875,-0.006588459014892578,2.553936004638672,2.997589111328125
1781799458715484000,59.87148388671875,-4.706512928009033,-8.879049301147461,-1.8434593677520752
1781799458764004400,59.92000439453125,-5.8912529945373535,-4.402483940124512,-1.4707871675491333
1781799458812524300,59.96852416992188,-0.050566665828228,1.391427993774414,1.8966917991638184
1781799458861044700,60.017044677734376,-0.5953615307807922,3.232974052429199,-1.518540859222412
1781799458909564700,60.06556469726563,0.8848185539245605,4.1541218757629395,-3.9059786796569824
1781799458958084600,60.114084716796874,1.7026212215423584,4.393790245056152,-2.5380947589874268
1781799459006605300,60.16260522460937,2.4990463256835938,4.220842361450195,0.4400749206542969
1781799459055125200,60.211125244140625,1.3265399932861328,-3.927762985229492,5.089156150817871
1781799459103645400,60.2596455078125,-0.31488239765167236,-6.312743186950684,5.524956703186035
1781799459152165600,60.30816552734375,-1.1502467393875122,-0.20678424835205078,-1.118004560470581
1781799459200685800,60.35668579101562,-0.9595928192138672,-2.3528013229370117,-7.7645463943481445
1781799459249206000,60.4052060546875,-2.3941524028778076,-5.354118347167969,0.48822784423828125
