time,seconds_elapsed,z,y,x
1781799398979786000,0.135785888671875,-0.060093823820352554,0.10827577859163284,-0.03283398225903511
1781799399028306400,0.184306396484375,-0.014126247726380825,-0.0642935186624527,-0.17799071967601776
1781799399076827000,0.232826904296875,0.007941242307424545,-0.09330959618091583,-0.24236060678958893
1781799399125347300,0.281347412109375,0.015042545273900032,0.05108356848359108,-0.3321577310562134
1781799399173867800,0.32986767578125,-0.049480047076940536,0.22937972843647003,-0.27717989683151245
1781799399222388000,0.378387939453125,-0.007330377586185932,0.36338818073272705,-0.17134757339954376
1781799399270908400,0.426908447265625,-0.07849612087011337,0.2136499583721161,-0.17905974388122559
1781799399319428900,0.475428955078125,-0.16821688413619995,0.23716825246810913,0.025503603741526604
1781799399367949300,0.52394921875,-0.3242928385734558,0.04787652567028999,-0.1369100660085678
1781799399416469800,0.5724697265625,-0.2759581506252289,-0.07803797721862793,-0.4511236250400543
1781799399464990200,0.620990234375,-0.2606865465641022,-0.17944152653217316,-0.5618428587913513
1781799399513510700,0.6695107421875,-0.29710936546325684,-0.04909825697541237,-0.6141481995582581
1781799399562031000,0.718031005859375,-0.16844595968723297,-0.10285435616970062,-0.0899498388171196
1781799399610551600,0.766551513671875,-0.05299251899123192,-0.09644027799367905,0.033826638013124466
1781799399659084000,0.815083984375,-0.11698060482740402,-0.18150319159030914,-0.18898628652095795
1781799399707592400,0.863592529296875,-0.15225805342197418,-0.2000582218170166,-0.10888664424419403
1781799399756112600,0.912112548828125,-0.12354740500450134,-0.09567669779062271,0.015195261687040329
1781799399804633000,0.960633056640625,-0.17073670029640198,-0.04222602769732475,0.17081306874752045
1781799399853153500,1.009153564453125,-0.249690979719162,-0.10354158282279968,0.228921577334404
1781799399901674000,1.057674072265625,-0.2675587832927704,-0.10445787757635117,0.21372631192207336
1781799399950194400,1.1061943359375,-0.2185368686914444,-0.015958841890096664,0.11346813291311264
1781799399998715000,1.15471484375,-0.19349141418933868,-0.0766635313630104,0.07261654734611511
1781799400047235300,1.2032353515625,-0.18776455521583557,-0.15584687888622284,0.08170316368341446
1781799400095755800,1.251755859375,-0.16310089826583862,-0.19005531072616577,0.06864593178033829
1781799400144276000,1.30027587890625,-0.12851068377494812,-0.08987347781658173,0.11583523452281952
1781799400192796400,1.34879638671875,-0.09170607477426529,-0.024892739951610565,0.125074565410614
1781799400241316900,1.39731689453125,-0.08284853398799896,-0.11980585753917694,0.06154462695121765
1781799400289837300,1.44583740234375,-0.04276053607463837,-0.12469277530908585,0.08460476994514465
1781799400338357800,1.494357666015625,-0.10598503798246384,0.12125665694475174,0.14248420298099518
1781799400386878000,1.5428779296875,-0.19265148043632507,0.22640176117420197,-0.1484401375055313
1781799400435398400,1.5913984375,-0.10094540566205978,0.189673513174057,-0.2900080680847168
1781799400483918800,1.6399189453125,-0.08254310488700867,0.10835213959217072,-0.23877176642417908
1781799400532447700,1.68844775390625,-0.07108938694000244,-0.01977674663066864,-0.21395538747310638
1781799400580959700,1.736959716796875,-0.08147408813238144,-0.00038179047987796366,-0.09980003535747528
1781799400629480200,1.785480224609375,-0.047952886670827866,0.08193223923444748,0.05039634555578232
1781799400678000600,1.834000732421875,0.08834631741046906,0.16882775723934174,0.07475458085536957
1781799400726521000,1.88252099609375,0.10155627131462097,0.20723587274551392,0.02542724646627903
1781799400775041300,1.931041259765625,-0.02588539570569992,0.17447824776172638,0.22968515753746033
1781799400823561700,1.979561767578125,-0.026572618633508682,-0.4679224193096161,0.12660172581672668
1781799400872082200,2.028082275390625,0.15806126594543457,-2.0082180500030518,0.03504836559295654
1781799400920602400,2.076602294921875,0.3545306324958801,-4.634631156921387,0.5031998753547668
1781799400969122800,2.125122802734375,0.3934732675552368,-5.075369834899902,0.5360338687896729
1781799401017643300,2.173643310546875,0.7939714789390564,-3.662210702896118,-0.26473352313041687
1781799401066163700,2.222163818359375,0.7167734503746033,-4.402731418609619,0.047036588191986084
1781799401114684000,2.270683837890625,0.8067232966423035,-4.458014965057373,0.13500112295150757
1781799401163204400,2.319204345703125,-0.010537417605519295,-3.6456410884857178,0.3811032772064209
1781799401211724800,2.367724853515625,-0.2813032269477844,-2.2870776653289795,0.4783071279525757
1781799401260245200,2.416245361328125,-0.9812015295028687,-1.535485029220581,0.40149086713790894
1781799401308765700,2.464765625,-0.6434696912765503,-1.9099451303482056,0.3181841969490051
1781799401357286000,2.513285888671875,-0.6663007736206055,-2.8558692932128906,0.03711003437638283
1781799401405806300,2.561806396484375,-0.6084213256835938,-2.5198171138763428,0.02237292192876339
1781799401454326800,2.610326904296875,-0.0988837331533432,-1.1718677282333374,0.1755472719669342
1781799401502847000,2.658846923828125,0.09682206809520721,-0.11629338562488556,0.2643517255783081
1781799401551367400,2.707367431640625,0.1966221034526825,0.8242093324661255,0.34147340059280396
1781799401599888000,2.755887939453125,-0.17653992772102356,1.278158187866211,-0.01870773360133171
1781799401648408000,2.804407958984375,-0.5826122760772705,1.4425572156906128,-0.7421243786811829
1781799401696928500,2.852928466796875,-0.39568766951560974,1.7563889026641846,-1.4018583297729492
1781799401791461000,2.947461181640625,0.2542724609375,2.197815179824829,-2.4824018478393555
1781799401888502000,3.044501953125,1.0282381772994995,3.5426340103149414,-0.14347685873508453
1781799401937022500,3.0930224609375,1.1731657981872559,3.2927138805389404,0.2695440948009491
1781799401985542700,3.141542724609375,0.9214895367622375,2.2277474403381348,-0.5697841048240662
1781799402034063000,3.19006298828125,0.7824414372444153,1.1342995166778564,-0.38415759801864624
1781799402082583600,3.23858349609375,-0.10621411353349686,-0.8131373524665833,0.7124210596084595
1781799402131103700,3.287103759765625,-0.7838922142982483,-0.44150251150131226,0.30489787459373474
1781799402228144600,3.38414453125,0.3043633699417114,-0.6017781496047974,-0.3205513060092926
1781799402276664800,3.432664794921875,0.37659814953804016,-0.48907360434532166,-0.6146063208580017
1781799402325185300,3.481185302734375,-0.15500694513320923,0.03535379841923714,-0.942258894443512
1781799402373705700,3.529705810546875,-0.3802633285522461,0.18829907476902008,-0.9103412628173828
1781799402422226000,3.578225830078125,0.6663007736206055,-0.26732969284057617,-0.6213258504867554
1781799402470746400,3.626746337890625,0.7386882305145264,-1.7691407203674316,0.5863538384437561
1781799402519266800,3.675266845703125,0.37354379892349243,-3.483761787414551,1.420718789100647
1781799402567787000,3.723787109375,0.9836450219154358,-3.9138107299804688,1.1895064115524292
1781799402664827600,3.82082763671875,2.986976146697998,-2.33174729347229,-0.6867647171020508
1781799402713929000,3.869928955078125,3.252091407775879,-1.1617120504379272,-0.976620078086853
1781799402763419000,3.9194189453125,3.3067636489868164,-0.5640572905540466,-0.5741365551948547
1781799402812909300,3.968909423828125,3.0434045791625977,-0.23312127590179443,-1.1433861255645752
1781799402862400000,4.01839990234375,2.8166210651397705,0.8881210088729858,-1.729663610458374
1781799402911890700,4.067890625,2.645807981491089,2.377485752105713,-2.7013204097747803
1781799402961381400,4.11738134765625,1.3979640007019043,1.4662281274795532,-2.394131898880005
1781799403010871800,4.166871826171875,0.9229403138160706,0.2972620725631714,-0.9371429085731506
1781799403060362500,4.216362548828125,0.16264274716377258,0.1974620372056961,0.9514219164848328
1781799403109853200,4.265853271484375,-0.5283216834068298,0.32123851776123047,1.7444771528244019
1781799403159343900,4.31534375,-0.7631227970123291,0.22556181252002716,0.2138790339231491
1781799403208254200,4.364254150390625,-0.6305651664733887,-0.6304888129234314,-0.3326158821582794
1781799403256776000,4.41277587890625,-0.3572031855583191,-1.303356409072876,-0.20761767029762268
1781799403305296100,4.461296142578125,-0.6463713049888611,-0.742429792881012,-0.20189081132411957
1781799403353816600,4.509816650390625,-0.3773617148399353,-0.054443322122097015,0.2556469142436981
1781799403402337000,4.5583369140625,-0.7301361560821533,0.769002377986908,1.2988512516021729
1781799403450857500,4.606857421875,-0.7386118769645691,0.11194097250699997,1.9142974615097046
1781799403499377700,4.655377685546875,-0.31955865025520325,-0.2954294681549072,0.8231402635574341
1781799403547898000,4.703898193359375,-0.0019089524867013097,-1.1017709970474243,-1.017395257949829
1781799403596418300,4.752418212890625,0.15325069427490234,-1.9992077350616455,-0.6384300589561462
1781799403693459000,4.849458984375,-0.09353867173194885,0.4597521126270294,0.335288405418396
1781799403741979400,4.8979794921875,0.31902414560317993,2.4295618534088135,-0.5300779342651367
1781799403790499800,4.946499755859375,0.4228711426258087,2.926194906234741,-0.47296205163002014
1781799403839020300,4.995020263671875,1.2358558177947998,3.1238861083984375,1.2322670221328735
1781799403887540500,5.04354052734375,1.900247573852539,1.6813288927078247,2.9876632690429688
1781799403936061000,5.09206103515625,0.8286380767822266,0.7460185885429382,1.025718331336975
1781799403984581000,5.1405810546875,0.08414662629365921,1.4760019779205322,0.14485131204128265
1781799404033101600,5.1891015625,-1.1174243688583374,0.9671516418457031,-0.4136318266391754
1781799404081621800,5.237621826171875,-1.1656063795089722,1.2289835214614868,-0.8877392411231995
1781799404130142200,5.28614208984375,-0.7988584041595459,1.3147337436676025,-0.485484778881073
1781799404178662700,5.33466259765625,-0.9692896604537964,-0.6591994762420654,1.3761255741119385
1781799404227182800,5.383182861328125,-0.4385245442390442,-0.0818558782339096,1.4311797618865967
1781799404275703300,5.431703369140625,-1.0208313465118408,0.3099375069141388,0.5163334608078003
1781799404324223500,5.480223388671875,-0.809548556804657,2.192622661590576,-0.37865981459617615
1781799404372744000,5.528743896484375,-0.5908589363098145,2.4092507362365723,0.12965604662895203
1781799404421264100,5.57726416015625,1.631543517112732,3.3218064308166504,1.5780164003372192
1781799404469784600,5.62578466796875,1.8620685338974,-0.10972658544778824,2.2411866188049316
1781799404518305000,5.674304931640625,0.20395247638225555,-1.4300343990325928,0.6247619390487671
1781799404566825500,5.722825439453125,0.7856484651565552,1.5118902921676636,-1.9817217588424683
1781799404615345700,5.771345703125,-1.0810779333114624,-1.9091814756393433,0.022067490965127945
1781799404663866000,5.8198662109375,-4.482067584991455,-8.367855072021484,0.404468834400177
1781799404712386300,5.86838623046875,-4.211225509643555,-6.670414447784424,2.2475242614746094
1781799404760906800,5.91690673828125,0.4930442273616791,-1.0654245615005493,0.6414843797683716
1781799404809427200,5.96542724609375,3.104262113571167,1.0765727758407593,-2.0037128925323486
1781799404857947600,6.01394775390625,1.641851782798767,-0.9114102721214294,-0.4928915202617645
1781799404906467800,6.0624677734375,2.2095742225646973,0.25007277727127075,-1.3825397491455078
1781799404954988300,6.11098828125,2.0828962326049805,0.8890373110771179,-0.9553161859512329
1781799405003508500,6.159508544921875,1.641546368598938,2.1406991481781006,-1.8139629364013672
1781799405052029000,6.20802880859375,1.541059136390686,2.313955783843994,0.0988837331533432
1781799405100549400,6.25654931640625,0.1631772518157959,1.4201842546463013,0.9114866256713867
1781799405149069600,6.305069580078125,1.3016765117645264,1.261664867401123,1.1774418354034424
1781799405246110200,6.402110107421875,1.4830269813537598,0.8484148383140564,1.3338232040405273
1781799405294630700,6.450630615234375,0.1334739476442337,-0.0034361144062131643,1.205999732017517
1781799405343732700,6.499732666015625,-1.2218822240829468,0.892626166343689,1.1259765625
1781799405440192000,6.59619189453125,-2.3183846473693848,0.7986293435096741,2.6216788291931152
1781799405488712200,6.644712158203125,-2.3955061435699463,-0.1761581301689148,3.2140650749206543
1781799405537232600,6.693232666015625,-0.7632755637168884,-0.9925025701522827,2.9004623889923096
1781799405585753000,6.741753173828125,-0.3877464234828949,-0.49365508556365967,0.2490801066160202
1781799405634273300,6.790273193359375,-0.6504946351051331,-0.15172353386878967,-0.8883501291275024
1781799405682794000,6.8387939453125,-0.4447859227657318,0.13797907531261444,-1.3655881881713867
1781799405731314200,6.887314208984375,0.16416990756988525,0.3716348707675934,-2.3470189571380615
1781799405779834600,6.935834716796875,-0.009926552884280682,-1.88169264793396,-3.0086617469787598
1781799405828354800,6.984354736328125,-0.5513054728507996,-4.684569358825684,-3.1225879192352295
1781799405876875500,7.03287548828125,-0.015729768201708794,-4.790248870849609,-2.8150177001953125
1781799405925395700,7.081395751953125,0.42707082629203796,-1.180267095565796,-1.4957023859024048
1781799405973916400,7.12991650390625,1.0007492303848267,0.17340923845767975,-1.484859585762024
1781799406022436600,7.1784365234375,0.5991820096969604,-0.20777037739753723,2.512181520462036
1781799406070957000,7.22695703125,-1.8102977275848389,-1.973933219909668,2.7318637371063232
1781799406119477500,7.2754775390625,-2.0581562519073486,0.4741837978363037,0.1328630894422531
1781799406167998000,7.323998046875,0.14340050518512726,1.4967714548110962,-1.9301799535751343
1781799406216518100,7.37251806640625,2.5670065879821777,0.942335307598114,-0.7775545120239258
1781799406265038800,7.421038818359375,1.7257694005966187,-0.6515636444091797,1.1378883123397827
1781799406313559000,7.46955908203125,1.187368392944336,-0.9756274223327637,1.7418808937072754
1781799406362079700,7.518079833984375,1.6689589023590088,1.039615511894226,0.7873283624649048
1781799406410600000,7.566599853515625,1.665522813796997,1.743637204170227,-0.00847574882209301
1781799406459120400,7.615120361328125,2.0242531299591064,2.809596300125122,-0.6592758297920227
1781799406507640800,7.663640869140625,0.6724094152450562,1.817475438117981,0.892626166343689
1781799406556161000,7.7121611328125,0.7610611319541931,3.715890407562256,-1.1740057468414307
1781799406604681700,7.760681640625,-0.09544762223958969,0.6808851361274719,-0.7343358397483826
1781799406653202000,7.809201904296875,-0.06849320977926254,-0.5128973126411438,0.4433351159095764
1781799406701722600,7.85772265625,-0.28557929396629333,-0.8632283210754395,-0.08009964227676392
1781799406750242800,7.906242919921875,-1.1020764112472534,-2.9442155361175537,-1.5154792070388794
1781799406798763500,7.954763427734375,-0.6243801712989807,-4.878747940063477,-1.4728713035583496
1781799406847283700,8.00328369140625,0.7209731340408325,-2.8755695819854736,-0.04046979174017906
1781799406944324600,8.10032470703125,-2.883434534072876,-3.005072832107544,0.8449023365974426
1781799406992845300,8.14884521484375,-2.411388635635376,0,-0.827874481678009
1781799407041365500,8.197365478515625,0.5658134818077087,1.7924299240112305,-3.3915975093841553
1781799407089886200,8.24588623046875,1.7148501873016357,1.48371422290802,-1.7119485139846802
1781799407138406400,8.294406494140626,2.1483349800109863,1.0984876155853271,-1.9677481651306152
1781799407186927000,8.342927001953125,0.8663589954376221,1.4627920389175415,-2.2989895343780518
1781799407235447300,8.391447265625,0.8720094561576843,0.36888596415519714,-2.0513603687286377
1781799407283968000,8.439968017578124,0.29741477966308594,-1.7609704732894897,0.27320927381515503
1781799407332488200,8.48848828125,0.9214895367622375,-0.12385283410549164,0.6604975461959839
1781799407381009000,8.5370087890625,1.870391607284546,1.751578450202942,-0.4598284661769867
1781799407429529300,8.585529296875,0.17234022915363312,0.7286853194236755,-0.8987348079681396
1781799407478049800,8.6340498046875,-0.7564033269882202,-0.12446369975805283,0.23709189891815186
1781799407526570200,8.6825703125,-1.0500001907348633,-0.19410228729248047,0.010461059398949146
1781799407575090700,8.731090576171875,-1.8104504346847534,-0.7617483735084534,0.8147408962249756
1781799407623611100,8.779611083984374,-1.8217514753341675,-0.526565432548523,0.7942769527435303
1781799407672131800,8.8281318359375,-3.1259477138519287,-2.0840415954589844,1.640324592590332
1781799407720652000,8.876652099609375,-4.171442985534668,-1.4300343990325928,2.5799872875213623
1781799407769172500,8.92517236328125,-2.912679672241211,-2.0287582874298096,4.567359447479248
1781799407817693000,8.97369287109375,-1.194546103477478,-0.17592905461788177,5.044826984405518
1781799407866213400,9.02221337890625,1.0015127658843994,1.1054362058639526,1.6972877979278564
1781799407914734000,9.070734130859375,0.22449280321598053,0.7635046243667603,1.2485312223434448
1781799407963254300,9.119254150390624,-0.006566796451807022,0.743346095085144,0.10644318908452988
1781799408011775000,9.16777490234375,-0.13797907531261444,1.4106395244598389,0.06811141967773438
1781799408060295200,9.216295166015625,-1.2275327444076538,1.8642829656600952,1.392619013786316
1781799408108816000,9.26481591796875,-0.7612138986587524,-0.06910407543182373,0.6574432253837585
1781799408157336000,9.313336181640626,0.0591011680662632,-0.20402882993221283,0.13187043368816376
1781799408205856800,9.361856689453125,0.48617202043533325,-0.2531270980834961,-0.05367974191904068
1781799408254377200,9.410377197265625,0.37354379892349243,0.09850194305181503,0.4350884258747101
1781799408302897700,9.458897705078124,0.33284494280815125,0.14805835485458374,0.407599538564682
1781799408351418000,9.507418212890625,0.10858121514320374,0.05367974191904068,-0.009315688163042068
1781799408399938600,9.5559384765625,-0.02764163166284561,-0.04833467677235603,-0.21861323714256287
1781799408448459000,9.604458984375,-0.12980876863002777,-0.09017891436815262,-0.30779948830604553
1781799408496979500,9.6529794921875,-0.09903645515441895,-0.0256563201546669,-0.2505309283733368
1781799408545500000,9.7015,-0.04329504072666168,0.028099779039621353,-0.23999349772930145
1781799408594020600,9.7500205078125,-0.13248129189014435,-0.07796161621809006,-0.1300378441810608
1781799408642540800,9.798540771484374,0.0015271619195118546,-0.07108938694000244,0.07223475724458694
1781799408691061500,9.8470615234375,0.3107774555683136,0.1547778695821762,0.25610506534576416
1781799408739581700,9.895581787109375,0.4032471179962158,-0.04214967042207718,0.11636973917484283
1781799408788102400,9.944102294921874,0.09231694042682648,-0.1882227063179016,0.11407899856567383
1781799408836622600,9.99262255859375,0.1349247545003891,-0.06238456442952156,0.3081812858581543
1781799408885143300,10.041143310546875,0.3816377818584442,0.03107774630188942,0.1798996776342392
1781799408933663700,10.089663818359375,0.2790888547897339,-0.015347977168858051,-0.08498656004667282
1781799408982184000,10.138183837890624,-0.10903936624526978,-0.0709366723895073,-0.3552178740501404
1781799409030704600,10.18670458984375,0.7891609072685242,0.541378915309906,1.2602903842926025
1781799409079225000,10.23522509765625,2.2358415126800537,1.1527018547058105,1.8776456117630005
1781799409127745500,10.28374560546875,2.334648847579956,0.9511164426803589,-0.12202023714780807
1781799409176266000,10.332265869140626,0.30344706773757935,-0.9563851952552795,-2.337092399597168
1781799409224786400,10.380786376953125,-0.15836669504642487,-0.7584649920463562,-1.0244965553283691
1781799409273307000,10.429306884765625,0.35010188817977905,0.17547090351581573,-0.10010546445846558
1781799409321827600,10.47782763671875,0.26419901847839355,-0.6485093235969543,-0.40630143880844116
1781799409370347800,10.52634765625,0.4696022868156433,-0.226859912276268,0.2715294063091278
1781799409418868500,10.574868408203125,0.2986365258693695,-0.4013381600379944,-0.11049016565084457
1781799409467389000,10.623388916015625,0.10048725455999374,-0.2720639109611511,0.03283398225903511
1781799409515909400,10.671909423828126,-0.053603384643793106,0.03497200831770897,0.18028147518634796
1781799409564429800,10.720429931640625,0.14813470840454102,0.0795651376247406,0.06826414167881012
1781799409612950500,10.768950439453125,-0.06895136088132858,-0.13477204740047455,-0.11759147047996521
1781799409661470700,10.817470703125,0.032910339534282684,-0.11117739230394363,-0.020922118797898293
1781799409709991400,10.865991455078126,0.10965022444725037,-0.043753188103437424,-0.010537417605519295
1781799409758511900,10.914511962890625,-0.05329795181751251,-0.06276635825634003,0.037949975579977036
1781799409807032300,10.9630322265625,0.030085090547800064,-0.01511890348047018,-0.05894844979047775
1781799409855552800,11.011552734375,0.14080433547496796,0.06101011857390404,-0.07406735420227051
1781799409904073500,11.060073486328125,0.1464548259973526,-0.03871355578303337,-0.18577924370765686
1781799409952593700,11.10859375,-0.05406153202056885,-0.10453423857688904,-0.09941824525594711
1781799410001114400,11.1571142578125,0.04528035223484039,-0.021456625312566757,0.10109812021255493
1781799410049634800,11.205634765625,0.04146244749426842,-0.040088001638650894,0.1565341055393219
1781799410098155500,11.254155517578125,0.08460476994514465,0.027107125148177147,0.14362958073616028
1781799410146675700,11.30267578125,0.009697478264570236,0.0850629210472107,-0.07483093440532684
1781799410195196400,11.351196533203124,-0.10170898586511612,0.059635672718286514,-0.31001389026641846
1781799410243716900,11.399716796875,-0.15470150113105774,0.08055779337882996,-0.2713003158569336
1781799410292237300,11.4482373046875,0.060933761298656464,0.10567960888147354,-0.18150319159030914
1781799410340757800,11.4967578125,-0.04390590637922287,0.0683404952287674,-0.07299833744764328
1781799410389278200,11.5452783203125,-0.03375028073787689,-0.005955931730568409,0.0910952091217041
1781799410437798700,11.593798583984375,-0.05528326332569122,-0.09162971377372742,0.23159411549568176
1781799410486319000,11.642319091796875,0.030085090547800064,-0.19738568365573883,0.29703301191329956
1781799410534839800,11.69083984375,0.06101011857390404,-0.12644900381565094,0.30283620953559875
1781799410583360300,11.7393603515625,0.011682788841426373,-0.12446369975805283,0.12415826320648193
1781799410631880700,11.787880615234375,-0.027030766010284424,-0.0553596206009388,0.03535379841923714
1781799410680401200,11.836401123046874,-0.023518294095993042,-0.0031306820455938578,-0.0334448479115963
1781799410728921900,11.884921875,-0.03558287397027016,0.04657844081521034,-0.026343543082475662
1781799410777442000,11.933442138671875,-0.012904518283903599,0.09430225193500519,-0.01359174121171236
1781799410825962800,11.981962646484375,-0.027030766010284424,0.07979421317577362,-0.04505127668380737
1781799410874483200,12.030483154296874,-0.026190826669335365,0.058795735239982605,-0.1014799103140831
1781799410923003600,12.079003662109375,-0.014813470654189587,0.05978839099407196,-0.10942115634679794
1781799410971524000,12.127524169921875,0.011300998739898205,0.017944153398275375,-0.19562944769859314
1781799411020044800,12.176044921875,-0.04001164436340332,0.052687086164951324,-0.18455752730369568
1781799411068565200,12.224565185546876,-0.07276926934719086,0.06734783947467804,-0.19898919761180878
1781799411117085700,12.273085693359375,-0.07139482349157333,0.08773545175790787,-0.2084576040506363
1781799411165606100,12.321606201171875,-0.13553562760353088,0.07269290834665298,-0.3096320927143097
1781799411214126800,12.370126953125,-0.18860450387001038,-0.06643154472112656,-0.33628106117248535
1781799411262647000,12.41864697265625,-0.20334161818027496,-0.043371398001909256,-0.15073087811470032
1781799411311167700,12.467167724609375,-0.09315688163042068,-0.010766491293907166,-0.045738499611616135
1781799411359688200,12.515688232421875,-0.23243404924869537,-0.02649625949561596,-0.10674861818552017
1781799411408208600,12.564208740234376,-0.03817904740571976,-0.19249875843524933,-0.10415244847536087
1781799411456729000,12.61272900390625,0.17974695563316345,-0.072921983897686,0.2594648003578186
1781799411505249500,12.66124951171875,-0.1487455666065216,0.14149154722690582,0.3249036967754364
1781799411553770000,12.70977001953125,-0.04550942778587341,-0.18058690428733826,0.037720900028944016
1781799411602290700,12.758290771484376,0.09277509152889252,-0.3759109079837799,-0.17539454996585846
1781799411650811000,12.806810791015625,-0.2338084876537323,-0.10789398849010468,0.47006043791770935
1781799411699331600,12.85533154296875,-0.31207555532455444,0.2854265570640564,0.8870519995689392
1781799411747852000,12.90385205078125,-0.14523309469223022,0.2528216540813446,0.4264599680900574
1781799411796372200,12.952372314453125,-0.19898919761180878,0.3019199073314667,0.4889972507953644
1781799411844893000,13.000892822265625,-0.06467530876398087,0.21662792563438416,0.12209659814834595
1781799411893413400,13.049413330078124,-0.1340848207473755,0.06757691502571106,-0.06612611562013626
1781799411941933800,13.097933837890626,0.0397825688123703,0.23533566296100616,0.46601346135139465
1781799411990454300,13.146454345703125,-0.13568833470344543,0.541989803314209,0.3849211633205414
1781799412038974700,13.194974609375,0.0487164668738842,-0.34552037715911865,-0.4205803871154785
1781799412087495200,13.2434951171875,0.064598947763443,0.16615521907806396,0.10499238222837448
1781799412136016000,13.292015869140625,0.2231183648109436,0.03176496922969818,0.1446985900402069
1781799412184536000,13.3405361328125,0.24144430458545685,-0.02611446939408779,0.11797326058149338
1781799412233056800,13.389056884765624,-0.02367101050913334,-0.205861434340477,-0.04505127668380737
1781799412281577200,13.4375771484375,-0.11919499188661575,0.10300707072019577,0.031612250953912735
1781799412330097700,13.48609765625,0.045738499611616135,0.06673697382211685,0.10987929999828339
1781799412378618000,13.5346181640625,0.15042544901371002,0.004505127668380737,0.29245150089263916
1781799412427138600,13.583138671875,0.1196531355381012,0.030085090547800064,0.2591593861579895
1781799412475659000,13.631658935546875,-0.095982126891613,-0.09812015295028687,-0.03451386094093323
1781799412524179700,13.6801796875,-0.3310123383998871,0.46143198013305664,0.029016077518463135
1781799412572700000,13.728699951171874,-0.22999058663845062,-0.5302306413650513,0.05787943676114082
1781799412621220600,13.777220703125,-0.05673406645655632,-0.16989676654338837,-0.1729510873556137
1781799412669740800,13.82574072265625,-0.13141228258609772,0.033979352563619614,-0.04550942778587341
1781799412718261500,13.874261474609375,0.08567378669977188,0.013820815831422806,0.2084576040506363
1781799412766781700,13.92278173828125,0.15951207280158997,0.04253146052360535,0.2871828079223633
1781799412815302400,13.971302490234375,0.11346813291311264,-0.05658135190606117,0.12392919510602951
1781799412863822800,14.01982275390625,-0.2943604588508606,-0.14912736415863037,0.016646064817905426
1781799412912343300,14.06834326171875,-0.20418155193328857,-0.04894553869962692,0.10797034949064255
1781799412960863700,14.11686376953125,0.1406516134738922,0.24488042294979095,0.20082180202007294
1781799413009384000,14.165384033203125,0.12385283410549164,0.1611919403076172,0.06177370250225067
1781799413057904600,14.213904541015625,-0.060551971197128296,-0.13477204740047455,-0.11194097250699997
1781799413106425000,14.262425048828124,-0.06345357745885849,0.023976443335413933,0.1398116797208786
1781799413154945500,14.310945556640625,0.06177370250225067,0.06047561392188072,0.12347104400396347
1781799413203466000,14.359466064453125,0.005650499369949102,-0.16600249707698822,-0.2435823380947113
1781799413251986400,14.407986328125,-0.01847865991294384,0.028328854590654373,-0.24320054054260254
1781799413300507000,14.4565068359375,-0.030390523374080658,0.3875173330307007,0.28787001967430115
1781799413349027300,14.50502734375,-0.06589704006910324,0.3239873945713043,-0.012370011769235134
1781799413397547800,14.5535478515625,0.08437569439411163,-0.07597630470991135,-0.6777544617652893
1781799413446068200,14.602068115234376,0.1631772518157959,-0.3807978332042694,-0.9734130501747131
1781799413494588700,14.650588623046875,0.25763222575187683,0.15286891162395477,-0.041615162044763565
1781799413543109000,14.699109130859375,-0.0910952091217041,0.0022143847309052944,-0.03917170315980911
1781799413591629600,14.747629638671874,-0.09361502528190613,0.014584396965801716,-0.24747659265995026
1781799413640150000,14.79614990234375,0.04634936526417732,0.27626359462738037,0.002290742937475443
1781799413688670500,14.84467041015625,0.09766200929880142,0.15844304859638214,0.1398116797208786
1781799413737191200,14.893191162109375,0.08139773458242416,0.12316560745239258,0.1718057245016098
1781799413785711400,14.94171142578125,0.004123337101191282,0.1651625633239746,0.09781472384929657
1781799413834232000,14.990232177734375,0.048792824149131775,-0.3846157491207123,-0.24831652641296387
1781799413882752300,15.038752197265625,0.5013672709465027,-0.26045745611190796,0.09361502528190613
1781799413931273000,15.08727294921875,0.4329504072666168,-0.18577924370765686,0.3546070158481598
1781799413979793200,15.135793212890626,0.2952004075050354,0.0193185992538929,0.4544070363044739
1781799414028313900,15.18431396484375,0.11209368705749512,-0.16737695038318634,0.07643445581197739
1781799414076834000,15.232833984375,0.05429060757160187,-0.09048434346914291,-0.7520508766174316
1781799414125354800,15.281354736328124,0.28725916147232056,-0.9631046652793884,-1.513264775276184
1781799414173875000,15.329875,0.21517711877822876,0.06925679743289948,-0.2208276242017746
1781799414222395600,15.378395751953125,0.3329976499080658,0.5165625214576721,0.08681915700435638
1781799414270915800,15.426915771484374,-0.19822561740875244,0.41470083594322205,0.1721111536026001
1781799414319436300,15.475436279296876,-0.5024362802505493,0.4492146968841553,0.06856957077980042
1781799414367956700,15.523956787109375,-0.685924768447876,0.3609447181224823,0.2890917658805847
1781799414416477200,15.572477294921875,-0.9681442975997925,0.6957749724388123,0.9076687097549438
1781799414464997600,15.62099755859375,-0.699287474155426,0.9684497714042664,0.5557342171669006
1781799414513518000,15.66951806640625,-0.07101303339004517,0.14492766559123993,-0.3656025826931
1781799414562038500,15.71803857421875,-0.44585493206977844,-0.5361865758895874,-0.9298125505447388
1781799414610559000,15.76655908203125,-0.03436114266514778,-0.07620538026094437,0.8272636532783508
1781799414659079400,15.815079345703126,-1.6121485233306885,-0.08025235682725906,1.332601547241211
1781799414707600000,15.863599853515625,-1.345582365989685,2.103971004486084,-1.428965449333191
1781799414756120300,15.912120361328125,-1.0691660642623901,1.3646719455718994,-4.25803279876709
1781799414804640800,15.960640869140626,-0.918053388595581,-0.3555232882499695,-3.7652177810668945
1781799414853161200,16.0091611328125,-1.229365348815918,-2.071824312210083,-3.0443973541259766
1781799414901681700,16.057681640625,-1.3450478315353394,-1.596876859664917,-1.9770638942718506
1781799414950202000,16.1062021484375,-1.3727658987045288,-0.42012226581573486,-1.6690353155136108
1781799414998722600,16.15472265625,-0.34582582116127014,0.2461785078048706,-1.8164063692092896
1781799415047243000,16.203242919921873,-0.07864884287118912,0.37094762921333313,-1.2066106796264648
1781799415095763500,16.251763427734375,0.3032943606376648,-0.2919933497905731,-0.10086904466152191
1781799415144284000,16.300283935546876,0.7596103549003601,-1.407050609588623,0.9080504775047302
1781799415192804400,16.348804443359374,0.2882518172264099,-2.2013275623321533,2.229809045791626
1781799415241324800,16.39732470703125,1.4824161529541016,1.606727123260498,-1.2047780752182007
1781799415289845200,16.44584521484375,1.9175808429718018,2.7001750469207764,-3.4736826419830322
1781799415338365700,16.49436572265625,1.6685771942138672,1.2764782905578613,-0.6065123677253723
1781799415386886100,16.54288623046875,1.419191598892212,0.9743293523788452,-0.6484329700469971
1781799415435406300,16.59140625,1.8249585628509521,1.5318198204040527,-0.4682278633117676
1781799415483927000,16.639927001953126,2.025322198867798,0.46601346135139465,-1.3150391578674316
1781799415532447200,16.688447265625,2.8909175395965576,1.6851468086242676,-1.7566944360733032
1781799415580968000,16.736968017578125,1.4645483493804932,1.7140865325927734,1.4118611812591553
1781799415629488000,16.785488037109374,0.8352048993110657,0.4382191300392151,2.0853395462036133
1781799415678008600,16.834008544921875,1.3822343349456787,1.8081597089767456,0.39225155115127563
1781799415726529000,16.882529052734377,0.918053388595581,1.4131592512130737,1.5667154788970947
1781799415775049500,16.931049560546874,1.4820343255996704,1.902614712715149,1.83839750289917
1781799415823570000,16.97956982421875,2.16536283493042,1.539302945137024,1.792353630065918
1781799415872090400,17.02809033203125,0.34315329790115356,-0.8552870750427246,0.7877101302146912
1781799415920610800,17.07661083984375,-0.46860963106155396,-1.1008546352386475,0.26396992802619934
1781799415969131300,17.12513134765625,-0.014202605932950974,-1.3909391164779663,0.22853977978229523
1781799416017651500,17.1736513671875,-0.3776671588420868,-0.9194278717041016,0.2684750556945801
1781799416066172200,17.222172119140627,-0.5686387419700623,-0.4289034307003021,-0.4108065664768219
1781799416114692400,17.2706923828125,-0.23014330863952637,0.06207913160324097,-0.5258781909942627
1781799416163213000,17.319213134765626,-0.15668681263923645,-0.08903354406356812,-0.10705405473709106
1781799416211733200,17.367733154296875,-0.0899498388171196,-0.08681915700435638,0.3877464234828949
1781799416260253700,17.416253662109376,-0.0038179049734026194,-0.4318813979625702,0.29680392146110535
1781799416308774100,17.464774169921874,-0.3552178740501404,-0.9368374943733215,-0.5697841048240662
1781799416357294600,17.513294677734375,-0.9310342669487,-0.5569559335708618,-1.3217586278915405
1781799416405814800,17.561814697265625,0.02611446939408779,-0.4740310609340668,0.09666935354471207
1781799416454335500,17.61033544921875,0.27053675055503845,-0.22869250178337097,-1.505858063697815
1781799416502855700,17.658855712890624,0.3627009689807892,-0.28061601519584656,-1.4189624786376953
1781799416551376100,17.707376220703125,0.5211440324783325,0.06207913160324097,-1.623602271080017
1781799416599896600,17.755896484375,0.9769254922866821,0.5426769852638245,-1.4413354396820068
1781799416648416800,17.804416748046876,0.8297070860862732,0.5923097729682922,-0.9901354312896729
1781799416696937500,17.8529375,0.8825469017028809,-0.24457497894763947,-0.867504358291626
1781799416745457700,17.901457763671875,0.9756274223327637,-0.4993056058883667,-0.9427170753479004
1781799416793978000,17.94997802734375,-0.24549128115177155,-0.5074759125709534,-0.06933315098285675
1781799416842498600,17.99849853515625,-0.44096800684928894,0.14172062277793884,0.0023671009112149477
1781799416891019000,18.04701904296875,-0.054672397673130035,1.2095122337341309,-0.1472947746515274
1781799416939539200,18.095539306640624,0.09758564829826355,0.002672533504664898,0.22220206260681152
1781799416988060000,18.144059814453126,0.7201332449913025,0.3340666890144348,-0.15729768574237823
1781799417036580000,18.192580078125,1.4659227132797241,0.595745861530304,-0.2089921087026596
1781799417085100500,18.2411005859375,1.2470804452896118,1.3193916082382202,-1.0679444074630737
1781799417133621000,18.28962109375,0.40897396206855774,0.008704823441803455,-0.5557342171669006
1781799417182141400,18.338141357421875,-0.8706350326538086,-1.1222349405288696,0.2179260104894638
1781799417230661600,18.38666162109375,-1.2820523977279663,-1.008537769317627,0.11652245372533798
1781799417279182300,18.435182373046874,-0.11537708342075348,-0.051389001309871674,0.1256854236125946
1781799417327702500,18.48370263671875,-0.1957821547985077,-0.07215840369462967,0.022525638341903687
1781799417376223000,18.532222900390625,0.13209950923919678,-0.1905898153781891,0.33834272623062134
1781799417424743400,18.580743408203126,0.06261363625526428,0.030695954337716103,0.060933761298656464
1781799417473263900,18.629263916015624,-0.009697478264570236,0.08796452730894089,-0.06177370250225067
1781799417521784000,18.6777841796875,0.03894263133406639,0.07979421317577362,0.0539088174700737
1781799417570304300,18.72630419921875,0.02084576152265072,0.23480114340782166,-0.04367683082818985
1781799417618825000,18.774824951171876,0.055741410702466965,0.12400554865598679,-0.030390523374080658
1781799417667345200,18.82334521484375,0.0383317656815052,-0.018555017188191414,-0.03695731982588768
1781799417715865600,18.871865478515623,0.09033162891864777,-0.22075125575065613,-0.05123628303408623
1781799417764386000,18.920385986328125,0.08300124853849411,-0.2934441566467285,0.03191768378019333
1781799417812906500,18.968906494140626,0.051159925758838654,-0.18982623517513275,0.018784092739224434
1781799417861426700,19.0174267578125,0.04535670951008797,-0.10835213959217072,0.02107483521103859
1781799417909947400,19.065947509765625,0.04940368980169296,-0.03550651669502258,-0.014737112447619438
1781799417958467600,19.114467529296874,0.05612320080399513,0.016416991129517555,0.08338304609060287
1781799418006988000,19.162988037109375,0.042913250625133514,-0.08697187155485153,0.1314886510372162
1781799418055508200,19.21150830078125,0.04046979174017906,0.10483966767787933,0.03611737862229347
1781799418104029000,19.26002880859375,-0.018402300775051117,0.3159697949886322,-0.09460768103599548
1781799418152549000,19.308549072265624,0.01824958436191082,0.25793763995170593,-0.09972367435693741
1781799418201069600,19.357069580078125,0.06246092543005943,0.13645191490650177,-0.07444914430379868
1781799418249589800,19.40558984375,0.09789107739925385,-0.06436987966299057,-0.01763872057199478
1781799418298110500,19.4541103515625,0.07651081681251526,-0.08315397053956985,-0.047952886670827866
1781799418346630700,19.502630615234374,0.04390590637922287,-0.08269581943750381,-0.04222602769732475
1781799418395151000,19.551151123046875,0.04062250629067421,-0.0576503649353981,0.007788525894284248
1781799418443671300,19.59967138671875,0.010461059398949146,-0.04864010959863663,-0.0015271619195118546
1781799418492192000,19.64819189453125,0.055741410702466965,0.026038112118840218,-0.011148282326757908
1781799418540712200,19.696712158203123,0.08498656004667282,0.030161447823047638,0.010537417605519295
1781799418589232400,19.745232421875,0.03917170315980911,-0.0058795735239982605,-0.04329504072666168
1781799418637752800,19.7937529296875,0.03695731982588768,-0.13729186356067657,-0.07154753804206848
1781799418686273300,19.842273193359375,0.05177079141139984,-0.258853942155838,0.028863361105322838
1781799418734793700,19.890793701171877,0.029245151206851006,-0.19280420243740082,0.05994110554456711
1781799418783314000,19.93931396484375,-0.0025198173243552446,-0.09590577334165573,0.009621120058000088
1781799418831834400,19.98783447265625,0.029474224895238876,0.000610864779446274,-0.0009162971982732415
1781799418880354800,20.036354736328125,0.04001164436340332,0.005268708802759647,-0.039018988609313965
1781799418928875300,20.084875244140626,0.03222311660647392,-0.0657443255186081,-0.008704823441803455
1781799418977395500,20.1333955078125,0.00679587060585618,-0.08781181275844574,0.02390008419752121
1781799419025916000,20.181916015625,0.012522728182375431,-0.053985174745321274,0.021685699000954628
1781799419074436000,20.23043603515625,-0.004734201822429895,0.005421424750238657,0.02695440873503685
1781799419122956800,20.278956787109376,0.003359756199643016,0.036880962550640106,-0.00679587060585618
1781799419171477000,20.32747705078125,0.005803215317428112,-0.04741837829351425,0.015806125476956367
1781799419219998000,20.375998046875,-0.0032070400193333626,-0.1547778695821762,0.01802051067352295
1781799419268518400,20.424518310546876,0.024281874299049377,-0.18387030065059662,0.014202605932950974
1781799419317038600,20.47303857421875,0.004352411720901728,-0.12163844704627991,0.03451386094093323
1781799419365559300,20.521559326171875,-0.011759147047996521,-0.095982126891613,-0.0025198173243552446
1781799419414079500,20.57007958984375,0.0025961752980947495,-0.037033677101135254,-0.01695149764418602
1781799419462600000,20.618599853515626,0.010537417605519295,0.033979352563619614,-0.0397825688123703
1781799419511120100,20.6671201171875,0.004963276442140341,0.10506874322891235,-0.013973532244563103
1781799419559640600,20.715640625,0.003741546766832471,0.16065743565559387,-0.00946840364485979
1781799419608160800,20.764160888671874,0.013515383005142212,0.19425499439239502,-0.047723811119794846
1781799419656681500,20.812681396484376,0.0029779658652842045,0.16004657745361328,-0.03000873140990734
1781799419705201700,20.86120166015625,0.019700389355421066,0.1052214577794075,-0.03428478538990021
1781799419753722000,20.90972216796875,0.01718057133257389,0.005039634648710489,-0.05062541738152504
1781799419802242300,20.9582421875,-0.004123337101191282,-0.07719803601503372,-0.0204639695584774
1781799419850762800,21.0067626953125,0.003359756199643016,-0.11690424382686615,-0.03962985426187515
1781799419899283000,21.055282958984375,0.02084576152265072,-0.18616104125976562,-0.024892739951610565
1781799419947803600,21.1038037109375,-0.015729768201708794,-0.1637117564678192,-0.02023489587008953
1781799419996323800,21.15232373046875,-0.002901607658714056,-0.0922405794262886,-0.008017600513994694
1781799420044844000,21.200843994140627,-0.03107774630188942,-0.11568251997232437,0.016035201027989388
1781799420093364500,21.249364501953124,-0.07872519642114639,0.004810560029000044,0.0005345066892914474
1781799420141884700,21.297884765625,-0.1960112303495407,-0.0034361144062131643,0.015958841890096664
1781799420190405000,21.346405029296875,-0.17417281866073608,-0.006185005884617567,-0.009697478264570236
1781799420287446000,21.443446044921874,0.03390299528837204,-0.17088942229747772,-0.013133592903614044
1781799420335966200,21.49196630859375,0.014584396965801716,-0.13561198115348816,-0.06971494108438492
1781799420384486700,21.540486572265625,-0.0591011680662632,0.026648975908756256,-0.013897174037992954
1781799420433006800,21.5890068359375,0.015729768201708794,0.28092142939567566,-0.010461059398949146
1781799420481527300,21.63752734375,0.037720900028944016,0.4889208972454071,-0.014508038759231567
1781799420530047500,21.686047607421877,-0.041386090219020844,-0.018173227086663246,0.017867794260382652
1781799420578568200,21.734568115234374,0.00603228947147727,0.05497783049941063,-0.021914774551987648
1781799420627088400,21.78308837890625,-0.02458730712532997,0.0781143307685852,-0.021914774551987648
1781799420675608800,21.83160888671875,-0.05429060757160187,0.20723587274551392,-0.010461059398949146
1781799420724129000,21.88012890625,-0.06551524996757507,0.33307403326034546,0.007254019379615784
1781799420772649500,21.9286494140625,-0.054901473224163055,0.35529422760009766,0.038789913058280945
1781799420821169700,21.977169677734373,-0.03558287397027016,0.2787834107875824,0.030466880649328232
1781799420869689900,22.02568994140625,-0.019700389355421066,0.1300378441810608,0.013515383005142212
1781799420918210300,22.074210205078124,-0.013362666592001915,-0.0449749194085598,0.012675444595515728
1781799420966730500,22.12273046875,0.004963276442140341,-0.2156352698802948,0.010079269297420979
1781799421015251200,22.171251220703127,0.019624030217528343,-0.3638463318347931,0.013286309316754341
1781799421063771400,22.219771484375,0.0206166859716177,-0.4240165054798126,0.016035201027989388
1781799421112291800,22.268291748046874,0.01107192412018776,-0.37148213386535645,-0.004123337101191282
1781799421160812000,22.31681201171875,0.0038179049734026194,-0.29504770040512085,0.0015271619195118546
1781799421209332500,22.36533251953125,0.008704823441803455,-0.17447824776172638,0.012370011769235134
1781799421257852700,22.413852783203126,0.014508038759231567,-0.09185878932476044,0.022296564653515816
1781799421306373000,22.462373046875,0.00679587060585618,-0.013286309316754341,-0.0025198173243552446
1781799421354893300,22.510893310546876,0.01435532234609127,0.018555017188191414,-0.005650499369949102
1781799421403413800,22.559413818359374,0.010842849500477314,0.02237292192876339,-0.007635809946805239
1781799421451934000,22.607933837890624,0.0025961752980947495,0.03764454275369644,-0.021685699000954628
1781799421500454700,22.65645458984375,-0.0011453714687377214,0.0386371985077858,-0.0017562361899763346
1781799421548974800,22.704974853515626,-0.0023671009112149477,0.06146826967597008,0.004123337101191282
1781799421597495300,22.753495361328124,-0.005803215317428112,0.07200568914413452,-0.003359756199643016
1781799421646015500,22.802015380859373,-0.0001527161948615685,0.06559160351753235,-0.0010690133785828948
1781799421694536000,22.850535888671875,0.0006872228696011007,0.06856957077980042,-0.011759147047996521
1781799421743056100,22.89905615234375,0.003970621153712273,0.06039925664663315,-0.017867794260382652
1781799421791576300,22.947576416015625,0.003970621153712273,0.05070177838206291,-0.01779143698513508
1781799421840096800,22.9960966796875,0.0015271619195118546,0.034437503665685654,-0.020693045109510422
1781799421888617000,23.044616943359376,0.004199695307761431,0.013820815831422806,-0.012980876490473747
1781799421937137400,23.093137451171874,0.003512472379952669,0.0009926552884280682,-0.018173227086663246
1781799421985657600,23.14165771484375,-0.0006872228696011007,-0.014049889519810677,-0.01824958436191082
1781799422034178000,23.190177978515624,0.0011453714687377214,-0.024510949850082397,-0.01030834298580885
1781799422082698500,23.238698486328126,0.0007635809597559273,-0.028328854590654373,-0.014202605932950974
1781799422131219000,23.287218994140623,0.004428769461810589,-0.02626718580722809,-0.021914774551987648
1781799422179739100,23.3357392578125,0.002290742937475443,-0.01977674663066864,-0.0206166859716177
1781799422228259600,23.384259521484374,-0.0013744457392022014,-0.018784092739224434,-0.012675444595515728
1781799422276779800,23.43277978515625,-0.007635809946805239,-0.000610864779446274,-0.018631376326084137
1781799422325300200,23.48130029296875,-0.006872228812426329,0.011759147047996521,-0.014737112447619438
1781799422373820400,23.5298203125,-0.00603228947147727,0.026190826669335365,-0.015958841890096664
1781799422422340900,23.5783408203125,-0.008017600513994694,0.032910339534282684,-0.016569707542657852
1781799422470861000,23.626861083984377,-0.004734201822429895,0.02741255611181259,-0.014737112447619438
1781799422519381500,23.675381591796874,-0.007254019379615784,0.020311253145337105,-0.016646064817905426
1781799422567901700,23.723901611328124,-0.007254019379615784,0.009392046369612217,-0.011682788841426373
1781799422616422000,23.772421875,-0.009010255336761475,0.0035888305865228176,-0.009086613543331623
1781799422664942300,23.8209423828125,-0.008246674202382565,0.0013744457392022014,-0.014584396965801716
1781799422713462500,23.869462646484376,-0.005803215317428112,0.010766491293907166,-0.016035201027989388
1781799422761983000,23.91798291015625,-0.012980876490473747,0.011148282326757908,-0.0021380267571657896
1781799422810503200,23.966503173828126,-0.011759147047996521,0.006337722297757864,-0.0013744457392022014
1781799422859023600,24.015023681640624,-0.008399390615522861,-0.002290742937475443,-0.010079269297420979
1781799422907543800,24.063543701171874,-0.007406735327094793,-0.0012980876490473747,-0.01511890348047018
1781799422956064500,24.112064453125,-0.009926552884280682,-0.00022907429956831038,-0.008246674202382565
1781799423004584700,24.160584716796876,-0.013362666592001915,-0.0016035200096666813,-0.0013744457392022014
1781799423053105200,24.209105224609374,-0.010842849500477314,-0.004886918235570192,-0.0025198173243552446
1781799423101625300,24.257625244140623,-0.004963276442140341,-0.009392046369612217,-0.013286309316754341
1781799423150145800,24.306145751953125,-0.004123337101191282,0,-0.01435532234609127
1781799423198666000,24.354666015625,-0.010919207707047462,0.004276053514331579,0.0010690133785828948
1781799423247186400,24.4031865234375,-0.007864884100854397,0.014278964139521122,-0.007483093533664942
1781799423295706600,24.45170654296875,-0.01206457894295454,0.017715077847242355,-0.007788525894284248
1781799423344227000,24.50022705078125,-0.006185005884617567,0.010995565913617611,0.0025961752980947495
1781799423392747300,24.548747314453124,-0.016416991129517555,0.015042545273900032,0.0027488914784044027
1781799423441267700,24.597267822265625,-0.012904518283903599,0.024205517023801804,-0.005803215317428112
1781799423489788000,24.645787841796874,-0.011453714221715927,0.03962985426187515,-0.00946840364485979
1781799423538308000,24.69430810546875,-0.010079269297420979,0.03962985426187515,-0.01824958436191082
1781799423586828500,24.74282861328125,-0.005192350596189499,0.030466880649328232,-0.013286309316754341
1781799423635348700,24.7913486328125,-0.004581485874950886,0.01847865991294384,-0.009697478264570236
1781799423683869200,24.839869140625,-0.0019089524867013097,0.00954476185142994,-0.012751801870763302
1781799423732389400,24.888389404296873,0.000305432389723137,0.007941242307424545,-0.013133592903614044
1781799423780909800,24.936909912109375,-0.003512472379952669,-0.00038179047987796366,-0.00923932995647192
1781799423829430000,24.985429931640624,-0.007635809946805239,0.0005345066892914474,-0.005650499369949102
1781799423877950500,25.033950439453125,-0.004810560029000044,-0.002061668550595641,-0.003970621153712273
1781799423926470700,25.082470703125,-0.005421424750238657,0.004657844081521034,-0.007635809946805239
1781799423974991000,25.1309912109375,-0.005650499369949102,0.004657844081521034,-0.008399390615522861
1781799424023511300,25.17951123046875,-0.007177661173045635,-0.0031306820455938578,-0.0019853105768561363
1781799424072031700,25.22803173828125,-0.0025961752980947495,-0.004123337101191282,-0.012370011769235134
1781799424120552000,25.276552001953124,0.0012980876490473747,-0.0022143847309052944,-0.019242240116000175
1781799424169072400,25.325072265625,0.0001527161948615685,-0.002443459117785096,-0.015958841890096664
1781799424217592600,25.373592529296875,-0.0006872228696011007,-0.0054977829568088055,-0.01206457894295454
1781799424266113000,25.422113037109376,0.0010690133785828948,-0.008628465235233307,-0.015729768201708794
1781799424314633200,25.47063330078125,0.0010690133785828948,-0.004276053514331579,-0.017256930470466614
1781799424363153400,25.5191533203125,0.0005345066892914474,-0.0012980876490473747,-0.011682788841426373
1781799424411673900,25.567673828125,-0.0021380267571657896,0.001221729558892548,-0.017027854919433594
1781799424460194000,25.616194091796874,-0.0029779658652842045,-0.001450803829357028,-0.01206457894295454
1781799424508714800,25.66471484375,0.002290742937475443,-0.0009926552884280682,-0.012980876490473747
1781799424557235000,25.71323486328125,0.003741546766832471,0.000839939049910754,-0.01779143698513508
1781799424605755400,25.76175537109375,0.004352411720901728,-0.0034361144062131643,-0.015729768201708794
1781799424654275600,25.810275634765624,0.002290742937475443,-0.008552107028663158,-0.01779143698513508
1781799424702796000,25.858796142578125,0.00923932995647192,-0.003741546766832471,-0.026419902220368385
1781799424751316200,25.907316162109375,0.0027488914784044027,-0.009621120058000088,-0.01908952370285988
1781799424799836700,25.955836669921876,0.004810560029000044,-0.006719512399286032,-0.014966187067329884
1781799424848356900,26.00435693359375,0.00045814859913662076,-0.008399390615522861,-0.007177661173045635
1781799424896877300,26.052877197265627,-0.0001527161948615685,-0.013286309316754341,-0.00946840364485979
1781799424945397500,26.1013974609375,-0.0007635809597559273,-0.014049889519810677,-0.010690134018659592
1781799424993918000,26.14991796875,-0.003970621153712273,-0.01649334840476513,-0.011911863461136818
1781799425042438100,26.198438232421875,0.0035888305865228176,-0.01107192412018776,-0.009010255336761475
1781799425090958600,26.24695849609375,-0.0006872228696011007,-0.0012980876490473747,-0.013133592903614044
1781799425139478800,26.295478759765626,0.0031306820455938578,0.00511599238961935,-0.016187917441129684
1781799425187999000,26.3439990234375,0.0038179049734026194,0.0032070400193333626,-0.011759147047996521
1781799425236519400,26.39251953125,0.0005345066892914474,0.004276053514331579,-0.00946840364485979
1781799425285039600,26.44103955078125,-0.0025961752980947495,0.002825249684974551,-0.008017600513994694
1781799425333560000,26.48956005859375,-0.001679878099821508,0.0077121676877141,-0.008017600513994694
1781799425382080300,26.538080322265625,-0.01107192412018776,-0.002901607658714056,-0.0025961752980947495
1781799425430600700,26.5866005859375,-0.01511890348047018,-0.022678354755043983,-0.00045814859913662076
1781799425479121000,26.635120849609375,-0.02458730712532997,-0.05803215503692627,0.02306014485657215
1781799425527641300,26.683641357421877,-0.027030766010284424,-0.09124792367219925,0.035124726593494415
1781799425576161500,26.73216162109375,0.0038179049734026194,-0.1000291109085083,0.032681263983249664
1781799425624682000,26.780681884765624,0.05978839099407196,-0.10247256606817245,0.0012980876490473747
1781799425673202200,26.8292021484375,0.026801692321896553,-0.10201441496610641,-0.04230238497257233
1781799425721722600,26.87772265625,0.040775224566459656,-0.07498364895582199,-0.06215549260377884
1781799425770242800,26.926242919921876,0.0243582334369421,-0.07796161621809006,-0.01824958436191082
1781799425818763300,26.97476318359375,0.031841326504945755,-0.04176788032054901,-0.018860450014472008
1781799425867283500,27.023283447265626,0.009315688163042068,-0.11140646785497665,0.025350889191031456
1781799425915804000,27.071803955078124,-0.02306014485657215,-0.13095413148403168,-0.008246674202382565
1781799425964324000,27.120323974609374,-0.016035201027989388,-0.20609050989151,0.02825249545276165
1781799426012844300,27.16884423828125,-0.027947064489126205,-0.19188790023326874,0.041615162044763565
1781799426061364700,27.21736474609375,-0.024740023538470268,-0.14378230273723602,0.025961752980947495
1781799426109885000,27.265885009765626,-0.014966187067329884,-0.1375209391117096,0.031841326504945755
1781799426158405400,27.3144052734375,0.003359756199643016,-0.11873684078454971,0.006185005884617567
1781799426206925600,27.362925537109376,0.012140937149524689,-0.13904809951782227,0.013744457624852657
1781799426255446000,27.411446044921874,-0.004581485874950886,-0.09819651395082474,0.012522728182375431
1781799426303966200,27.45996630859375,0.004428769461810589,-0.1066722646355629,0.013286309316754341
1781799426352486700,27.508486572265625,-0.0066431546583771706,-0.056199558079242706,0.008399390615522861
1781799426401006800,27.5570068359375,0.0006872228696011007,-0.03321577236056328,-0.004199695307761431
1781799426449527300,27.60552734375,0.004428769461810589,-0.0256563201546669,-0.007177661173045635
1781799426498047500,27.654047607421877,-0.01206457894295454,-0.056428633630275726,-0.012751801870763302
1781799426546568000,27.70256787109375,0.000305432389723137,-0.08743002265691757,-0.020311253145337105
1781799426595088100,27.751088134765624,-0.008857538923621178,-0.08170316368341446,-0.02458730712532997
1781799426643608600,27.799608642578125,0.004963276442140341,-0.09308052062988281,-0.041004300117492676
1781799426692128800,27.848128662109374,0.03191768378019333,-0.10285435616970062,-0.016569707542657852
1781799426740649200,27.896649169921876,-0.0006872228696011007,-0.07131846249103546,0.0066431546583771706
1781799426789169400,27.94516943359375,-0.018631376326084137,0.06207913160324097,0.012370011769235134
1781799426837689600,27.993689697265626,-0.025503603741526604,0.07353284955024719,0.009010255336761475
1781799426886210000,28.0422099609375,0.016187917441129684,-0.06375901401042938,-0.009697478264570236
1781799426934730200,28.090730224609374,0.01107192412018776,-0.13744457066059113,-0.00679587060585618
1781799426983250700,28.139250732421875,-0.05177079141139984,-0.03237583488225937,0.005192350596189499
1781799427031771000,28.18777099609375,0.006872228812426329,-0.09246965497732162,0.013286309316754341
1781799427080291300,28.236291259765625,-0.05933023989200592,0.17860159277915955,0.03756818547844887
1781799427128811500,28.2848115234375,-0.04321868345141411,0.16424626111984253,-0.02977965772151947
1781799427177332000,28.33333203125,-0.0025961752980947495,0.17531819641590118,-0.017562363296747208
1781799427225852200,28.38185205078125,-0.0902552679181099,0.014431680552661419,0.017027854919433594
1781799427274372600,28.43037255859375,0.06788235157728195,0.20074543356895447,-0.0639880821108818
1781799427322892800,28.478892822265625,-0.04321868345141411,0.14866921305656433,0.09666935354471207
1781799427371413200,28.527413330078126,0.011453714221715927,0.2732856273651123,0.002290742937475443
1781799427419933400,28.575933349609375,-0.011911863461136818,0.29886558651924133,-0.00923932995647192
1781799427468454000,28.624453857421877,0.05604684352874756,0.21616977453231812,0.03130681812763214
1781799427516974000,28.67297412109375,0.13713914155960083,-0.05108356848359108,-0.03245219215750694
1781799427565494500,28.72149462890625,0.016569707542657852,-0.20593778789043427,-0.11331541836261749
1781799427614014700,28.7700146484375,0.024281874299049377,-0.14882193505764008,-0.13164135813713074
1781799427662535000,28.818534912109374,0.09239330142736435,0.022754713892936707,-0.04894553869962692
1781799427711055400,28.867055419921876,0.08437569439411163,-0.03611737862229347,-0.12331832945346832
1781799427759575600,28.915575439453125,0.06368265300989151,0.06925679743289948,-0.1398116797208786
1781799427808096000,28.964095947265626,0.0732274129986763,0.1386663019657135,-0.13309216499328613
1781799427856616200,29.0126162109375,0.07254019379615784,0.18463388085365295,-0.07276926934719086
1781799427905136600,29.06113671875,0.1343138962984085,0.3410916328430176,-0.04627300798892975
1781799427953656800,29.10965673828125,0.09827287495136261,0.24289511144161224,0.05406153202056885
1781799428002177300,29.15817724609375,0.06711876392364502,0.26366451382637024,-0.0035888305865228176
1781799428050697200,29.206697265625,0.0154243353754282,0.06436987966299057,-0.027030766010284424
1781799428099217700,29.2552177734375,-0.03451386094093323,-0.1527925580739975,-0.10888664424419403
1781799428147737900,29.30373779296875,-0.10254892706871033,-0.27779075503349304,-0.1104138121008873
1781799428196258300,29.35225830078125,0.004963276442140341,-0.43226319551467896,-0.15057817101478577
1781799428244778500,29.400778564453127,0.09437860548496246,-0.47036588191986084,-0.16447533667087555
1781799428293299000,29.449298828125,0.02756527252495289,-0.3292561173439026,-0.1334739476442337
1781799428341819100,29.497819091796874,0.005574141163378954,-0.12377647310495377,-0.03940077871084213
1781799428390339600,29.546339599609375,-0.026343543082475662,0.09766200929880142,0.011453714221715927
1781799428438859800,29.59485986328125,-0.05978839099407196,0.2781725525856018,0.023747367784380913
1781799428487380000,29.6433798828125,0.02367101050913334,0.33536475896835327,0.013973532244563103
1781799428535900400,29.691900390625,-0.06765327602624893,0.44814568758010864,0.07506000995635986
1781799428584420600,29.740420654296877,-0.0011453714687377214,0.5403862595558167,0.016569707542657852
1781799428632941000,29.788941162109374,-0.20517420768737793,0.5286270976066589,0.1813504844903946
1781799428681461200,29.837461181640624,0.018860450014472008,0.21281002461910248,-0.08200860023498535
1781799428729981700,29.885981689453125,0.020082179456949234,0.19364413619041443,-0.005345067009329796
1781799428778502000,29.934501953125,-0.049632761627435684,0.304974228143692,-0.009315688163042068
1781799428827022300,29.983022216796876,-0.06704241037368774,0.33574655652046204,-0.03145953640341759
1781799428875542500,30.03154248046875,-0.10697769373655319,0.4058432877063751,0.02672533318400383
1781799428924063000,30.08006298828125,-0.03245219215750694,0.3534616231918335,-0.03000873140990734
1781799428972583200,30.128583251953124,0.037949975579977036,0.304974228143692,-0.0628427118062973
1781799429021103600,30.177103515625,0.05085449293255806,0.28870996832847595,-0.07750347256660461
1781799429069623800,30.225623779296875,-0.001679878099821508,0.17486004531383514,0.016569707542657852
1781799429118144300,30.274144287109376,-0.12064579129219055,-0.030772313475608826,-0.022449281066656113
1781799429166664400,30.32266455078125,-0.03283398225903511,-0.24930918216705322,0.041004300117492676
1781799429215185000,30.371184814453127,0.008704823441803455,-0.3502545952796936,0.09147699922323227
1781799429263705000,30.419705078125,-0.02741255611181259,-0.2903898358345032,0.04833467677235603
1781799429312225300,30.468225341796874,-0.049632761627435684,-0.20288346707820892,0.01206457894295454
1781799429360745700,30.516745849609375,-0.03894263133406639,-0.12301289290189743,0.016035201027989388
1781799429409266000,30.565265869140624,-0.0017562361899763346,-0.11751510947942734,0.05627591907978058
1781799429457786400,30.613786376953126,0.0013744457392022014,-0.13790272176265717,0.04841103404760361
1781799429506306600,30.662306640625,0.0006872228696011007,-0.14866921305656433,-0.0019853105768561363
1781799429554827000,30.710826904296876,0.022907428443431854,-0.1628718227148056,-0.0021380267571657896
1781799429603347200,30.75934716796875,0.02130390889942646,-0.09430225193500519,0.005192350596189499
1781799429651867400,30.807867431640624,-0.015195261687040329,0.08025235682725906,0.0062613640911877155
1781799429700387600,30.8563876953125,-0.05917752534151077,0.27550002932548523,0.014584396965801716
1781799429748908000,30.904907958984374,-0.05222893878817558,0.41408994793891907,-0.008628465235233307
1781799429797428200,30.95342822265625,-0.02672533318400383,0.47639816999435425,-0.0461202897131443
1781799429845948700,31.00194873046875,-0.004581485874950886,0.47784897685050964,-0.09086613357067108
1781799429894468900,31.05046875,0.012370011769235134,0.45097091794013977,-0.10247256606817245
1781799429942989300,31.0989892578125,0.004123337101191282,0.3716348707675934,-0.07948877662420273
1781799429991509500,31.147509521484373,-0.01511890348047018,0.2620609998703003,-0.03306305781006813
1781799430040029700,31.19602978515625,-0.038560837507247925,0.1573740392923355,-0.006566796451807022
1781799430088550100,31.244550048828124,-0.04024071618914604,0.005650499369949102,0.0032070400193333626
1781799430137070300,31.2930703125,-0.01908952370285988,-0.15439607203006744,0.03107774630188942
1781799430185590800,31.3415908203125,-0.027336198836565018,-0.2179260104894638,0.0383317656815052
1781799430234111000,31.390111083984376,-0.05711585655808449,-0.1905898153781891,0.054901473224163055
1781799430282631400,31.43863134765625,-0.08414662629365921,-0.11262819170951843,0.07559451460838318
1781799430331151600,31.487151611328127,-0.11285726726055145,-0.08132137358188629,0.11552979797124863
1781799430379672000,31.535672119140624,-0.09239330142736435,0.040317077189683914,0.05917752534151077
1781799430428192300,31.584192138671874,-0.031230462715029716,0.08811724185943604,-0.04321868345141411
1781799430476712700,31.632712646484375,0.012904518283903599,0.04413498193025589,-0.0807105079293251
1781799430525233000,31.68123291015625,0.01107192412018776,-0.0639880821108818,-0.0591011680662632
1781799430573753000,31.729753173828126,-0.0015271619195118546,-0.2338084876537323,-0.05299251899123192
1781799430622273300,31.778273193359375,-0.009621120058000088,-0.38530296087265015,-0.04108065739274025
1781799430670793700,31.826793701171876,-0.04657844081521034,-0.37026041746139526,0.03130681812763214
1781799430719314000,31.87531396484375,-0.0461202897131443,-0.4206567704677582,0.016035201027989388
1781799430767834400,31.92383447265625,-0.04657844081521034,-0.22090397775173187,0.03405570983886719
1781799430816354600,31.9723544921875,-0.061391908675432205,-0.026648975908756256,0.02214384824037552
1781799430864874800,32.020874755859374,-0.03802633285522461,0.09873101860284805,-0.009850194677710533
1781799430913395200,32.06939526367187,-0.0023671009112149477,0.11033745110034943,-0.027336198836565018
1781799430961915400,32.117915283203125,0.025809036567807198,0.02825249545276165,-0.04734202101826668
1781799431010435800,32.16643579101562,0.057726722210645676,-0.08468113094568253,-0.022525638341903687
1781799431058956000,32.2149560546875,0.019242240116000175,-0.11285726726055145,-0.0019853105768561363
1781799431107476500,32.2634765625,0.011300998739898205,-0.12690715491771698,0.008246674202382565
1781799431155996700,32.31199658203125,0.03367391973733902,-0.10239620506763458,0.005421424750238657
1781799431204517000,32.36051708984375,0.05688678100705147,-0.12133301794528961,0.0009162971982732415
1781799431253037300,32.40903735351562,0.031230462715029716,0.04604393243789673,-0.009697478264570236
1781799431301557500,32.4575576171875,0.13271036744117737,0.18081597983837128,0.015806125476956367
1781799431350077700,32.50607763671875,-0.011682788841426373,0.24144430458545685,0.0102319847792387
1781799431398598100,32.55459814453125,-0.08498656004667282,-0.07192932814359665,-0.03955349326133728
1781799431447118300,32.60311840820312,0.004810560029000044,-0.4139372408390045,-0.030466880649328232
1781799431495638800,32.651638671875,0.011530072428286076,-0.5953640937805176,0.014508038759231567
1781799431544159000,32.700158935546874,-0.03535379841923714,-0.43745553493499756,0.07506000995635986
1781799431592679400,32.74867944335937,-0.057726722210645676,-0.04566214233636856,0.05833758786320686
1781799431641199600,32.79719970703125,0.008017600513994694,0.30138540267944336,-0.011759147047996521
1781799431689719800,32.8457197265625,0.0011453714687377214,0.4430296719074249,-0.0691804364323616
1781799431738240300,32.894240234375,-0.041615162044763565,0.35101816058158875,-0.04024071618914604
1781799431786760400,32.94276049804687,-0.06123919412493706,0.12583814561367035,-0.003741546766832471
1781799431835281000,32.99128100585938,-0.04940368980169296,-0.11239911615848541,0.015347977168858051
1781799431883801000,33.039801025390624,0.007024944759905338,-0.20547963678836823,0.08804088830947876
1781799431932321300,33.0883212890625,0.0308486707508564,-0.22884522378444672,0.11194097250699997
1781799431980841500,33.136841552734374,0.14141519367694855,-0.4102720618247986,0.04260781779885292
1781799432029362000,33.18536181640625,0.04199695214629173,-0.3614792227745056,0.005421424750238657
1781799432077882000,33.233882080078125,0.0501672700047493,-0.3634645342826843,0.0001527161948615685
1781799432126402600,33.28240258789062,-0.019242240116000175,0.014278964139521122,-0.06627883017063141
1781799432174922800,33.3309228515625,-0.026572618633508682,0.17860159277915955,-0.0334448479115963
1781799432223443200,33.37944311523437,-0.0243582334369421,0.2551124095916748,-0.016340631991624832
1781799432271963400,33.42796337890625,-0.030466880649328232,0.3520108163356781,0.0006872228696011007
1781799432320483800,33.47648388671875,-0.02153298258781433,0.4638754427433014,0.018784092739224434
1781799432369004000,33.52500415039062,-0.015958841890096664,0.32612544298171997,0.0013744457392022014
1781799432417524000,33.57352392578125,0.0019853105768561363,0.18814635276794434,-0.06276635825634003
1781799432466044400,33.62204443359375,0.02390008419752121,-0.07009673118591309,0.016569707542657852
1781799432514564600,33.670564697265625,0.020082179456949234,-0.20219624042510986,0.041844237595796585
1781799432563085000,33.7190849609375,0.0066431546583771706,-0.20631958544254303,0.019700389355421066
1781799432611605200,33.767605224609376,-0.009086613543331623,-0.11690424382686615,0.01511890348047018
1781799432660125700,33.816125732421874,0.026801692321896553,0.00847574882209301,-0.0591011680662632
1781799432708646000,33.86464599609375,0.04306596517562866,-0.03504836559295654,-0.06322450190782547
1781799432757166300,33.913166259765624,-0.02084576152265072,-0.2170860767364502,0.04505127668380737
1781799432805686500,33.9616865234375,-0.051159925758838654,-0.36476263403892517,0.07376192510128021
1781799432854207000,34.01020703125,-0.018860450014472008,-0.29367324709892273,0.019013166427612305
1781799432902727000,34.05872680664063,0.011148282326757908,-0.03550651669502258,0.007254019379615784
1781799432951247400,34.107247314453126,0.053603384643793106,0.2107483446598053,-0.05894844979047775
1781799432999767600,34.155767578125,0.05345066636800766,0.31635159254074097,-0.09987638890743256
1781799433048288000,34.2042880859375,0.0732274129986763,0.24976733326911926,-0.058795735239982605
1781799433096808200,34.25280810546875,0.048563748598098755,0.18241949379444122,-0.05261072888970375
1781799433145328600,34.30132861328125,0.0005345066892914474,0.1446985900402069,-0.03474293276667595
1781799433193848800,34.349848876953125,0.012904518283903599,0.12331832945346832,-0.016340631991624832
1781799433242369000,34.398369140625,0.0035888305865228176,0.048792824149131775,-0.03252854943275452
1781799433290889500,34.446889404296876,-0.004428769461810589,0.0642935186624527,-0.05406153202056885
1781799433339409700,34.49540966796875,0.005803215317428112,0.1401171088218689,-0.02367101050913334
1781799433387929900,34.543929931640626,0.016416991129517555,0.15905392169952393,-0.004734201822429895
1781799433436450000,34.59244995117187,0.00946840364485979,0.2044106274843216,-0.006414080038666725
1781799433484970500,34.64097045898438,-0.017867794260382652,0.16126830875873566,-0.019853105768561363
1781799433533490700,34.68949072265625,0.014508038759231567,0.10827577859163284,-0.04474584385752678
1781799433582011100,34.73801123046875,0.05513054504990578,0.015500693581998348,-0.04108065739274025
1781799433630531300,34.78653125,0.07223475724458694,-0.15515965223312378,-0.044898562133312225
1781799433679051800,34.8350517578125,0.014202605932950974,-0.18860450387001038,-0.022525638341903687
1781799433727572000,34.883572021484376,-0.012751801870763302,-0.11919499188661575,0.013133592903614044
1781799433776092200,34.93209204101562,-0.025809036567807198,0.04520399495959282,-0.0009162971982732415
1781799433824612400,34.9806123046875,0.0025198173243552446,0.10201441496610641,-0.001679878099821508
1781799433873132800,35.0291328125,0.021685699000954628,0.024205517023801804,-0.003970621153712273
1781799433921653000,35.07765307617188,0.031841326504945755,-0.16531528532505035,-0.0383317656815052
1781799433970173400,35.12617333984375,0.008857538923621178,-0.27107125520706177,-0.022907428443431854
1781799434018693600,35.17469360351563,0.026572618633508682,-0.2883281707763672,0.032681263983249664
1781799434067213800,35.2232138671875,0.030695954337716103,-0.20532692968845367,0.009010255336761475
1781799434115734000,35.27173413085937,-0.0023671009112149477,-0.06604975461959839,-0.02519817277789116
1781799434164254200,35.320254150390625,0.00007635809743078426,0.1066722646355629,-0.05871937796473503
1781799434212774700,35.36877465820312,-0.005421424750238657,0.2467893660068512,-0.07628174126148224
1781799434261294800,35.417294921875,-0.02328922040760517,0.2796997129917145,-0.06643154472112656
1781799434309815300,35.46581518554687,-0.02458730712532997,0.2009745091199875,-0.04222602769732475
1781799434358335500,35.51433544921875,0.005955931730568409,0.04634936526417732,-0.005574141163378954
1781799434406856000,35.56285595703125,-0.009086613543331623,-0.005268708802759647,-0.014737112447619438
1781799434455376100,35.61137622070312,-0.05696314200758934,0.1490510106086731,-0.04505127668380737
1781799434503896300,35.659896240234374,-0.04230238497257233,0.4045451879501343,-0.042073313146829605
1781799434552416500,35.70841650390625,0.016798781231045723,0.5086212754249573,-0.03497200831770897
1781799434600937000,35.75693701171875,0.022525638341903687,0.39133524894714355,-0.04230238497257233
1781799434649457200,35.80545703125,-0.010079269297420979,0.20746494829654694,-0.04634936526417732
1781799434697977600,35.8539775390625,-0.0902552679181099,0.0386371985077858,0.010537417605519295
1781799434746497800,35.90249780273437,-0.05994110554456711,-0.12347104400396347,0.09353867173194885
1781799434795017700,35.95101782226563,-0.0899498388171196,-0.15187625586986542,0.12820523977279663
1781799434843538200,35.9995380859375,-0.1856265366077423,-0.1534034162759781,0.12812888622283936
1781799434892058400,36.04805834960938,-0.12957969307899475,-0.2885572612285614,0.0948367565870285
1781799434940578800,36.096578857421875,-0.04024071618914604,-0.4333322048187256,0.04451677203178406
1781799434989099000,36.14509912109375,-0.004352411720901728,-0.4508945643901825,0.016187917441129684
1781799435037619500,36.193619384765626,0.014202605932950974,-0.310166597366333,0.006566796451807022
1781799435086139600,36.2421396484375,0.024510949850082397,-0.03153589367866516,0.013362666592001915
1781799435134659800,36.290659912109376,0.022754713892936707,0.19708025455474854,-0.0591011680662632
1781799435183180000,36.33917993164062,-0.008857538923621178,0.22441644966602325,-0.08804088830947876
1781799435231700500,36.38770043945313,-0.016646064817905426,0.054901473224163055,-0.022754713892936707
1781799435280220700,36.436220703125,-0.012751801870763302,-0.15065452456474304,0.04413498193025589
1781799435328741000,36.4847412109375,-0.011148282326757908,-0.20853395760059357,0.029474224895238876
1781799435377261300,36.53326123046875,0.015577051788568497,-0.12217295914888382,-0.02306014485657215
1781799435425781500,36.58178149414063,0.025809036567807198,-0.0487164668738842,-0.018402300775051117
1781799435474301700,36.6303017578125,0.029626941308379173,-0.08636100590229034,-0.027336198836565018
1781799435522822000,36.67882177734375,0.034895651042461395,-0.12812888622283936,-0.047952886670827866
1781799435571342300,36.72734228515625,0.061162836849689484,-0.1066722646355629,-0.07506000995635986
1781799435619862500,36.77586254882812,0.07055488228797913,-0.08674279600381851,-0.07589995115995407
1781799435668382700,36.8243828125,0.06307178735733032,-0.1352301836013794,-0.05299251899123192
1781799435716903000,36.87290283203125,0.03191768378019333,-0.18761184811592102,-0.022067490965127945
1781799435765423400,36.92142333984375,-0.007635809946805239,-0.14706569910049438,0.012140937149524689
1781799435813943600,36.969943603515624,-0.011759147047996521,-0.02695440873503685,0.001679878099821508
1781799435862464000,37.01846411132812,-0.02023489587008953,0.15836669504642487,-0.02153298258781433
1781799435910984200,37.066984130859375,-0.006566796451807022,0.28733551502227783,-0.03252854943275452
1781799435959504400,37.11550439453125,0.016416991129517555,0.2934441566467285,-0.04428769648075104
1781799436008024600,37.164024658203125,0.025579962879419327,0.1876882016658783,-0.052687086164951324
1781799436056545000,37.212544921875,0.03588830679655075,0.0435241162776947,-0.048563748598098755
1781799436105065200,37.261065185546876,0.013362666592001915,-0.06818778067827225,-0.0243582334369421
1781799436153585700,37.309585693359374,-0.006566796451807022,-0.14217877388000488,-0.003359756199643016
1781799436202105900,37.35810595703125,-0.011453714221715927,-0.17569997906684875,-0.010537417605519295
1781799436250625800,37.40662573242187,0.01908952370285988,-0.2176969349384308,-0.018860450014472008
1781799436299146200,37.45514624023438,0.035735588520765305,-0.23014330863952637,-0.009697478264570236
1781799436347666400,37.50366650390625,0.01435532234609127,-0.15966477990150452,-0.008246674202382565
1781799436396187000,37.55218676757813,-0.017256930470466614,0.012446369975805283,-0.016187917441129684
1781799436444707000,37.60070703125,-0.022678354755043983,0.2067013680934906,-0.0021380267571657896
1781799436493227300,37.64922729492187,-0.04535670951008797,0.3337612450122833,0.011530072428286076
1781799436541747500,37.69774755859375,-0.05917752534151077,0.3719402849674225,0.0062613640911877155
1781799436590268000,37.74626782226562,-0.04550942778587341,0.33001968264579773,0.003970621153712273
1781799436638788000,37.7947880859375,-0.005574141163378954,0.21464261412620544,-0.009926552884280682
1781799436687308500,37.84330859375,0.007177661173045635,0.08261945843696594,-0.024892739951610565
1781799436735828500,37.891828369140626,0.0035888305865228176,-0.047723811119794846,-0.006872228812426329
1781799436784349000,37.940348876953124,-0.004810560029000044,-0.13561198115348816,0.01511890348047018
1781799436832869000,37.988869140625,-0.017027854919433594,-0.18616104125976562,0.022067490965127945
1781799436881389600,38.0373896484375,-0.018784092739224434,-0.2092975378036499,0.014202605932950974
1781799436929909800,38.08590966796875,-0.005039634648710489,-0.2009745091199875,0.005039634648710489
1781799436978429700,38.1344296875,0.008857538923621178,-0.17600540816783905,-0.0032070400193333626
1781799437026950100,38.1829501953125,0.011148282326757908,-0.15095995366573334,-0.0027488914784044027
1781799437075470300,38.23147021484375,0.006185005884617567,-0.09812015295028687,-0.016569707542657852
1781799437123990800,38.27999072265625,0.004581485874950886,-0.03886627033352852,-0.008628465235233307
1781799437172511000,38.328510986328126,0.0009162971982732415,0.01588248461484909,-0.008704823441803455
1781799437221031200,38.37703125,0.003512472379952669,0.05459604039788246,-0.021685699000954628
1781799437269551400,38.42555126953125,0.005574141163378954,0.05818486958742142,-0.025809036567807198
1781799437318071800,38.47407177734375,0.0010690133785828948,0.03543015569448471,-0.019013166427612305
1781799437366592000,38.52259204101563,-0.0066431546583771706,0.006872228812426329,-0.007864884100854397
1781799437415112200,38.5711123046875,-0.014126247726380825,-0.01611155830323696,0.0021380267571657896
1781799437463632400,38.61963232421875,-0.005421424750238657,-0.03588830679655075,-0.0005345066892914474
1781799437512152800,38.66815283203125,0.0017562361899763346,-0.03955349326133728,-0.0204639695584774
1781799437560673000,38.71667309570312,0.011530072428286076,-0.033597562462091446,-0.03672824427485466
1781799437609193500,38.765193359375,0.015958841890096664,-0.024510949850082397,-0.0334448479115963
1781799437657713400,38.81371337890625,0.020082179456949234,-0.008628465235233307,-0.02764163166284561
1781799437706233900,38.86223388671875,0.015347977168858051,0.0034361144062131643,-0.02107483521103859
1781799437754754000,38.91075415039062,0.0035888305865228176,0.020998476073145866,-0.0154243353754282
1781799437803274200,38.959274169921876,0.002901607658714056,0.02153298258781433,-0.005650499369949102
1781799437851794700,39.007794677734374,-0.0005345066892914474,0.024663666263222694,-0.003741546766832471
1781799437900314600,39.05631469726563,-0.005955931730568409,0.014049889519810677,0.0015271619195118546
1781799437948835000,39.1048349609375,0.0011453714687377214,-0.000610864779446274,-0.007483093533664942
1781799437997355300,39.15335522460938,0.007024944759905338,-0.017562363296747208,-0.01718057133257389
1781799438045875700,39.201875732421875,0.003359756199643016,-0.01779143698513508,-0.009010255336761475
1781799438094395600,39.25039575195313,-0.0012980876490473747,-0.00755945174023509,-0.010079269297420979
1781799438142916000,39.298916015625,0.0019853105768561363,0.002443459117785096,-0.019471315667033195
1781799438191436300,39.34743627929687,0.006185005884617567,0.006719512399286032,-0.0243582334369421
1781799438239956700,39.39595678710938,0.00007635809743078426,0.010919207707047462,-0.022067490965127945
1781799438288476700,39.4444765625,-0.005955931730568409,0.013439024798572063,-0.018402300775051117
1781799438336997000,39.4929970703125,-0.009926552884280682,0.010537417605519295,-0.008246674202382565
1781799438385517300,39.54151733398437,-0.012370011769235134,0.007941242307424545,-0.007254019379615784
1781799438482558000,39.638557861328124,0.0102319847792387,-0.006337722297757864,-0.02367101050913334
1781799438531078000,39.68707788085938,0.0032070400193333626,-0.01282816007733345,-0.014202605932950974
1781799438579598300,39.735598388671875,0.003359756199643016,-0.006948587018996477,-0.014508038759231567
1781799438628118500,39.78411840820313,0.007864884100854397,0.0034361144062131643,-0.019242240116000175
1781799438676639000,39.832638916015625,0.0019853105768561363,0.005039634648710489,-0.013515383005142212
1781799438725159000,39.88115893554688,0.0019089524867013097,0.004886918235570192,-0.014126247726380825
1781799438773679400,39.929679443359376,0.0007635809597559273,0.0001527161948615685,-0.016340631991624832
1781799438822199600,39.97819946289062,0.0021380267571657896,-0.010461059398949146,-0.013744457624852657
1781799438870720000,40.02671997070313,0.0021380267571657896,-0.011988221667706966,-0.020311253145337105
1781799438919240000,40.07523999023437,0.0038179049734026194,-0.011606430634856224,-0.016798781231045723
1781799438967760400,40.12376049804688,0.0011453714687377214,-0.002290742937475443,-0.01695149764418602
1781799439016280600,40.17228051757812,0.0010690133785828948,0.00847574882209301,-0.01435532234609127
1781799439064801000,40.22080102539063,0.0029779658652842045,0.017027854919433594,-0.0204639695584774
1781799439113321000,40.269321044921874,0.002290742937475443,0.017944153398275375,-0.019700389355421066
1781799439161841400,40.31784130859375,0.0012980876490473747,0.01030834298580885,-0.015195261687040329
1781799439210361600,40.366361572265625,-0.0011453714687377214,-0.001450803829357028,-0.01359174121171236
1781799439258881800,40.4148818359375,-0.002290742937475443,-0.007941242307424545,-0.0102319847792387
1781799439307402000,40.463402099609375,-0.007024944759905338,-0.004963276442140341,-0.005574141163378954
1781799439355922200,40.51192211914063,-0.002290742937475443,-0.002825249684974551,-0.009926552884280682
1781799439404442600,40.560442626953126,0.0007635809597559273,-0.0016035200096666813,-0.013133592903614044
1781799439452962800,40.608962890625,0.00007635809743078426,-0.003512472379952669,-0.01359174121171236
1781799439501483000,40.65748291015625,-0.0025961752980947495,-0.0016035200096666813,-0.011453714221715927
1781799439550003200,40.70600317382812,-0.0017562361899763346,0.001450803829357028,-0.009850194677710533
1781799439598523600,40.75452368164063,-0.003512472379952669,0.00603228947147727,-0.011682788841426373
1781799439647043800,40.8030439453125,-0.0066431546583771706,0.00755945174023509,-0.0066431546583771706
1781799439695564000,40.85156396484375,-0.007254019379615784,0.007483093533664942,-0.008857538923621178
1781799439744084200,40.900084228515624,-0.01030834298580885,0.023212861269712448,-0.005192350596189499
1781799439792604700,40.94860473632812,-0.006872228812426329,0.04069886729121208,-0.003512472379952669
1781799439841124900,40.997124755859375,-0.005192350596189499,0.05413788929581642,-0.011530072428286076
1781799439889644800,41.04564477539063,-0.0021380267571657896,0.06047561392188072,-0.00847574882209301
1781799439938165200,41.094165283203125,-0.005650499369949102,0.04718930274248123,-0.004123337101191282
1781799439986685400,41.142685546875,-0.006566796451807022,0.010537417605519295,-0.0038179049734026194
1781799440035205600,41.19120556640625,-0.003970621153712273,-0.040775224566459656,-0.00007635809743078426
1781799440083725800,41.23972583007812,-0.0038179049734026194,-0.08124501258134842,-0.0025198173243552446
1781799440132246300,41.28824633789063,-0.002290742937475443,-0.10735948383808136,-0.005192350596189499
1781799440180766500,41.33676635742187,0.002901607658714056,-0.11858412623405457,-0.010079269297420979
1781799440229286700,41.38528662109375,0.009086613543331623,-0.12056943774223328,-0.015958841890096664
1781799440277806800,41.43380688476562,0.00847574882209301,-0.10789398849010468,-0.02328922040760517
1781799440326327300,41.48232739257813,0.007864884100854397,-0.06910407543182373,-0.0204639695584774
1781799440374847500,41.530847412109374,0.002901607658714056,-0.021380268037319183,-0.024281874299049377
1781799440423367700,41.57936767578125,0.009086613543331623,0.03176496922969818,-0.028405211865901947
1781799440471888000,41.627887939453124,0.013973532244563103,0.070631243288517,-0.026419902220368385
1781799440520408300,41.676408203125,0.010842849500477314,0.09850194305181503,-0.02672533318400383
1781799440568928300,41.72492822265625,0.004810560029000044,0.12110394239425659,-0.020311253145337105
1781799440617448400,41.77344848632813,-0.003970621153712273,0.1441640853881836,-0.019700389355421066
1781799440665969000,41.821968994140626,0.003970621153712273,0.13843722641468048,-0.026572618633508682
1781799440714489000,41.87048901367187,0.0102319847792387,0.1003345400094986,-0.029016077518463135
1781799440763009300,41.91900927734375,0.004352411720901728,0.04024071618914604,-0.01824958436191082
1781799440811529500,41.96752954101562,-0.0032070400193333626,-0.020540328696370125,-0.005955931730568409
1781799440860050000,42.0160498046875,0.0009162971982732415,-0.05558869615197182,-0.004428769461810589
1781799440908569900,42.06456982421875,0.00603228947147727,-0.06780599057674408,-0.0011453714687377214
1781799440957090300,42.11309033203125,0.00007635809743078426,-0.06780599057674408,-0.001679878099821508
1781799441005610500,42.161610595703124,-0.007635809946805239,-0.06131555140018463,-0.0012980876490473747
1781799441054131000,42.210130859375,-0.005192350596189499,-0.06352993845939636,0.0027488914784044027
1781799441102651000,42.25865087890625,-0.000305432389723137,-0.06131555140018463,-0.00946840364485979
1781799441151171300,42.30717138671875,0.0031306820455938578,-0.046654798090457916,-0.015347977168858051
1781799441199691500,42.35569140625,-0.0031306820455938578,-0.018096869811415672,-0.01511890348047018
1781799441248211700,42.40421166992188,-0.0021380267571657896,0.011377356946468353,-0.01435532234609127
1781799441296732000,42.45273193359375,-0.00045814859913662076,0.03741546720266342,-0.02023489587008953
1781799441345252000,42.50125219726562,-0.0006872228696011007,0.047265663743019104,-0.021685699000954628
1781799441393772300,42.549772216796875,-0.0019089524867013097,0.04657844081521034,-0.018784092739224434
1781799441442292500,42.59829248046875,-0.004810560029000044,0.04230238497257233,-0.01779143698513508
1781799441490813000,42.64681298828125,-0.003741546766832471,0.030925029888749123,-0.016187917441129684
1781799441539333000,42.6953330078125,-0.008246674202382565,0.029856016859412193,-0.012293653562664986
1781799441587853300,42.743853271484376,-0.01359174121171236,0.02458730712532997,-0.0015271619195118546
1781799441636373500,42.79237353515625,-0.012751801870763302,0.013362666592001915,-0.0031306820455938578
1781799441684894000,42.84089404296875,-0.011453714221715927,0.0035888305865228176,-0.003970621153712273
1781799441733414000,42.88941381835937,-0.008704823441803455,-0.00679587060585618,-0.004352411720901728
1781799441781934300,42.93793432617188,-0.01030834298580885,-0.004963276442140341,-0.00847574882209301
1781799441830454500,42.98645458984375,-0.008628465235233307,-0.004352411720901728,-0.008704823441803455
1781799441878974700,43.034974609375,-0.007864884100854397,-0.0019089524867013097,-0.00603228947147727
1781799441927495000,43.083494873046874,-0.007024944759905338,-0.0006872228696011007,-0.007788525894284248
1781799441976015400,43.13201538085937,-0.009926552884280682,0.0030543238390237093,-0.007177661173045635
1781799442024535600,43.18053564453125,-0.009621120058000088,0.0038179049734026194,-0.005421424750238657
1781799442073055500,43.22905541992188,-0.00847574882209301,0.00603228947147727,-0.011911863461136818
1781799442121576000,43.277575927734375,-0.004352411720901728,0.007864884100854397,-0.014966187067329884
1781799442170096000,43.32609619140625,-0.0062613640911877155,0.014278964139521122,-0.010690134018659592
1781799442218616300,43.3746162109375,-0.007788525894284248,0.011988221667706966,-0.009926552884280682
1781799442267136500,43.42313647460937,-0.006566796451807022,0.00954476185142994,-0.014508038759231567
1781799442315657000,43.47165698242188,-0.003970621153712273,0.006719512399286032,-0.009850194677710533
1781799442364177000,43.52017700195312,-0.0032070400193333626,-0.00022907429956831038,-0.008704823441803455
1781799442412697300,43.568697265625,-0.0062613640911877155,-0.0022143847309052944,-0.008093958720564842
1781799442461217500,43.61721752929687,-0.00603228947147727,-0.003665188793092966,-0.007177661173045635
1781799442509737700,43.66573779296875,-0.0062613640911877155,-0.007941242307424545,-0.005803215317428112
1781799442558258000,43.7142578125,-0.004963276442140341,-0.004352411720901728,-0.004734201822429895
1781799442606778400,43.7627783203125,-0.004810560029000044,-0.002061668550595641,-0.007254019379615784
1781799442655298300,43.81129833984375,-0.004123337101191282,-0.001450803829357028,-0.005345067009329796
1781799442703818800,43.85981884765625,-0.0019853105768561363,-0.002901607658714056,-0.00923932995647192
1781799442752339000,43.9083388671875,0.0009162971982732415,0.0001527161948615685,-0.013897174037992954
1781799442800859000,43.95685888671875,0.0021380267571657896,0.004657844081521034,-0.010842849500477314
1781799442849379300,44.00537939453125,-0.0023671009112149477,0.006872228812426329,-0.011148282326757908
1781799442897899500,44.0538994140625,0.0006872228696011007,-0.0010690133785828948,-0.011148282326757908
1781799442946419700,44.102419677734375,-0.0009162971982732415,-0.0019089524867013097,-0.008093958720564842
1781799442994940000,44.15093994140625,0.0006872228696011007,-0.003512472379952669,-0.010079269297420979
1781799443043460400,44.19946044921875,0.0010690133785828948,-0.004276053514331579,-0.013897174037992954
1781799443091980300,44.24798022460938,0.0012980876490473747,0.0017562361899763346,-0.014126247726380825
1781799443140500700,44.296500732421876,-0.0025961752980947495,0.002825249684974551,-0.009086613543331623
1781799443189021000,44.34502099609375,-0.003359756199643016,0,-0.011759147047996521
1781799443237541000,44.393541015625,0.0013744457392022014,0.000610864779446274,-0.01718057133257389
1781799443286061300,44.44206127929687,0.0012980876490473747,-0.002825249684974551,-0.016569707542657852
1781799443334581800,44.49058178710938,0.0013744457392022014,-0.00007635809743078426,-0.019700389355421066
1781799443383101700,44.53910180664062,0.0019853105768561363,0.0035888305865228176,-0.021838415414094925
1781799443431622000,44.587621826171876,0.003359756199643016,0.012446369975805283,-0.02695440873503685
1781799443480142300,44.636142333984374,0.0023671009112149477,0.021151192486286163,-0.034895651042461395
1781799443528662300,44.68466235351563,0.0007635809597559273,0.032910339534282684,-0.02130390889942646
1781799443577182700,44.7331826171875,0.0021380267571657896,0.03275762498378754,-0.02130390889942646
1781799443625703000,44.78170288085938,0.002290742937475443,0.01824958436191082,-0.019624030217528343
1781799443674223000,44.83022314453125,0.00007635809743078426,0.011988221667706966,-0.026801692321896553
1781799443722743300,44.87874340820313,0.0021380267571657896,0.011148282326757908,-0.03168861195445061
1781799443771263700,44.927263671875,0.0038179049734026194,0.006337722297757864,-0.03962985426187515
1781799443819783700,44.97578369140625,0.003970621153712273,0.017333287745714188,-0.042684175074100494
1781799443868304100,45.02430419921875,0.009315688163042068,0.01588248461484909,-0.04222602769732475
1781799443916824300,45.07282421875,0.008399390615522861,0.01611155830323696,-0.04230238497257233
1781799443965344500,45.121344482421875,0.004352411720901728,0.015806125476956367,-0.04780016839504242
1781799444013864700,45.16986474609375,0.009926552884280682,0.022983787581324577,-0.05062541738152504
1781799444062385200,45.21838525390625,0.009697478264570236,0.03558287397027016,-0.05849030241370201
1781799444110905000,45.26690502929687,0.013897174037992954,0.04153880476951599,-0.06223184987902641
1781799444159425300,45.31542529296875,0.017027854919433594,0.03497200831770897,-0.07139482349157333
1781799444207945700,45.36394580078125,0.02764163166284561,-0.009773836471140385,-0.08750637620687485
1781799444256465700,45.412465576171876,0.045967575162649155,-0.029703300446271896,-0.09621120244264603
1781799444304986000,45.46098608398437,0.05100720748305321,0.005650499369949102,-0.12018764764070511
1781799444353506300,45.50950634765625,0.014126247726380825,0.04543306678533554,-0.125074565410614
1781799444402026500,45.558026611328124,-0.016340631991624832,0.03810269013047218,-0.060933761298656464
1781799444450546700,45.60654663085938,-0.11354449391365051,0.02825249545276165,0.10705405473709106
1781799444499067100,45.655067138671875,-0.189444437623024,0.04841103404760361,0.2876409590244293
1781799444547587000,45.70358715820313,-0.16623157262802124,0.02237292192876339,0.4496728479862213
1781799444596107500,45.752107421875,-0.22266021370887756,0.06986765563488007,0.7256309986114502
1781799444644627700,45.80062768554688,-0.5697841048240662,0.379347026348114,0.4864010810852051
1781799444693148000,45.84914794921875,-0.6822596192359924,0.42103853821754456,0.37171122431755066
1781799444741668000,45.89766821289062,-0.3917170464992523,0.23907721042633057,0.07215840369462967
1781799444790188500,45.9461884765625,-0.19532401859760284,0.2830594778060913,-0.2407570779323578
1781799444838708500,45.99470849609375,-0.0475710928440094,0.37056586146354675,-0.3715584874153137
1781799444887228700,46.043228759765626,0.13103049993515015,0.5010618567466736,-0.4586831033229828
1781799444935748900,46.09174877929688,0.32818710803985596,0.5518399477005005,-0.4881573021411896
1781799444984269000,46.14026904296875,0.5080868005752563,0.5681042671203613,-0.3672060966491699
1781799445032789500,46.18878955078125,0.49220430850982666,0.5471057891845703,-0.034666575491428375
1781799445081309400,46.237309326171875,0.19532401859760284,0.6482802629470825,0.11026109009981155
1781799445129830000,46.28582983398437,0.0032070400193333626,0.8620828986167908,-0.09964732080698013
1781799445178350000,46.33435009765625,0.20204351842403412,0.5904771685600281,0.08460476994514465
1781799445226870300,46.38287036132812,0.17944152653217316,0.740368127822876,-0.017562363296747208
1781799445275390500,46.431390380859376,0.07399099320173264,0.43081238865852356,-0.3966039717197418
1781799445323911000,46.479910888671874,0.2407570779323578,0.11133010685443878,-0.3248273432254791
1781799445372430800,46.52843090820313,0.40569058060646057,0.01954767294228077,-0.4234820008277893
1781799445420951300,46.576951416015625,0.24136795103549957,0.45685049891471863,-0.39858928322792053
1781799445469471500,46.62547143554688,0.1758527010679245,0.8274927139282227,-0.6382773518562317
1781799445517991400,46.673991455078124,0.29130613803863525,0.7460185885429382,-0.9218713045120239
1781799445566511900,46.72251196289063,0.05024362727999687,0.6845503449440002,-1.1977530717849731
1781799445615031800,46.77103173828125,-0.38904449343681335,1.1646900177001953,-0.7481566667556763
1781799445663552300,46.81955224609375,-0.1853974610567093,0.8902590870857239,-0.31780239939689636
1781799445712072400,46.868072509765625,0.24541492760181427,0.14088068902492523,-0.0412333719432354
1781799445760592600,46.91659252929688,0.2660316228866577,-0.6102539300918579,0.9870811104774475
1781799445809112800,46.96511279296875,0.01511890348047018,-1.741804599761963,2.022726058959961
1781799445857633000,47.01363305664062,-0.20288346707820892,-0.6772199869155884,1.7667737007141113
1781799445906153200,47.0621533203125,-0.5068650245666504,-0.43722647428512573,0.34727662801742554
1781799445954673700,47.11067358398437,-1.4016292095184326,-0.37545275688171387,0.5238165259361267
1781799446003193600,47.159193603515625,-1.193095326423645,-0.48586657643318176,0.2485456019639969
1781799446051714000,47.20771411132812,-0.2644280791282654,-0.783815860748291,0.07750347256660461
1781799446100234200,47.256234130859376,0.4476875364780426,-0.5226711630821228,-0.003359756199643016
1781799446148754200,47.30475415039062,0.8590285778045654,-0.3481929302215576,0.23403756320476532
1781799446197274600,47.35327465820313,0.6543125510215759,-0.7364738583564758,0.6585885882377625
1781799446245794600,47.40179467773437,0.1222493126988411,-0.9606612324714661,0.6323977708816528
1781799446294315000,47.45031494140625,-0.29940009117126465,-0.07086031138896942,-0.3355174660682678
1781799446342835200,47.49883520507812,-0.7809906005859375,0.37774351239204407,0.061391908675432205
1781799446391355400,47.54735546875,-0.2530507445335388,0.3099375069141388,-0.09048434346914291
1781799446439875600,47.59587548828125,0.40431612730026245,-0.19387321174144745,-1.093982458114624
1781799446488396000,47.64439599609375,0.6940951347351074,0.4681515097618103,-0.7091376781463623
1781799446536916000,47.692916015625,0.699287474155426,1.1423171758651733,-0.25641047954559326
1781799446585436400,47.7414365234375,0.6789761781692505,1.2180644273757935,-0.3053560256958008
1781799446633956400,47.78995629882812,0.42134398221969604,0.9728785157203674,-0.7909935116767883
1781799446682476800,47.83847680664063,0.18272492289543152,1.0787107944488525,-1.3552035093307495
1781799446730997000,47.8869970703125,-0.2805396616458893,1.2961786985397339,-1.2678498029708862
1781799446779517200,47.93551708984375,-0.3153589367866516,0.9577596187591553,-0.5553524494171143
1781799446828037400,47.984037353515625,0.36392268538475037,0.9134719371795654,-0.2596938908100128
1781799446876557300,48.03255737304688,0.33834272623062134,0.06612611562013626,0.6675224900245667
1781799446925077800,48.081077880859375,-0.13019055128097534,-1.0519092082977295,1.701563835144043
1781799446973598000,48.12959790039063,-0.2952004075050354,-0.21258094906806946,2.0031020641326904
1781799447022118100,48.1781181640625,-0.5686387419700623,-0.38033968210220337,0.42959064245224
1781799447070638300,48.22663842773437,-1.3812416791915894,-0.3337612450122833,0.30306529998779297
1781799447119158500,48.275158447265625,-1.170875072479248,-0.664391815662384,0.3872119188308716
1781799447167678700,48.3236787109375,-0.37377288937568665,-0.8377246856689453,0.2742019295692444
1781799447216199200,48.37219921875,0.2802342176437378,-0.8198568820953369,-0.01802051067352295
1781799447264719000,48.42071899414063,0.8294780254364014,-0.6021599769592285,-0.044440411031246185
1781799447313239600,48.469239501953126,0.9218713045120239,-1.0286962985992432,0.3159697949886322
1781799447361759500,48.51775952148437,0.13515383005142212,-1.0390809774398804,0.8856012225151062
1781799447410280000,48.56628002929688,-0.11636973917484283,-0.35590508580207825,-0.14714205265045166
1781799447458800000,48.61480004882812,-0.22266021370887756,0.464486300945282,0.06406444311141968
1781799447507320000,48.663320068359376,-0.4466184973716736,0.698371171951294,-0.25587597489356995
1781799447555840500,48.71184057617187,0.39018988609313965,0.6453022956848145,-0.8312342762947083
1781799447604360400,48.7603603515625,0.6659952998161316,0.6016254425048828,-0.9713513851165771
1781799447652881000,48.808880859375,0.6950113773345947,0.9262236952781677,-0.6867647171020508
1781799447701401000,48.85740112304688,0.6061305999755859,0.9760855436325073,-0.2964221239089966
1781799447749921300,48.90592138671875,0.22434009611606598,0.9299652576446533,-0.41302093863487244
1781799447798441500,48.95444140625,0.08872810751199722,0.9075160026550293,-1.0138828754425049
1781799447846961700,49.00296166992187,-0.12446369975805283,1.0459532737731934,-1.1379647254943848
1781799447895481900,49.05148193359375,-0.577725350856781,1.2665517330169678,-0.3685041666030884
1781799447944002300,49.100002197265624,0.3136790692806244,0.6317868828773499,-0.058795735239982605
1781799447992522200,49.14852221679688,0.33773186802864075,0.35239261388778687,0.46288278698921204
1781799448041042700,49.197042724609375,0.09437860548496246,-0.9871574640274048,1.3596322536468506
1781799448089562600,49.24556274414063,0.30245441198349,-0.7292198538780212,2.6143486499786377
1781799448138083000,49.2940830078125,-0.3497200906276703,-0.16676609218120575,0.48128509521484375
1781799448186603000,49.34260302734375,-1.2647955417633057,0.04276053607463837,-0.24174973368644714
1781799448235123200,49.391123291015624,-1.052061915397644,-0.04955640435218811,0.2006690800189972
1781799448283643600,49.4396435546875,-0.36544984579086304,-0.10835213959217072,-0.11194097250699997
1781799448332163600,49.48816357421875,0.39675667881965637,0.09544762223958969,-0.2749654948711395
1781799448380684000,49.53668408203125,0.8297070860862732,0.33368489146232605,-0.2796233594417572
1781799448429204000,49.585203857421874,0.6333904266357422,-0.05413788929581642,0.3271180987358093
1781799448477724400,49.63372436523437,0.0683404952287674,-0.3326922357082367,1.0004438161849976
1781799448526244600,49.68224462890625,-0.1943313628435135,0.21700970828533173,-0.5044979453086853
1781799448574764800,49.73076489257812,-0.39186975359916687,1.121700406074524,-0.05024362727999687
1781799448623285000,49.779284912109375,0.06383536756038666,1.642997145652771,-0.4722748398780823
1781799448671805200,49.82780517578125,0.5206094980239868,1.2279908657073975,-1.250363826751709
1781799448720325400,49.876325439453126,0.6805797219276428,1.376049280166626,-0.6561451554298401
1781799448768845800,49.924845703125,0.6883682608604431,1.420642375946045,-0.630107045173645
1781799448817365800,49.97336572265625,0.4307360351085663,1.353829026222229,-0.614682674407959
1781799448865886000,50.02188598632812,0.07215840369462967,1.1504111289978027,-0.7649554014205933
1781799448914406100,50.07040625,-0.10155627131462097,0.677067220211029,-1.1340705156326294
1781799448962926300,50.11892626953125,-0.47067132592201233,0.9912044405937195,-0.7994692921638489
1781799449011446500,50.167446533203126,-0.3032943606376648,0.9264528155326843,-0.455781489610672
1781799449059966700,50.215966796875,0.0709366723895073,0.799240231513977,-0.05894844979047775
1781799449108487200,50.26448706054688,0.24709481000900269,-0.8765909671783447,1.0878738164901733
1781799449157007000,50.31300708007812,-0.05604684352874756,-1.6133702993392944,2.3562581539154053
1781799449205527600,50.36152758789063,-0.5621483325958252,-0.3067304790019989,1.0353394746780396
1781799449254047500,50.41004760742187,-1.0358740091323853,-0.5031235218048096,0.07994692772626877
1781799449302568000,50.45856787109375,-1.4816524982452393,0.06406444311141968,0.2854265570640564
1781799449351087900,50.507087890625,-0.9829577803611755,-0.11736239492893219,0.05635227635502815
1781799449399608300,50.5556083984375,0.0683404952287674,-0.194025918841362,0.16264274716377258
1781799449448128500,50.60412841796875,1.0164026021957397,-0.22395829856395721,-0.06856957077980042
1781799449496648400,50.6526484375,0.651105523109436,-0.27656903862953186,0.3257436454296112
1781799449545169000,50.7011689453125,-0.1585194170475006,-0.5458840131759644,0.7762564420700073
1781799449593688800,50.749688720703126,-0.12186752259731293,-0.27924156188964844,-0.4160752594470978
1781799449642209300,50.798209228515624,-0.33544111251831055,0.568027913570404,-0.15630502998828888
1781799449690729200,50.84672924804688,-0.14523309469223022,0.8514691591262817,-0.4618901312351227
1781799449739249700,50.895249755859375,0.46135562658309937,0.5103011727333069,-1.0874156951904297
1781799449787769900,50.94376977539063,0.881401538848877,0.4098902642726898,-0.954094409942627
1781799449836290000,50.9922900390625,0.7604503035545349,0.6965385675430298,-0.6858484148979187
1781799449884810200,51.04081030273438,0.4653262495994568,0.9313397407531738,-0.29886558651924133
1781799449933330400,51.089330322265624,0.4434114694595337,0.6382773518562317,-0.7582359313964844
1781799449981850600,51.1378505859375,0.11148282140493393,0.584826648235321,-1.2210423946380615
1781799450030370800,51.186370849609375,-0.8491783738136292,1.3178644180297852,-0.7111993432044983
1781799450078891000,51.23489111328125,-0.0862082913517952,0.7739656567573547,-0.28962627053260803
1781799450127411200,51.2834111328125,0.5487092733383179,0.11362084746360779,0.4160752594470978
1781799450175931400,51.33193139648437,0.3788125216960907,-1.465311884880066,1.7966296672821045
1781799450224451600,51.38045166015625,-0.22708898782730103,-1.131779670715332,2.138561248779297
1781799450272971800,51.4289716796875,-0.5468003153800964,-0.2412915825843811,0.35017824172973633
1781799450321492000,51.477491943359375,-1.149800181388855,-0.45937031507492065,0.21655155718326569
1781799450370012200,51.52601220703125,-1.3378702402114868,-0.06971494108438492,0.4124864339828491
1781799450418532400,51.574532470703126,-0.5983420610427856,-0.12347104400396347,-0.01824958436191082
1781799450467052500,51.62305249023437,0.3222311735153198,-0.040775224566459656,-0.13125957548618317
1781799450515572700,51.67157275390625,0.7449495792388916,0.14576761424541473,-0.1461493968963623
1781799450564093200,51.72009326171875,0.3338375985622406,0.10835213959217072,0.522442102432251
1781799450612613000,51.768613037109375,0.027336198836565018,-0.5655080676078796,0.7573196291923523
1781799450661133600,51.81713354492187,0.00603228947147727,-0.328645259141922,-0.49189886450767517
1781799450709653500,51.865653564453126,-0.41263917088508606,0.5452731847763062,0.005574141163378954
1781799450758174000,51.914174072265624,0.003512472379952669,0.4902953505516052,-0.7031817436218262
1781799450806694000,51.96269384765625,0.776103675365448,0.2323576956987381,-0.6760746240615845
1781799450855214000,52.01121411132812,0.82436203956604,0.7540361881256104,-0.64278244972229
1781799450903734300,52.059734375,0.5252673625946045,1.1671335697174072,-0.5270999670028687
1781799450952254500,52.10825439453125,0.36537349224090576,0.9339358806610107,-0.3310123383998871
1781799451000774700,52.156774658203126,0.29886558651924133,0.38667741417884827,-0.9455423355102539
1781799451049294800,52.205294921875,0.12148573249578476,0.3958403766155243,-1.4352267980575562
1781799451097815300,52.25381518554688,-0.5207622051239014,1.3418408632278442,-0.835586667060852
1781799451146335200,52.30233520507812,-0.11049016565084457,0.9474512934684753,-0.31841325759887695
1781799451194855700,52.35085571289063,0.5004509687423706,0.9754747152328491,-0.03634645417332649
1781799451243375600,52.39937573242187,0.26824599504470825,-0.30031639337539673,1.1444551944732666
1781799451291896000,52.44789599609375,0.09621120244264603,-1.1437679529190063,2.3836708068847656
1781799451340416000,52.496416015625,-0.3879754841327667,0.04764745384454727,1.1071923971176147
1781799451388936400,52.5449365234375,-0.9194278717041016,-0.08002328872680664,-0.0007635809597559273
1781799451437456400,52.59345629882812,-1.3834559917449951,0.1482110619544983,0.34322965145111084
1781799451485976600,52.6419765625,-0.954094409942627,0.1446985900402069,0.09636391699314117
1781799451534496800,52.690496826171874,0.005345067009329796,0.04634936526417732,-0.1363755613565445
1781799451583017000,52.73901684570313,0.7251728773117065,0.15760311484336853,-0.19822561740875244
1781799451631537400,52.787537353515624,0.5942187309265137,-0.17997603118419647,0.3477347791194916
1781799451680057300,52.83605737304688,-0.03649916872382164,-0.6809614896774292,0.6290380358695984
1781799451728577800,52.884577880859375,-0.08460476994514465,-0.28267768025398254,-0.4815141558647156
1781799451777097700,52.93309765625,-0.43195775151252747,0.39454227685928345,-0.1320231556892395
1781799451825618200,52.9816181640625,-0.38820457458496094,0.5283980369567871,-0.19478951394557953
1781799451874138000,53.03013818359375,0.28557929396629333,0.023823726922273636,-1.1623992919921875
1781799451922658600,53.078658447265624,0.9699005484580994,0.1816559135913849,-0.6769145131111145
1781799451971178500,53.12717846679688,0.7024181485176086,1.3263401985168457,-0.8306997418403625
1781799452019699000,53.175698974609375,0.5456549525260925,1.276707410812378,-0.4430296719074249
1781799452068219000,53.22421899414063,0.5283216834068298,0.7619010806083679,-0.6341540217399597
1781799452116739000,53.272739013671874,-0.03672824427485466,0.5835285782814026,-1.2460877895355225
1781799452165259300,53.32125927734375,-0.6876810193061829,1.156977891921997,-0.9036217331886292
1781799452213779500,53.369779541015625,-0.13996438682079315,1.0225112438201904,-0.34261879324913025
1781799452262299600,53.41829956054688,0.4537961781024933,0.7004328370094299,0.1721111536026001
1781799452310819800,53.46681982421875,0.5684096813201904,-1.1419353485107422,1.633299708366394
1781799452359340300,53.51534033203125,-0.1424078494310379,-1.0781763792037964,2.411388635635376
1781799452407860200,53.563860107421874,-0.5097666382789612,-0.06421715766191483,0.6710349321365356
1781799452456380700,53.61238061523437,-1.0067814588546753,-0.7462477087974548,0.12957969307899475
1781799452504900600,53.660900634765625,-1.3769655227661133,-0.1977674663066864,0.2248746007680893
1781799452553421000,53.70942114257812,-0.7680097222328186,-0.24839289486408234,0.029016077518463135
1781799452601941000,53.75794091796875,0.27252206206321716,-0.13324488699436188,-0.04146244749426842
1781799452650461400,53.80646142578125,0.971580445766449,-0.08636100590229034,-0.12873975932598114
1781799452698981400,53.8549814453125,0.46922051906585693,-0.026038112118840218,0.43020153045654297
1781799452747501800,53.90350170898437,-0.17516547441482544,-0.46372273564338684,0.7466294765472412
1781799452796021800,53.952021728515625,-0.17829616367816925,-0.22120940685272217,-0.4834994673728943
1781799452844542000,54.0005419921875,-0.5482511520385742,0.5054142475128174,-0.32971426844596863
1781799452893062100,54.049062255859376,0.21754421293735504,0.6428588032722473,-0.21945317089557648
1781799452941582300,54.09758227539062,0.6657662391662598,0.14294235408306122,-1.0541999340057373
1781799452990102500,54.1461025390625,0.6518690586090088,0.2729802131652832,-0.8559742569923401
1781799453038622700,54.19462280273437,0.7090612649917603,0.64278244972229,-0.5423715710639954
1781799453087143000,54.243142822265625,0.4301251769065857,0.7478511929512024,-0.5026653409004211
1781799453135663000,54.2916630859375,0.33345580101013184,0.5664243698120117,-0.8497892618179321
1781799453184183600,54.34018359375,0.15202897787094116,0.7147117853164673,-1.252959966659546
1781799453232703500,54.38870336914062,-0.5849030017852783,1.5224277973175049,-0.8862120509147644
1781799453281224000,54.43722387695313,-0.009621120058000088,0.9793689846992493,-0.32100942730903625
1781799453329744000,54.48574389648437,0.5417606830596924,0.023441936820745468,0.6314814686775208
1781799453378264300,54.53426440429688,0.35048365592956543,-1.2119556665420532,2.033874273300171
1781799453426784300,54.5827841796875,-0.19478951394557953,-0.2908479869365692,2.3232715129852295
1781799453475304400,54.631304443359376,-0.28496840596199036,-0.1534034162759781,0.46860963106155396
1781799453523824600,54.67982470703125,-1.0625993013381958,-0.37491825222969055,0.22304199635982513
1781799453572344800,54.7283447265625,-1.2890009880065918,0.07269290834665298,0.12385283410549164
1781799453620865000,54.77686499023437,-0.4421897530555725,-0.16149736940860748,-0.01718057133257389
1781799453669385200,54.82538525390625,0.48853909969329834,-0.18180863559246063,-0.26129740476608276
1781799453717905400,54.87390551757812,0.9222530722618103,-0.31520622968673706,-0.09476039558649063
1781799453766425600,54.922425537109376,0.21082471311092377,-0.28550294041633606,0.9537126421928406
1781799453814945800,54.97094580078125,-0.3156643807888031,-0.1833357959985733,0.14424043893814087
1781799453863466000,55.01946606445313,-0.3568213880062103,0.49823659658432007,-0.7967203855514526
1781799453911986200,55.06798608398437,-0.5262600183486938,1.0961204767227173,-0.08231402933597565
1781799453960506400,55.11650634765625,-0.03474293276667595,0.9415717124938965,-0.9469167590141296
1781799454009026600,55.16502661132812,0.808937668800354,0.8769727349281311,-0.9866229891777039
1781799454057546800,55.213546630859376,0.816649854183197,1.605123519897461,-0.8147408962249756
1781799454106066700,55.26206665039062,0.630107045173645,1.721035122871399,-0.7655662894248962
1781799454154587100,55.31058715820313,0.528092622756958,1.0245729684829712,-0.918664276599884
1781799454203107000,55.35910717773437,-0.011300998739898205,0.6598866581916809,-1.4409536123275757
1781799454251627500,55.40762744140625,-0.6094903349876404,1.0569487810134888,-0.9082031846046448
1781799454300147500,55.4561474609375,-0.42447465658187866,0.6278926134109497,-0.24327689409255981
1781799454348668000,55.50466796875,0.3271180987358093,0.3507890999317169,-0.02977965772151947
1781799454397187800,55.55318774414062,0.2784779667854309,-0.5041925311088562,1.2359321117401123
1781799454445708300,55.60170825195313,-0.012980876490473747,-1.350851058959961,2.5419609546661377
1781799454494228200,55.65022827148437,-0.03352120518684387,-0.2879463732242584,2.0462443828582764
1781799454542748700,55.69874877929688,-0.9454659819602966,-0.8351284861564636,-0.18516838550567627
1781799454591268600,55.7472685546875,-1.6325361728668213,-0.655228853225708,0.1599702090024948
1781799454639789000,55.7957890625,-0.9120974540710449,-0.863381028175354,0.23105959594249725
1781799454688309000,55.84430908203125,0.15836669504642487,-0.7316632866859436,0.10369429737329483
1781799454736829200,55.8928291015625,0.9779181480407715,-0.5148062705993652,-0.1461493968963623
1781799454785349400,55.94134936523437,0.906828761100769,-0.2808450758457184,0.5862774848937988
1781799454833869600,55.98986962890625,-0.13507747650146484,-0.04199695214629173,0.9530254006385803
1781799454882390000,56.03839013671875,-0.14981459081172943,-0.29443681240081787,-0.6492729187011719
1781799454930910000,56.08690991210938,-0.4566214084625244,0.9030871987342834,-0.6073523163795471
1781799454979430400,56.135430419921875,-0.4470766484737396,1.0321323871612549,-0.18982623517513275
1781799455027950300,56.18395043945313,0.3672824501991272,0.7177661061286926,-1.0157153606414795
1781799455076470800,56.232470703125,0.8339831233024597,0.5051088333129883,-1.3041199445724487
1781799455124990700,56.28099072265625,0.9479857683181763,1.1628574132919312,-0.7208967804908752
1781799455173511200,56.32951123046875,0.8471167087554932,1.3435207605361938,-0.5095375776290894
1781799455222031000,56.37803100585938,0.5392408967018127,0.9857066869735718,-0.6089558005332947
1781799455270551600,56.426551513671875,0.0862082913517952,0.5981893539428711,-1.2706750631332397
1781799455319071500,56.47507153320313,-0.47922343015670776,0.7570905089378357,-1.348331332206726
1781799455367591400,56.52359130859375,-0.6252201199531555,0.9449314475059509,-0.5522981286048889
1781799455416111900,56.57211181640625,0.43142324686050415,0.5805506110191345,-0.15867212414741516
1781799455464631800,56.6206318359375,0.18723005056381226,-0.391182541847229,1.1185697317123413
1781799455561672200,56.71767211914062,-0.35789039731025696,-0.25786128640174866,1.6601777076721191
1781799455610192600,56.76619262695313,-1.0248783826828003,-0.9331722855567932,0.15745039284229279
1781799455658712600,56.814712646484374,-1.5948152542114258,-0.801301896572113,0.27252206206321716
1781799455707233000,56.86323291015625,-0.9278272390365601,-0.9435570240020752,0.16668972373008728
1781799455755753000,56.9117529296875,0.24121522903442383,-0.7242565751075745,0.29046618938446045
1781799455804273400,56.9602734375,1.1372774839401245,-0.5458840131759644,0.20601414144039154
1781799455852793600,57.008793701171875,0.639270007610321,-0.23541201651096344,0.5455785989761353
1781799455901313800,57.05731372070313,0.05917752534151077,-0.3586539924144745,0.6187296509742737
1781799455949834000,57.105833984375,-0.13591741025447845,-0.19097159802913666,-0.22853977978229523
1781799455998354000,57.15435400390625,-0.6931788325309753,0.5739838480949402,0.019853105768561363
1781799456046874400,57.202874267578125,-0.015195261687040329,0.9573778510093689,-0.0023671009112149477
1781799456095394300,57.25139428710938,0.4120282828807831,0.03375028073787689,-1.5427390336990356
1781799456143914800,57.299914794921875,0.6736311316490173,0.5874228477478027,-0.9880737662315369
1781799456192434700,57.3484345703125,0.8271872401237488,1.2434916496276855,-0.7958040833473206
1781799456240955100,57.396955078125,0.8119156360626221,1.1451424360275269,-0.7105884552001953
1781799456289475000,57.44547509765625,0.549091100692749,0.6996692419052124,-0.8510109782218933
1781799456337995300,57.493995361328125,0.11919499188661575,0.7340303659439087,-1.389870047569275
1781799456386515500,57.54251538085938,-0.7736602425575256,0.8271108865737915,-0.9552397727966309
1781799456435035600,57.59103564453125,-0.27053675055503845,0.4909062087535858,-0.08788817375898361
1781799456483555800,57.63955590820313,0.3690386712551117,0.006337722297757864,0.19051344692707062
1781799456532076000,57.688075927734374,0.060933761298656464,-1.3476440906524658,1.578932762145996
1781799456580596200,57.73659619140625,-0.3032943606376648,-1.2009601593017578,2.9776604175567627
1781799456629116200,57.7851162109375,-0.4448622763156891,-0.432721346616745,0.845360517501831
1781799456677636600,57.83363671875,-1.2417353391647339,-0.8593340516090393,0.22960880398750305
1781799456726156500,57.882156494140624,-1.4706569910049438,-0.6180424690246582,0.24083344638347626
1781799456774677000,57.93067700195313,-0.661413848400116,-0.7034871578216553,0.08949168771505356
1781799456823197000,57.979197021484374,0.4761691093444824,-0.43493571877479553,-0.04894553869962692
1781799456871717400,58.02771728515625,1.0050252676010132,-0.4950295388698578,0.24930918216705322
1781799456920237300,58.0762373046875,0.5074759125709534,-0.053374309092760086,1.1756092309951782
1781799456968757800,58.1247578125,0.07223475724458694,-0.8977421522140503,-0.4298960864543915
1781799457017277700,58.173277587890624,-0.011759147047996521,0.21540619432926178,-0.6934078931808472
1781799457065798100,58.22179809570312,-0.598723828792572,1.0800089836120605,-0.0386371985077858
1781799457114318000,58.270318115234375,-0.05306887626647949,0.8971312642097473,-0.8303179740905762
1781799457162838500,58.31883862304687,0.7820596098899841,-0.0423787422478199,-0.9782999157905579
1781799457211358500,58.3673583984375,0.8651372194290161,0.1637117564678192,-1.014493703842163
1781799457259878700,58.41587866210938,0.5597048401832581,0.8233693838119507,-0.6766854524612427
1781799457308398800,58.46439892578125,0.7394518256187439,0.48846274614334106,-0.36659523844718933
1781799457356919000,58.5129189453125,0.5006036758422852,0.26564982533454895,-0.7355575561523438
1781799457405439200,58.561439208984375,-0.23105959594249725,0.8108466267585754,-1.141629934310913
1781799457453959400,58.60995947265625,-0.8216894865036011,1.2763255834579468,-0.708450436592102
1781799457502479600,58.658479736328125,0.12873975932598114,0.5328267812728882,-0.31322091817855835
1781799457550999800,58.70699975585938,0.5474875569343567,-0.6135373115539551,1.2579232454299927
1781799457599520000,58.75552001953125,0.08017600327730179,-1.8487058877944946,2.667570114135742
1781799457648040200,58.80404028320312,-0.12614357471466064,-0.45364347100257874,2.2216389179229736
1781799457696560400,58.852560302734375,-0.5771908760070801,-1.0768018960952759,0.2029598206281662
1781799457745080600,58.90108056640625,-1.5806126594543457,-0.9101884961128235,0.1591302752494812
1781799457793600800,58.949600830078126,-1.1228457689285278,-1.0845140218734741,0.0639880821108818
1781799457842121000,58.99812084960938,0.037720900028944016,-0.8824705481529236,0.30657777190208435
1781799457890641000,59.046640869140624,0.9345467686653137,-0.4119519293308258,-0.08582650125026703
1781799457939161300,59.09516137695312,0.7392991185188293,0.24999640882015228,-0.022067490965127945
1781799457987681300,59.143681396484375,-0.06154462695121765,0.3206276595592499,1.0699297189712524
1781799458036201700,59.19220166015625,-0.18585561215877533,0.11293362826108932,-0.039018988609313965
1781799458084721700,59.2407216796875,-0.6773726940155029,0.47464191913604736,-0.2859610617160797
1781799458133242000,59.2892421875,-0.22159120440483093,0.9351575970649719,-0.2931387424468994
1781799458181762000,59.337761962890625,0.6577486395835876,0.27404922246932983,-1.3709332942962646
