time,seconds_elapsed,z,y,x
1781604254189402400,0.16640234375,0,0,0
1781604254237919000,0.2149189453125,0.05467414855957031,-0.08963918685913086,-0.02764296531677246
1781604254286435300,0.263435302734375,-0.12781620025634766,-0.12185359001159668,0.07620489597320557
1781604254334951700,0.31195166015625,-0.3095359802246094,0.16212010383605957,0.2035001516342163
1781604254383468000,0.360468017578125,0.3372964859008789,-0.047978878021240234,0.19679903984069824
1781604254431984400,0.408984375,0.2910947799682617,-0.11610174179077148,0.2081393599510193
1781604254480500700,0.457500732421875,-0.037601470947265625,0.04291057586669922,0.06858360767364502
1781604254529017000,0.50601708984375,0.1667337417602539,0.042574167251586914,-0.08744299411773682
1781604254577533400,0.554533447265625,0.14333534240722656,0.1370384693145752,-0.09759694337844849
1781604254626049800,0.6030498046875,-0.4280576705932617,-0.22763824462890625,-0.10661566257476807
1781604254674566100,0.651566162109375,0.03546333312988281,-0.33501100540161133,-0.07189863920211792
1781604254723082500,0.70008251953125,0.3481302261352539,0.3175349235534668,-0.22612690925598145
1781604254771598800,0.748598876953125,-0.2824535369873047,0.1434621810913086,-0.11157268285751343
1781604254820115500,0.797115478515625,0.4865083694458008,-0.11963844299316406,-0.05757862329483032
1781604254868631800,0.8456318359375,-0.31034088134765625,-0.014558076858520508,0.0318760871887207
1781604254917148200,0.894148193359375,-0.2317333221435547,0.1947164535522461,-0.11880728602409363
1781604254965664500,0.94266455078125,0.2124042510986328,0.1647481918334961,0.043330349028110504
1781604255014180900,0.991180908203125,0.39205169677734375,-0.24725186824798584,-0.014025550335645676
1781604255062697200,1.039697265625,0.5607404708862305,0.12458539009094238,0.06063443422317505
1781604255111213800,1.0882138671875,1.0930557250976562,0.1518721580505371,-0.00031119585037231445
1781604255159730200,1.136730224609375,0.23174667358398438,-0.5314245223999023,0.5885400176048279
1781604255208246500,1.18524658203125,-0.4876375198364258,-0.5172908306121826,1.2958465814590454
1781604255256763000,1.233762939453125,0.9371843338012695,-1.033437728881836,-1.086639642715454
1781604255305279200,1.282279296875,-0.27227210998535156,0.9964430332183838,-0.5133093595504761
1781604255353795800,1.3307958984375,-0.9175329208374023,0.4954068660736084,-0.5138429403305054
1781604255402312200,1.379312255859375,-0.39191150665283203,0.8019199371337891,-0.12821584939956665
1781604255450828500,1.42782861328125,-0.5970458984375,-0.3213038444519043,-0.40154290199279785
1781604255499345000,1.476344970703125,0.13588809967041016,0.13125991821289062,-0.6386611461639404
1781604255547861200,1.524861328125,-0.06653594970703125,0.7117741107940674,0.14298641681671143
1781604255596377600,1.573377685546875,-0.9852705001831055,0.35380077362060547,0.40182602405548096
1781604255644894000,1.62189404296875,-1.5725669860839844,0.2935241460800171,0.14248406887054443
1781604255693410600,1.67041064453125,-1.1263465881347656,-0.09543240070343018,0.2930492162704468
1781604255741927000,1.718927001953125,-2.309957504272461,-0.9103960990905762,3.2654383182525635
1781604255790443300,1.767443359375,-5.7357401847839355,-2.006686210632324,2.3244543075561523
1781604255838959600,1.815959716796875,-4.649847030639648,-3.236245632171631,-2.555830478668213
1781604255887476200,1.864476318359375,-2.257463216781616,-5.068380355834961,-5.556607246398926
1781604255935992600,1.91299267578125,0.5398591160774231,-7.033349514007568,-4.248532772064209
1781604255984509000,1.961509033203125,4.645304203033447,-10.760210037231445,-1.4330501556396484
1781604256033025300,2.010025390625,14.705358505249023,-13.710064888000488,7.129613876342773
1781604256081542000,2.0585419921875,16.13629150390625,-9.642757415771484,7.850500106811523
1781604256130058200,2.107058349609375,10.490864753723145,-6.490731239318848,6.711141109466553
1781604256178574600,2.15557470703125,8.461161613464355,-6.0239057540893555,6.873136520385742
1781604256227091000,2.204091064453125,4.979040145874023,-6.697293281555176,10.761507034301758
1781604256275607300,2.252607177734375,4.2848663330078125,-5.9970855712890625,11.991552352905273
1781604256324123600,2.30112353515625,-1.7321348190307617,-5.266125679016113,12.361371040344238
1781604256372640300,2.34964013671875,-2.7256202697753906,-3.3622665405273438,7.530025482177734
1781604256421156600,2.398156494140625,-5.703789234161377,-2.8008127212524414,6.425699710845947
1781604256469673000,2.4466728515625,-0.869675874710083,-1.8785576820373535,2.7776715755462646
1781604256518189300,2.495189208984375,-2.060849905014038,3.156623363494873,6.207869052886963
1781604256566705700,2.54370556640625,-4.945533275604248,4.406485557556152,2.6391875743865967
1781604256615222000,2.592221923828125,-5.1233673095703125,5.670313358306885,0.3555154800415039
1781604256663738400,2.64073828125,-1.788608431816101,5.051671981811523,2.864886999130249
1781604256712255000,2.6892548828125,3.466749668121338,0.8901758193969727,-0.6639385223388672
1781604256760771300,2.737771240234375,0.4084247350692749,-2.6053266525268555,-3.6599597930908203
1781604256809287700,2.78628759765625,-0.517596423625946,-4.536774635314941,0.39014673233032227
1781604256857804000,2.834803955078125,-0.626226544380188,-2.9709482192993164,-1.0931060314178467
1781604256906320400,2.8833203125,-1.5426535606384277,2.161829948425293,-0.9790294170379639
1781604256954836700,2.931836669921875,2.5671229362487793,-0.23872661590576172,1.0742523670196533
1781604257003353000,2.98035302734375,1.4862874746322632,-7.770269393920898,2.095766305923462
1781604257051869700,3.02886962890625,-2.653379440307617,-4.685446739196777,3.3418827056884766
1781604257100386000,3.077385986328125,0.7310466766357422,6.959317207336426,-1.9832000732421875
1781604257148902400,3.12590234375,-1.0817440748214722,11.91364860534668,-1.2748842239379883
1781604257197418800,3.174418701171875,-2.2455358505249023,4.466689109802246,-0.533447265625
1781604257245935000,3.22293505859375,1.1185405254364014,-4.803447723388672,0.7039327621459961
1781604257294451500,3.271451416015625,-0.6118674874305725,-6.712665557861328,3.1030657291412354
1781604257342967800,3.3199677734375,-1.3514883518218994,-4.928742408752441,-1.5086019039154053
1781604257391484200,3.368484130859375,-1.1225594282150269,3.8684000968933105,-0.0993032455444336
1781604257440000500,3.41700048828125,0.7963358163833618,5.816888332366943,-5.140509128570557
1781604257488516900,3.465516845703125,-1.1733624935150146,1.5751218795776367,-0.9708783030509949
1781604257537033500,3.514033447265625,-0.821708083152771,0.37593841552734375,1.5673789978027344
1781604257585549800,3.5625498046875,-0.057795360684394836,-3.396747589111328,-0.8788467645645142
1781604257634066200,3.611066162109375,-0.129293754696846,1.2328243255615234,-0.8933511972427368
1781604257682582500,3.65958251953125,-0.4513876438140869,-1.3423824310302734,-0.1600019335746765
1781604257779615200,3.756615234375,-1.0145483016967773,-4.185725212097168,-0.11667776107788086
1781604257828131800,3.8051318359375,-0.6107379198074341,0.9384307861328125,-1.0208197832107544
1781604257925164500,3.90216455078125,-1.0301711559295654,-0.610102653503418,0.3869294822216034
1781604257973681000,3.950680908203125,-0.25154730677604675,-0.2689495086669922,0.05644822120666504
1781604258022197200,3.999197265625,-0.3158450722694397,0.6308422088623047,-0.04034477472305298
1781604258070713600,4.047713623046875,-0.6453943848609924,-0.10036754608154297,-0.39486998319625854
1781604258119230200,4.096230224609375,-0.1465064287185669,0.21427440643310547,-0.7093557119369507
1781604258167746600,4.14474658203125,-0.2314016968011856,0.3813772201538086,-0.6595642566680908
1781604258216263000,4.193262939453125,-0.419649600982666,-0.3100099563598633,-0.14874863624572754
1781604258264779300,4.241779296875,-0.34484755992889404,-0.027138710021972656,0.14314883947372437
1781604258313295600,4.290295654296875,-0.3771786093711853,0.6255931854248047,0.2753961384296417
1781604258361812000,4.33881201171875,-0.3355514109134674,-0.11424636840820312,-0.14929282665252686
1781604258410328300,4.387328369140625,-0.646024227142334,-0.05928611755371094,-0.25707346200942993
1781604258458844700,4.4358447265625,-0.4274245798587799,0.1273040771484375,-0.23289424180984497
1781604258507361000,4.484361083984375,-0.5357626676559448,-0.040470123291015625,-0.2382495403289795
1781604258555877400,4.53287744140625,-0.5656154155731201,0.29558467864990234,-0.2710372805595398
1781604258604394000,4.58139404296875,-0.4025341272354126,0.22377490997314453,-0.13370764255523682
1781604258652910300,4.629910400390625,-0.42406484484672546,-0.08169269561767578,-0.24221700429916382
1781604258701426200,4.67842626953125,-0.3842613995075226,-0.1056833267211914,-0.4352080225944519
1781604258749943000,4.726943115234375,-0.37126100063323975,0.05723094940185547,-0.26655125617980957
1781604258798459400,4.77545947265625,-0.24774354696273804,0.011103630065917969,-0.06107240915298462
1781604258846975700,4.823975830078125,-0.23466920852661133,-0.08263683319091797,-0.1336236596107483
1781604258895492000,4.8724921875,-0.11204999685287476,-0.24914169311523438,-0.14812982082366943
1781604258944008400,4.921008544921875,-0.14256513118743896,-0.023886680603027344,-0.11620628833770752
1781604258992524800,4.96952490234375,-0.1425381898880005,0.07851409912109375,-0.026458024978637695
1781604259041041200,5.018041259765625,-0.25852394104003906,-0.3294210433959961,0.21023666858673096
1781604259089557500,5.0665576171875,-0.06996220350265503,-0.03225231170654297,0.0164334774017334
1781604259138073900,5.115073974609375,-0.3607666492462158,-0.12516117095947266,-0.6588701009750366
1781604259186590200,5.163590087890625,-0.2687925100326538,0.1195383071899414,-0.3996237516403198
1781604259235106600,5.2121064453125,0.24219828844070435,0.3352031707763672,0.22689688205718994
1781604259283623000,5.260622802734375,0.11720144748687744,0.024344444274902344,0.3001583218574524
1781604259332139300,5.30913916015625,0.35970544815063477,0.831151008605957,-0.37988555431365967
1781604259380655600,5.357655517578125,0.47576624155044556,0.45166587829589844,-0.1249539852142334
1781604259429172000,5.406171875,0.20861291885375977,-1.3943672180175781,-0.5637111663818359
1781604259477688000,5.45468798828125,-0.3894561529159546,-0.18150711059570312,-0.756589412689209
1781604259526204400,5.503204345703125,-0.10345065593719482,0.49233341217041016,0.5671007633209229
1781604259574720800,5.551720703125,0.4587128162384033,0.23807239532470703,0.6634122133255005
1781604259623237000,5.600237060546875,0.033113837242126465,0.20482349395751953,0.4252531826496124
1781604259671753500,5.64875341796875,-0.33815860748291016,-0.041642189025878906,-0.15572625398635864
1781604259720269800,5.697269775390625,0.09445631504058838,0.3839845657348633,-0.866905152797699
1781604259768786200,5.7457861328125,0.12245726585388184,0.32291603088378906,-0.07068133354187012
1781604259817302500,5.794302490234375,0.12928736209869385,0.1519918441772461,0.4202196002006531
1781604259865819000,5.84281884765625,-0.0036416053771972656,0.07000350952148438,0.12083035707473755
1781604259914335200,5.891335205078125,-0.023034334182739258,-0.005845069885253906,0.03663504123687744
1781604259962851600,5.9398515625,0.006803274154663086,0.07759571075439453,0.04411131143569946
1781604260011368000,5.988367919921875,-0.035030364990234375,0.0676736831665039,0.272122323513031
1781604260059884000,6.036884033203125,-0.08670926094055176,-0.042502403259277344,0.48593151569366455
1781604260108400400,6.085400390625,0.07786250114440918,-0.037545204162597656,0.2773122489452362
1781604260156916700,6.133916748046875,-0.16883563995361328,-0.25727367401123047,0.06838679313659668
1781604260205433000,6.18243310546875,-0.5259759426116943,0.10273933410644531,0.9012364745140076
1781604260253949400,6.230949462890625,-0.5247611999511719,0.10786914825439453,0.37869420647621155
1781604260302465500,6.279465576171875,-0.46399450302124023,0.32210731506347656,-0.19470173120498657
1781604260350982000,6.32798193359375,0.009916543960571289,-0.37365245819091797,-0.06410640478134155
1781604260399498200,6.376498291015625,-0.0337374210357666,0.23337650299072266,-0.530759871006012
1781604260448014600,6.4250146484375,0.09595513343811035,0.17113399505615234,0.23089128732681274
1781604260496531000,6.473531005859375,0.08675503730773926,0.20873451232910156,0.2869449257850647
1781604260545047300,6.52204736328125,0.11367297172546387,0.12967872619628906,-0.5789554119110107
1781604260593563600,6.570563720703125,-0.15138792991638184,-0.04562091827392578,-0.6414175033569336
1781604260642079700,6.619079833984375,0.4894537925720215,-0.16970443725585938,-0.31982433795928955
1781604260690596000,6.66759619140625,-0.05042290687561035,0.24150943756103516,-0.5623118281364441
1781604260739112400,6.716112548828125,-0.07766842842102051,0.12114524841308594,-0.5394996404647827
1781604260787628500,6.764628662109375,-0.09923815727233887,0.08133983612060547,0.01927971839904785
1781604260836145000,6.813144775390625,0.24123752117156982,0.20125484466552734,0.0854387879371643
1781604260884661200,6.8616611328125,-0.39406657218933105,-0.2118988037109375,-0.05869400501251221
1781604260933177600,6.910177490234375,0.04261612892150879,0.10744285583496094,-0.15058481693267822
1781604260981694000,6.95869384765625,-0.04653024673461914,0.19770431518554688,0.6103476285934448
1781604261030210000,7.0072099609375,0.2739741802215576,-0.39833545684814453,0.2974482774734497
1781604261078726400,7.055726318359375,-0.19657373428344727,-0.25098419189453125,-0.3321381211280823
1781604261127242800,7.10424267578125,-0.5078458786010742,0.7190189361572266,-1.67837393283844
1781604261175758800,7.1527587890625,-0.25441932678222656,0.1358804702758789,-0.9110077619552612
1781604261224275200,7.201275146484375,0.20000040531158447,-0.5474786758422852,-0.10686343908309937
1781604261272791600,7.24979150390625,-0.05457770824432373,0.5758762359619141,-0.6182823181152344
1781604261321308000,7.298307861328125,-0.2965952157974243,-0.036658287048339844,-0.6447633504867554
1781604261369824000,7.346823974609375,-0.04511392116546631,-0.14272499084472656,-0.1336919665336609
1781604261418340400,7.39534033203125,0.05589568614959717,0.2174367904663086,0.02157646417617798
1781604261466856700,7.443856689453125,-0.014059185981750488,0.17460155487060547,-0.03623238205909729
1781604261515372800,7.492372802734375,-0.05095672607421875,-0.060667991638183594,0.17165035009384155
1781604261563889200,7.54088916015625,-0.21959853172302246,0.07037639617919922,0.28533756732940674
1781604261612405500,7.589405517578125,-0.13210606575012207,0.00829315185546875,0.27784574031829834
1781604261660921900,7.637921875,-0.08613860607147217,-0.19794178009033203,0.21662649512290955
1781604261709438000,7.68643798828125,-0.07647335529327393,-0.04537487030029297,0.11616651713848114
1781604261757954300,7.734954345703125,-0.01665937900543213,0.08271026611328125,-0.10633513331413269
1781604261806470400,7.783470458984375,-0.049044013023376465,0.04715251922607422,-0.3354005813598633
1781604261854986800,7.83198681640625,-0.11025214195251465,0.005539894104003906,-0.26039230823516846
1781604261903503000,7.880503173828125,0.03671085834503174,0.16544246673583984,-0.1314603090286255
1781604261952019500,7.92901953125,-0.04143249988555908,-0.08025550842285156,0.09712767601013184
1781604262000535600,7.97753564453125,-0.07665741443634033,-0.06263256072998047,-0.04775741696357727
1781604262049052000,8.026052001953126,-0.026769399642944336,0.004933357238769531,0.061515480279922485
1781604262097568300,8.074568359375,-0.1629120111465454,0.08292198181152344,-0.023760825395584106
1781604262146084400,8.12308447265625,-0.06927800178527832,0.036773681640625,0.11865288019180298
1781604262194600700,8.1716005859375,-0.0824277400970459,-0.0037031173706054688,0.14940877258777618
1781604262243116800,8.22011669921875,-0.15360653400421143,0.044363975524902344,0.02986234426498413
1781604262291633200,8.268633056640626,-0.10446250438690186,-0.033652305603027344,0.0919785350561142
1781604262340149500,8.3171494140625,-0.006111025810241699,-0.0022830963134765625,-0.07024940848350525
1781604262388665600,8.36566552734375,-0.04796957969665527,0.007708549499511719,-0.1631845235824585
1781604262437182000,8.414181884765625,-0.03643369674682617,0.02092266082763672,-0.1530558466911316
1781604262485698000,8.462697998046876,-0.011513829231262207,0.07213306427001953,-0.11580127477645874
1781604262534214400,8.51121435546875,-0.034870147705078125,-0.03513908386230469,-0.02109360694885254
1781604262582730800,8.559730712890625,-0.061966776847839355,0.060219764709472656,-0.09922435879707336
1781604262631246800,8.608246826171875,-0.022659778594970703,0.09552764892578125,-0.11349096894264221
1781604262679763000,8.656762939453126,-0.0928187370300293,-0.07146835327148438,0.05068060755729675
1781604262728279300,8.705279296875,-0.16741406917572021,0.05734062194824219,0.033284991979599
1781604262776795600,8.753795654296875,-0.10101568698883057,0.11250686645507812,-0.012769162654876709
1781604262825311700,8.802311767578125,-0.12409698963165283,-0.07214641571044922,0.08770731091499329
1781604262873828000,8.850828125,-0.1343979835510254,0.009696006774902344,0.026918619871139526
1781604262922344200,8.89934423828125,-0.08853912353515625,0.049887657165527344,0.11787721514701843
1781604262970860500,8.947860595703125,-0.05977821350097656,-0.04580402374267578,0.047586590051651
1781604263019376600,8.996376708984375,-0.09128665924072266,0.02483844757080078,-0.11672466993331909
1781604263067893000,9.04489306640625,-0.053259849548339844,-0.029094696044921875,-0.08443251252174377
1781604263116409000,9.0934091796875,-0.07477045059204102,0.06501007080078125,-0.04626733064651489
1781604263164925400,9.141925537109374,-0.03869295120239258,0.05077362060546875,-0.04528433084487915
1781604263213441500,9.190441650390625,-0.09498977661132812,-0.026559829711914062,0.029038727283477783
1781604263261958000,9.2389580078125,-0.016201496124267578,0.09388923645019531,-0.010737121105194092
1781604263310474000,9.287473876953126,-0.06211042404174805,-0.031209945678710938,-0.03437352180480957
1781604263358990300,9.335990234375,-0.0730752944946289,-0.039093017578125,-0.0728287398815155
1781604263407506400,9.38450634765625,0.012445449829101562,0.07042789459228516,-0.06057208776473999
1781604263456022500,9.4330224609375,-0.045389652252197266,-0.034232139587402344,-0.07545331120491028
1781604263504539000,9.481538818359375,0.01659989356994629,-0.02088642120361328,-0.046482622623443604
1781604263553055200,9.53005517578125,0.007637143135070801,0.009281158447265625,-0.04869341850280762
1781604263601571300,9.5785712890625,-0.03175044059753418,-0.012803077697753906,-0.037474215030670166
1781604263650087400,9.62708740234375,-0.01956796646118164,0.07195854187011719,-0.0072525739669799805
1781604263698603800,9.675603759765625,-0.04799771308898926,0.0834503173828125,-0.031188875436782837
1781604263747119900,9.724119873046876,-0.08591568470001221,0.002655029296875,-0.02746272087097168
1781604263795636000,9.772635986328124,-0.053617119789123535,-0.032703399658203125,0.07124164700508118
1781604263844152300,9.82115234375,-0.09068989753723145,-0.05589008331298828,0.04771769046783447
1781604263892668700,9.869668701171875,-0.04652261734008789,0.0044384002685546875,0.09321105480194092
1781604263941184800,9.918184814453125,-0.05560410022735596,0.0007715225219726562,0.03237283229827881
1781604263989700900,9.966700927734376,-0.046263813972473145,0.055233001708984375,-0.026701152324676514
1781604264038217000,10.015217041015624,-0.038604140281677246,-0.006840705871582031,-0.013604938983917236
1781604264086733300,10.0637333984375,-0.059554457664489746,0.014684677124023438,0.03503003716468811
1781604264135249400,10.11224951171875,-0.03300964832305908,-0.0020008087158203125,0.057656824588775635
1781604264183765500,10.160765625,-0.05281364917755127,-0.008752822875976562,0.0784238874912262
1781604264232281900,10.20928173828125,-0.07568538188934326,-0.0022125244140625,0.028518885374069214
1781604264280798000,10.2577978515625,-0.04476356506347656,0.04595375061035156,-0.015461176633834839
1781604264329314000,10.30631396484375,-0.05735814571380615,0.03427410125732422,0.021304190158843994
1781604264377830400,10.354830322265625,-0.07338154315948486,0.015399932861328125,0.03846311569213867
1781604264426346500,10.403346435546876,-0.054935336112976074,0.023232460021972656,0.03463461995124817
1781604264474862600,10.451862548828124,-0.08866167068481445,-0.010501861572265625,0.007956117391586304
1781604264523379000,10.50037890625,-0.05817723274230957,0.07379817962646484,-0.028728604316711426
1781604264571895000,10.54889501953125,-0.05931568145751953,-0.0233154296875,0.004323899745941162
1781604264620411100,10.5974111328125,-0.060889601707458496,-0.006487846374511719,-0.0005730986595153809
1781604264668927500,10.645927490234374,0.0169297456741333,0.02472686767578125,0.07666543126106262
1781604264717443600,10.694443603515625,0.02238762378692627,-0.020580291748046875,0.10230499505996704
1781604264765959700,10.742959716796875,0.010553956031799316,-0.0628662109375,-0.021844208240509033
1781604264814476000,10.79147607421875,0.03716933727264404,0.005557060241699219,-0.10430282354354858
1781604264862992100,10.8399921875,0.0017250776290893555,-0.017183303833007812,0.005596935749053955
1781604264911508200,10.88850830078125,-0.004856109619140625,0.014591217041015625,-0.019350111484527588
1781604264960024600,10.937024658203125,0.008257508277893066,0.021390914916992188,0.040731996297836304
1781604265008540700,10.985540771484375,0.01773083209991455,0.04518699645996094,0.09595993161201477
1781604265057056800,11.034056884765626,0.005154728889465332,-0.020849227905273438,0.023417413234710693
1781604265105572900,11.08257275390625,-0.032639384269714355,0.008790969848632812,-0.046789348125457764
1781604265154089000,11.1310888671875,-0.06713378429412842,-0.011797904968261719,-0.041981041431427
1781604265202605300,11.179605224609375,-0.03931140899658203,0.055133819580078125,0.0770425796508789
1781604265251121400,11.228121337890625,-0.062018752098083496,0.08938312530517578,0.14330875873565674
1781604265299637500,11.276637451171876,-0.10712683200836182,0.02568531036376953,-0.023729383945465088
1781604265348153900,11.32515380859375,-0.15756773948669434,0.012439727783203125,-0.11892753839492798
1781604265396670000,11.373669921875,-0.15320110321044922,-0.11378955841064453,-0.07101213932037354
1781604265445186000,11.42218603515625,-0.14289724826812744,-0.06955432891845703,-0.029748380184173584
1781604265493702100,11.4707021484375,-0.15171146392822266,-0.0027284622192382812,0.0076313018798828125
1781604265542218200,11.51921826171875,-0.10634899139404297,0.09165096282958984,0.09947645664215088
1781604265590734600,11.567734619140625,-0.11956489086151123,0.04487323760986328,-0.10685616731643677
1781604265639250700,11.616250732421875,-0.01625990867614746,0.05678844451904297,-0.075592041015625
1781604265687766800,11.664766845703125,-0.05875051021575928,0.013251304626464844,-0.048543334007263184
1781604265736283000,11.713282958984376,-0.039334654808044434,-0.004534721374511719,-0.053604304790496826
1781604265784799000,11.761799072265624,-0.0064508914947509766,0.0022096633911132812,-0.001738131046295166
1781604265833315000,11.810315185546875,-0.04749500751495361,-0.013916969299316406,-0.05359679460525513
1781604265881831200,11.8588310546875,-0.013636469841003418,0.015756607055664062,-0.050083279609680176
1781604265930347500,11.907347412109376,-0.0077435970306396484,-0.0005979537963867188,-0.037492454051971436
1781604265978863600,11.955863525390624,-0.04906296730041504,0.009417533874511719,-0.02849370241165161
1781604266027379700,12.004379638671875,-0.028049707412719727,0.050128936767578125,0.01243126392364502
1781604266075895800,12.052895751953125,-0.05227184295654297,0.028383255004882812,0.015279591083526611
1781604266124412000,12.101411865234375,-0.04618799686431885,-0.016043663024902344,0.06015533208847046
1781604266172928000,12.149927978515626,-0.04370546340942383,0.03162574768066406,0.05495190620422363
1781604266221444000,12.198444091796874,-0.07010293006896973,-0.027774810791015625,0.04439574480056763
1781604266269960200,12.246960205078125,-0.033877015113830566,0.03059101104736328,0.04842633008956909
1781604266318476300,12.295476318359375,-0.04342210292816162,-0.018578529357910156,0.07808440923690796
1781604266366992400,12.343992431640626,-0.009441256523132324,0.00157928466796875,0.019203662872314453
1781604266415508700,12.3925087890625,-0.023692607879638672,0.046158790588378906,-0.0008078217506408691
1781604266464024600,12.441024658203125,-0.03971874713897705,-0.006209373474121094,-0.02884572744369507
1781604266512541000,12.489541015625,-0.012879490852355957,0.0011320114135742188,0.062055230140686035
1781604266561057000,12.53805712890625,-0.025360465049743652,0.0018472671508789062,0.003900289535522461
1781604266609573000,12.586572998046876,-0.04944050312042236,0.022729873657226562,-0.010589003562927246
1781604266658089200,12.635089111328124,-0.04902052879333496,-0.02897167205810547,0.0534360408782959
1781604266706605300,12.683605224609375,-0.03186631202697754,0.038036346435546875,0.004334449768066406
1781604266755121400,12.732121337890625,-0.06657743453979492,-0.007663726806640625,-0.0028093457221984863
1781604266803637500,12.780637451171875,-0.03747725486755371,0.006335258483886719,-0.021876513957977295
1781604266852153600,12.829153564453126,-0.030882596969604492,0.0021963119506835938,-0.028633534908294678
1781604266900669700,12.877669677734374,-0.04276680946350098,0.004649162292480469,-0.03958529233932495
1781604266949185800,12.926185791015625,-0.02042531967163086,0.024488449096679688,0.01774287223815918
1781604266997702000,12.974701904296875,-0.04664623737335205,-0.0308685302734375,0.02475529909133911
1781604267046218000,13.023218017578126,-0.039858341217041016,0.09205818176269531,-0.009569704532623291
1781604267094734000,13.071734130859374,-0.06881797313690186,-0.026874542236328125,0.006430625915527344
1781604267143250200,13.120250244140625,-0.014226198196411133,-0.014616966247558594,-0.048842430114746094
1781604267191766300,13.168766357421875,-0.014908790588378906,0.01697063446044922,-0.07793170213699341
1781604267240282400,13.217282470703125,-0.007071137428283691,0.0027866363525390625,0.015489280223846436
1781604267288798500,13.265798583984376,-0.0574946403503418,0.019029617309570312,0.07269525527954102
1781604267337314600,13.314314453125,-0.04530775547027588,0.019037246704101562,0.10028225183486938
1781604267385830400,13.362830322265625,-0.047293782234191895,-0.03363990783691406,0.05252981185913086
1781604267434346800,13.4113466796875,-0.07544946670532227,0.0037212371826171875,-0.03116774559020996
1781604267482862600,13.459862548828125,-0.040662169456481934,0.008179664611816406,0.009596645832061768
1781604267531378700,13.508378662109376,-0.05525529384613037,0.045851707458496094,-0.008428096771240234
1781604267579894800,13.556894775390624,-0.04317653179168701,-0.012953758239746094,0.01767486333847046
1781604267628411000,13.605410888671875,-0.04889845848083496,0.0036773681640625,-0.015053153038024902
1781604267676927000,13.653927001953125,-0.03823351860046387,0.034478187561035156,-0.018190622329711914
1781604267725443000,13.702443115234376,-0.05464744567871094,-0.03450775146484375,-0.015873968601226807
1781604267773959200,13.750959228515624,-0.03165125846862793,0.015913963317871094,0.0013465285301208496
1781604267822475300,13.799475341796875,-0.06941509246826172,-0.02501392364501953,0.014053523540496826
1781604267870991400,13.847991455078125,-0.025252819061279297,0.028449058532714844,0.013278007507324219
1781604267919507200,13.896507080078125,-0.04698467254638672,-0.002506256103515625,0.021926820278167725
1781604267968023600,13.9450234375,-0.045854806900024414,0.0023221969604492188,-0.022668302059173584
1781604268016539400,13.993539306640624,-0.010682344436645508,0.023687362670898438,-0.03210794925689697
1781604268065055500,14.042055419921875,-0.03424561023712158,0.018884658813476562,-0.06099313497543335
1781604268113571600,14.090571533203125,-0.036173105239868164,0.026986122131347656,-0.012745380401611328
1781604268162087700,14.139087646484375,-0.0030202865600585938,0.0043354034423828125,0.02277141809463501
1781604268210603800,14.187603759765626,-0.07496523857116699,0.00185394287109375,-0.012413561344146729
1781604268259119600,14.23611962890625,-0.033194541931152344,0.02318859100341797,0.035019516944885254
1781604268307635700,14.2846357421875,-0.07106149196624756,-0.024637222290039062,0.01969325542449951
1781604268356151800,14.33315185546875,-0.0522007942199707,0.018682479858398438,-0.043245136737823486
1781604268404668000,14.38166796875,-0.03508782386779785,0.023773193359375,0.017979204654693604
1781604268453184000,14.43018408203125,-0.05035841464996338,-0.009044647216796875,0.008322656154632568
1781604268501700000,14.4787001953125,-0.05581331253051758,0.03952789306640625,-0.023285269737243652
1781604268550216000,14.5272158203125,-0.05229806900024414,-0.020476341247558594,0.007693469524383545
1781604268598732000,14.57573193359375,-0.04792606830596924,0.025354385375976562,0.01851832866668701
1781604268647248100,14.624248046875,-0.0902249813079834,0.024741172790527344,0.027297019958496094
1781604268695764200,14.67276416015625,-0.047811031341552734,0.06522083282470703,0.018036842346191406
1781604268744280300,14.7212802734375,-0.0903702974319458,-0.0025959014892578125,-0.007637679576873779
1781604268792796200,14.769796142578125,-0.04622840881347656,-0.027960777282714844,0.03760182857513428
1781604268841312300,14.818312255859375,-0.07221686840057373,0.024985313415527344,0.04487127065658569
1781604268889828400,14.866828369140626,-0.07855582237243652,-0.0034027099609375,0.05487561225891113
1781604268938344200,14.91534423828125,-0.03047502040863037,0.01684856414794922,0.04393559694290161
1781604268986860300,14.9638603515625,-0.06047797203063965,-0.027082443237304688,-0.009842753410339355
1781604269035376400,15.01237646484375,-0.0169602632522583,-0.0056591033935546875,-0.03869915008544922
1781604269083892500,15.060892578125,-0.006305336952209473,0.028944969177246094,-0.01021641492843628
1781604269132408300,15.109408203125,-0.058251380920410156,-0.027715682983398438,0.019557833671569824
1781604269180924400,15.15792431640625,-0.019388675689697266,0.05983734130859375,0.03452718257904053
1781604269277956400,15.254956298828125,-0.04123067855834961,-0.022231101989746094,-0.019266784191131592
1781604269326472400,15.303472412109375,-0.009461522102355957,0.01905536651611328,-0.014658331871032715
1781604269374988500,15.351988525390626,-0.03837406635284424,-0.0016870498657226562,-0.011646032333374023
1781604269423504600,15.400504638671874,-0.017241358757019043,0.02722454071044922,0.0034481287002563477
1781604269472020500,15.4490205078125,-0.03066551685333252,0.002834320068359375,0.005254864692687988
1781604269520536600,15.49753662109375,-0.02219831943511963,0.008715629577636719,0.011249244213104248
1781604269569052700,15.546052734375,-0.02812027931213379,0.02500438690185547,0.06819814443588257
1781604269617568800,15.59456884765625,0.011632561683654785,-0.04956245422363281,0.08550703525543213
1781604269666084600,15.643084716796874,-0.020645737648010254,-0.027711868286132812,0.07434526085853577
1781604269714600700,15.6916005859375,0.05578732490539551,0.021169662475585938,0.04738438129425049
1781604269763116500,15.740116455078125,-0.0253448486328125,-0.058589935302734375,-0.09107595682144165
1781604269811632600,15.788632568359375,0.01695883274078369,0.03588104248046875,-0.02387869358062744
1781604269860148700,15.837148681640626,0.06255865097045898,0.0065402984619140625,0.023479044437408447
1781604269957180700,15.9341806640625,0.03328561782836914,0.04593849182128906,0.04353851079940796
1781604270005696800,15.98269677734375,0.042915940284729004,-0.02399444580078125,0.05480778217315674
1781604270054212600,16.031212646484374,-0.028586864471435547,-0.06095409393310547,0.026743054389953613
1781604270102728700,16.079728759765626,0.05755650997161865,-0.01884937286376953,0.14281785488128662
1781604270151244800,16.128244873046874,-0.013758182525634766,-0.0387725830078125,0.013839125633239746
1781604270199760600,16.1767607421875,-0.07684588432312012,-0.04359149932861328,-0.11628204584121704
1781604270248276700,16.22527685546875,-0.24114716053009033,-0.10164833068847656,0.005976259708404541
1781604270296792600,16.27379248046875,-0.08023297786712646,0.15111351013183594,-0.024602651596069336
1781604270345308700,16.32230859375,-0.2367994785308838,0.03986167907714844,-0.13181090354919434
1781604270393824800,16.37082470703125,-0.15342140197753906,0.27521228790283203,0.0880361795425415
1781604270442340600,16.419340576171876,-0.10483050346374512,-0.11501693725585938,0.019711792469024658
1781604270490856700,16.467856689453125,-0.1314232349395752,-0.01840496063232422,-0.2045159935951233
1781604270539372500,16.51637255859375,-0.15424442291259766,0.20563507080078125,-0.24124324321746826
1781604270587888600,16.564888671875,-0.1759176254272461,0.056855201721191406,-0.06577056646347046
1781604270636404500,16.613404541015626,-0.07637405395507812,0.03460502624511719,0.049464285373687744
1781604270684920600,16.661920654296875,-0.14183926582336426,0.04381370544433594,0.011272132396697998
1781604270733436700,16.710436767578123,-0.14061880111694336,0.09630870819091797,-0.04313164949417114
1781604270781952500,16.758952392578124,-0.020410537719726562,0.016305923461914062,0.0689237117767334
1781604270830468600,16.807468505859376,0.04143786430358887,0.09682655334472656,0.036285996437072754
1781604270878984400,16.855984375,0.03591513633728027,-0.1261587142944336,0.01011192798614502
1781604270927500500,16.90450048828125,0.057283639907836914,0.0024080276489257812,-0.07276880741119385
1781604270976016400,16.953016357421873,0.18433809280395508,-0.062010765075683594,0.2869742214679718
1781604271024532500,17.001532470703125,0.11813080310821533,-0.203399658203125,0.1839635968208313
1781604271073048300,17.05004833984375,-0.04184925556182861,-0.04297637939453125,-0.08075088262557983
1781604271121564400,17.098564453125,-0.02318704128265381,-0.04878807067871094,0.03075164556503296
1781604271170080500,17.14708056640625,0.025808215141296387,-0.013705253601074219,0.003853917121887207
1781604271218596400,17.195596435546875,-0.18238413333892822,-0.12601661682128906,0.004792332649230957
1781604271267112200,17.2441123046875,-0.08516263961791992,0.0045490264892578125,0.08374041318893433
1781604271315628300,17.292628173828124,-0.014118075370788574,0.29049205780029297,-0.11761927604675293
1781604271364144400,17.341144287109376,-0.09156525135040283,0.14651107788085938,0.009342610836029053
1781604271412660200,17.38966015625,-0.1738755702972412,0.40376853942871094,0.19563019275665283
1781604271461176300,17.43817626953125,-0.02731037139892578,0.2399311065673828,0.07171446084976196
1781604271509692200,17.486692138671874,0.12117242813110352,0.17663192749023438,0.08671194314956665
1781604271558208300,17.535208251953126,0.20778918266296387,0.3907814025878906,0.04321861267089844
1781604271606724000,17.58372412109375,0.1342715620994568,-0.5317211151123047,-0.9643044471740723
1781604271655240200,17.632240234375,0.17851579189300537,-1.0675630569458008,-1.270544409751892
1781604271703756000,17.680756103515623,0.568684995174408,0.2732353210449219,-1.0724923610687256
1781604271752272000,17.72927197265625,0.3855113387107849,0.08954048156738281,-0.5432608127593994
1781604271800788000,17.7777880859375,0.7578845024108887,0.3485879898071289,-0.7239334583282471
1781604271849303800,17.8263037109375,0.8405942916870117,0.4821443557739258,-1.2284103631973267
1781604271897820000,17.87481982421875,1.2775208950042725,0.5451869964599609,-0.9849847555160522
1781604271946335700,17.923335693359373,1.133552074432373,1.1178693771362305,-1.2598892450332642
1781604271994851800,17.971851806640625,1.6253753900527954,0.7579879760742188,-0.8052374124526978
1781604272043367700,18.02036767578125,1.2212166786193848,-1.1313238143920898,-1.9575625658035278
1781604272091883800,18.0688837890625,0.4505949020385742,-0.8914804458618164,-3.8551065921783447
1781604272140399600,18.117399658203126,2.8485219478607178,-1.4028358459472656,-3.0847079753875732
1781604272188915500,18.16591552734375,1.6733835935592651,-2.9638757705688477,-2.309800624847412
1781604272237431600,18.214431640625,0.4944407641887665,-1.9231691360473633,3.315548896789551
1781604272285947400,18.262947509765624,-1.13239324092865,1.380406379699707,1.0832853317260742
1781604272334463500,18.31146337890625,-1.4406598806381226,-0.9887714385986328,-0.13197672367095947
1781604272382979300,18.359979248046876,1.3367300033569336,0.36849403381347656,0.7017601728439331
1781604272431495400,18.408495361328125,0.6840758323669434,3.2037582397460938,1.2015036344528198
1781604272480011300,18.45701123046875,1.2628060579299927,1.1236839294433594,1.2441552877426147
1781604272528527000,18.505527099609374,1.707995057106018,-0.7090291976928711,-0.5936557650566101
1781604272577043200,18.554043212890626,1.3169995546340942,0.6713714599609375,-0.6271796226501465
1781604272625559000,18.60255908203125,2.312356472015381,0.19342041015625,-0.2965977191925049
1781604272674075000,18.651074951171875,3.038487672805786,1.4049553871154785,0.04809480905532837
1781604272722591000,18.699591064453124,2.641392946243286,-2.1152782440185547,-2.72316312789917
1781604272771106800,18.74810693359375,0.6185951232910156,-1.6274032592773438,-4.006711483001709
1781604272819623000,18.796622802734376,-4.648837566375732,5.166791915893555,0.809836745262146
1781604272868138800,18.845138671875,-4.059731960296631,-2.4038543701171875,5.755214691162109
1781604272916654600,18.893654541015625,-5.189640045166016,-13.630788803100586,0.28190210461616516
1781604272965170700,18.942170654296874,-3.0955753326416016,5.843268394470215,-3.2667410373687744
1781604273013686500,18.9906865234375,0.3542304039001465,4.036204814910889,0.8770831227302551
1781604273062202600,19.03920263671875,-1.1643822193145752,-0.4273395538330078,0.25836074352264404
1781604273110718500,19.087718505859375,0.4063936471939087,2.0931830406188965,-0.9501254558563232
1781604273159234300,19.136234375,0.9651502370834351,2.94578218460083,-2.1474578380584717
1781604273207750400,19.18475048828125,0.5288674831390381,-3.592513084411621,-1.354447364807129
1781604273256266200,19.233266357421876,3.3332924842834473,-3.2894821166992188,-0.7194932699203491
1781604273304782000,19.281781982421876,-2.6032826900482178,-4.239753723144531,1.8572173118591309
1781604273353298000,19.3302978515625,-1.9872045516967773,-0.34962940216064453,3.747192859649658
1781604273401814000,19.37881396484375,-1.2940165996551514,-0.5423688888549805,0.022901415824890137
1781604273450329900,19.427329833984373,0.11477780342102051,-1.4608345031738281,4.168076515197754
1781604273498846000,19.475845947265626,1.524996042251587,1.6715221405029297,2.147897243499756
1781604273547361800,19.52436181640625,-0.16587412357330322,2.047694206237793,0.6310810446739197
1781604273595877600,19.572877685546874,1.9176582098007202,1.2027292251586914,-1.6194357872009277
1781604273644393700,19.621393798828127,1.7575464248657227,1.156290054321289,-0.7608903646469116
1781604273692909600,19.66990966796875,3.6549463272094727,0.6883506774902344,-0.058414459228515625
1781604273741425400,19.71842529296875,2.417142629623413,1.1674909591674805,-3.441314935684204
1781604273789941200,19.766941162109376,0.9732850790023804,-2.7631139755249023,-3.374251127243042
1781604273838457300,19.815457275390624,-0.6325444579124451,3.2519335746765137,1.1413366794586182
1781604273886973200,19.86397314453125,-4.68994140625,2.0354795455932617,3.2276382446289062
1781604273935489300,19.9124892578125,-4.8618950843811035,-10.265512466430664,2.2611615657806396
1781604273984005000,19.961005126953125,-4.2213134765625,-6.884346961975098,-4.805262565612793
1781604274032521000,20.00952099609375,0.3147570490837097,7.732410430908203,-0.7852737903594971
1781604274081036800,20.058036865234374,-0.2620322108268738,3.9457812309265137,2.3035335540771484
1781604274129553000,20.106552978515627,0.11551368236541748,2.1270456314086914,1.4945096969604492
1781604274178068700,20.15506884765625,1.0121867656707764,0.27747058868408203,-0.9273586273193359
1781604274226584600,20.20358447265625,1.4207873344421387,-0.6855039596557617,-3.4791364669799805
1781604274275100400,20.252100341796876,1.2402877807617188,-3.008965492248535,-1.2350714206695557
1781604274323616500,20.300616455078124,1.1234489679336548,-3.1671152114868164,1.7306430339813232
1781604274372132400,20.34913232421875,-4.529827117919922,-4.5348663330078125,3.6320228576660156
1781604274420648200,20.397648193359377,-0.46688276529312134,2.05564022064209,-0.08929157257080078
1781604274469164300,20.446164306640625,-0.6759317517280579,-4.265122413635254,3.5234625339508057
1781604274517680000,20.49468017578125,1.937171220779419,1.7756242752075195,3.422450542449951
1781604274566196000,20.543196044921874,-0.4734165668487549,4.676839828491211,1.9674522876739502
1781604274614711800,20.5917119140625,1.283553123474121,-0.37572574615478516,-0.23636966943740845
1781604274663227600,20.6402275390625,1.76901376247406,-0.4342222213745117,-0.8008536696434021
1781604274711743700,20.68874365234375,3.1135215759277344,2.593921661376953,-2.160745143890381
1781604274760259600,20.737259521484376,2.8744993209838867,2.553922653198242,-3.2627058029174805
1781604274808775400,20.785775390625,1.5389598608016968,-3.595515251159668,-2.9844696521759033
1781604274857291300,20.834291259765624,1.5111894607543945,1.3529911041259766,-0.7874615788459778
1781604274905807400,20.882807373046877,-4.3215413093566895,5.240728378295898,2.4052329063415527
1781604274954323200,20.9313232421875,-5.835790634155273,-5.777585029602051,4.624927043914795
1781604275002839000,20.979839111328126,-4.815020561218262,-15.893040657043457,-2.470897674560547
1781604275051355000,21.02835498046875,-1.6825777292251587,7.171961307525635,-5.318291664123535
1781604275099870700,21.07687060546875,0.984477162361145,4.8585004806518555,1.6415799856185913
1781604275148386600,21.125386474609375,-0.40933436155319214,1.8578600883483887,2.5831046104431152
1781604275196902700,21.173902587890623,0.6628886461257935,1.1925420761108398,-1.3590106964111328
1781604275245418500,21.22241845703125,2.305645227432251,1.1515798568725586,-4.5335845947265625
1781604275293934300,21.270934326171876,0.6978242993354797,-4.5643415451049805,-2.0052080154418945
1781604275342450200,21.3194501953125,1.962507963180542,-5.005997657775879,3.7117888927459717
1781604275390966300,21.36796630859375,-2.43705415725708,-1.4453315734863281,3.9742822647094727
1781604275439481900,21.41648193359375,-1.8254785537719727,-0.057030677795410156,-0.5654149055480957
1781604275487998000,21.464998046875,-0.40360021591186523,-3.192011833190918,2.6655402183532715
1781604275536513800,21.513513671875,2.0202441215515137,1.4299449920654297,2.2024669647216797
1781604275585029600,21.562029541015626,-0.2598764896392822,3.3703408241271973,1.6758471727371216
1781604275633545500,21.61054541015625,1.4591549634933472,1.0897722244262695,-0.4924178123474121
1781604275682061600,21.6590615234375,2.1335480213165283,0.5120363235473633,-0.8039510250091553
1781604275730577400,21.707577392578123,2.5644543170928955,1.452554702758789,1.430495262145996
1781604275779093200,21.75609326171875,4.238130569458008,3.0630440711975098,0.1545432209968567
1781604275827609000,21.804609130859376,2.232391119003296,-3.5012712478637695,-5.464292526245117
1781604275876125000,21.853125,0.7602841258049011,0.15496158599853516,-4.118642807006836
1781604275924640800,21.901640869140625,-4.526632308959961,4.25911808013916,1.636423110961914
1781604275973156900,21.950156982421873,-5.335287094116211,-3.0245800018310547,7.147385597229004
1781604276021672700,21.998672607421874,-5.586665153503418,-15.782231330871582,0.2884965240955353
1781604276070188500,22.0471884765625,-2.587515354156494,4.840490341186523,-6.854432106018066
1781604276118704400,22.095704345703126,0.962993860244751,6.390894889831543,0.21357476711273193
1781604276167220200,22.14422021484375,-0.2676273584365845,2.464529037475586,2.931267499923706
1781604276215736000,22.192736083984375,0.9351584911346436,1.1905183792114258,-0.14178228378295898
1781604276264252000,22.241251953125,1.4909815788269043,1.2327756881713867,-3.1245903968811035
1781604276312767700,22.289767822265624,0.8689809441566467,-3.9567060470581055,-2.364274501800537
1781604276361283600,22.33828369140625,3.0343329906463623,-3.7292747497558594,3.0104119777679443
1781604276409799400,22.38679931640625,-4.690676689147949,-5.289865493774414,3.2919368743896484
1781604276458315300,22.435315185546877,-1.7065478563308716,0.9646892547607422,0.014406204223632812
1781604276506831400,22.483831298828125,-1.2975181341171265,-2.1499195098876953,1.8963297605514526
1781604276555347200,22.53234716796875,1.827967882156372,1.0844993591308594,4.408404350280762
1781604276603863000,22.580863037109374,0.023439526557922363,4.909597873687744,2.457141876220703
1781604276652379000,22.62937890625,1.37705659866333,-0.48420238494873047,-0.2041352093219757
1781604276700894700,22.677894775390627,2.0867719650268555,-0.25732421875,-1.028496265411377
1781604276749410600,22.72641064453125,3.547633171081543,2.438333511352539,-1.247873067855835
1781604276797926400,22.774926513671875,3.6769332885742188,3.2141380310058594,-4.157000541687012
1781604276846442200,22.823442138671876,1.3348336219787598,-3.980497360229492,-4.533477306365967
1781604276894958000,22.8719580078125,-0.2166132926940918,2.0444893836975098,-1.6858913898468018
1781604276943474200,22.92047412109375,-4.463045597076416,3.117565155029297,3.845215320587158
1781604276991990000,22.968989990234373,-4.7598676681518555,-8.360978126525879,5.707427024841309
1781604277040505900,23.017505859375,-5.426192283630371,-11.221107482910156,-6.780904769897461
1781604277089021700,23.066021728515626,-0.21215522289276123,9.831135749816895,-3.345468521118164
1781604277137537500,23.11453759765625,0.5093293190002441,2.360334873199463,2.1766676902770996
1781604277186053400,23.163053466796875,-0.5699432492256165,1.239537239074707,1.1470003128051758
1781604277234569200,23.2115693359375,0.9748473167419434,1.9424524307250977,-1.2815686464309692
1781604277283085000,23.2600849609375,1.4083422422409058,0.39319896697998047,-3.076040029525757
1781604277331601000,23.308600830078124,0.21337133646011353,-5.181928634643555,1.429333209991455
1781604277380116700,23.35711669921875,1.6058270931243896,-5.040356636047363,1.4331207275390625
1781604277428632600,23.405632568359376,-4.037148952484131,-1.2291221618652344,2.9340624809265137
1781604277477148400,23.4541484375,-1.5239285230636597,0.07923126220703125,0.7492583990097046
1781604277525664300,23.502664306640625,-0.03546440601348877,-1.9174518585205078,4.759392738342285
1781604277574180000,23.55118017578125,1.9118108749389648,1.9884033203125,2.4563112258911133
1781604277622696200,23.5996962890625,-0.26960456371307373,3.0806937217712402,1.0237079858779907
1781604277671212000,23.6482119140625,1.3046810626983643,0.05261802673339844,-1.4239095449447632
1781604277719727600,23.6967275390625,2.45980167388916,-0.5215129852294922,-0.9894360899925232
1781604277768243500,23.745243408203127,3.080643653869629,1.493098258972168,-0.14616602659225464
1781604277816759300,23.79375927734375,3.831479549407959,3.5609993934631348,-3.9055330753326416
1781604277865275400,23.842275390625,0.9064490795135498,-2.8269853591918945,-3.9824070930480957
1781604277913791200,23.890791259765624,0.05266839265823364,2.102565288543701,-0.46677500009536743
1781604277962307000,23.93930712890625,-5.639523983001709,1.739959716796875,3.353543996810913
1781604278010823000,23.987822998046877,-4.795809268951416,-9.247720718383789,3.4075570106506348
1781604278059338800,24.0363388671875,-4.329453468322754,-7.773638725280762,-5.742343425750732
1781604278107854600,24.0848544921875,-0.438946008682251,7.720489501953125,-2.344170093536377
1781604278156370400,24.133370361328126,0.18336212635040283,3.1603899002075195,1.8276206254959106
1781604278204886300,24.18188623046875,-0.3813057243824005,1.8048219680786133,1.6460652351379395
1781604278253402000,24.230402099609375,1.093285322189331,1.4263105392456055,-0.40895187854766846
1781604278301918000,24.27891796875,1.1916728019714355,-0.5752296447753906,-2.6766738891601562
1781604278350433800,24.327433837890624,1.2212424278259277,-3.2456703186035156,-0.08479440212249756
1781604278398949600,24.37594970703125,2.6121397018432617,-3.84183406829834,0.22818267345428467
1781604278447465500,24.424465576171876,-5.038308143615723,-3.934171676635742,2.7231855392456055
1781604278495981300,24.472981201171876,-0.7847571969032288,1.6939659118652344,0.6107510328292847
1781604278544497200,24.5214970703125,-1.1079879999160767,-1.6749458312988281,2.673323631286621
1781604278593013200,24.57001318359375,2.1552329063415527,0.6247568130493164,3.3992767333984375
1781604278641528800,24.61852880859375,-0.006992459297180176,4.650976657867432,2.5097851753234863
1781604278690044700,24.667044677734374,1.811111569404602,-0.4766521453857422,-0.7556661367416382
1781604278738560500,24.715560546875,1.769218921661377,-1.142385482788086,-1.5939407348632812
1781604278787076400,24.764076416015627,3.6805005073547363,3.368086338043213,-0.87888503074646
1781604278835592200,24.81259228515625,2.883491039276123,2.645972728729248,-3.4699878692626953
1781604278884108000,24.86110791015625,0.9590054750442505,-4.099123001098633,-5.120730400085449
1781604278932624000,24.909623779296876,-1.610528588294983,2.13887882232666,-1.282200813293457
1781604278981139700,24.9581396484375,-4.25661039352417,2.7456774711608887,5.883331298828125
1781604279029655600,25.006655517578125,-5.334259033203125,-11.419438362121582,5.2279887199401855
1781604279078171400,25.05517138671875,-4.422991752624512,-6.322175025939941,-7.797183990478516
1781604279126687200,25.103687255859374,0.6534736156463623,8.950235366821289,-2.607825994491577
1781604279175203000,25.152203125,0.20304596424102783,2.982668876647949,2.3097190856933594
1781604279223719000,25.200718994140626,0.3696483373641968,2.697580337524414,0.8124241828918457
1781604279272234800,25.24923486328125,0.8972154855728149,1.7170038223266602,-1.677409291267395
1781604279320750600,25.29775048828125,0.9421530365943909,-3.270700454711914,-2.299191951751709
1781604279369266400,25.346266357421875,1.7401403188705444,-3.2626781463623047,1.3822132349014282
1781604279417782300,25.3947822265625,0.5355286598205566,-6.241599082946777,0.0331110954284668
1781604279466298000,25.443298095703124,-4.077486991882324,-0.7808628082275391,2.194552183151245
1781604279514814000,25.49181396484375,-1.218668818473816,0.6009254455566406,0.2519106864929199
1781604279563329800,25.540329833984377,0.4564934968948364,-1.7210817337036133,3.7802252769470215
1781604279611845600,25.588845703125,2.3467466831207275,3.2416186332702637,2.5047264099121094
1781604279660361500,25.637361572265625,-0.029880046844482422,3.206709861755371,1.688096284866333
1781604279708877300,25.685877197265626,1.8257099390029907,0.19811153411865234,-0.7492228150367737
1781604279757393200,25.73439306640625,1.7601124048233032,0.7952156066894531,-0.8157522678375244
1781604279805909000,25.782908935546875,5.612995147705078,1.0222291946411133,-1.1726694107055664
1781604279854424800,25.8314248046875,1.3589520454406738,1.222494125366211,-5.015559196472168
1781604279902940700,25.879940673828123,-0.38039422035217285,-2.376232147216797,-5.301575183868408
1781604279951456500,25.92845654296875,-2.3379921913146973,1.787607192993164,2.5371952056884766
1781604279999972000,25.97697216796875,-3.6667847633361816,-0.49880409240722656,7.614984512329102
1781604280048488000,26.025488037109376,-6.400875568389893,-13.77747917175293,-1.467542052268982
1781604280097003800,26.074003662109376,-1.7993240356445312,5.298635005950928,-6.745303153991699
1781604280145519600,26.12251953125,0.5488119721412659,5.143777847290039,0.48926448822021484
1781604280194035500,26.171035400390625,-0.507365882396698,0.7222700119018555,1.5994586944580078
1781604280242551300,26.21955126953125,0.09948009252548218,2.732027053833008,-0.7012667655944824
1781604280291067100,26.268067138671874,1.8168423175811768,0.6155290603637695,-1.869111180305481
1781604280339583000,26.3165830078125,0.2344556450843811,-2.5495834350585938,-1.6459709405899048
1781604280388098800,26.365098876953127,3.2859272956848145,-1.8273611068725586,1.3193987607955933
1781604280436614700,26.41361474609375,-2.5398006439208984,-8.741067886352539,2.9385743141174316
1781604280485130500,26.462130615234376,-1.793452501296997,1.9059243202209473,0.9394025802612305
1781604280533646300,26.510646240234376,-1.3730428218841553,-0.7595252990722656,1.3459442853927612
1781604280582162200,26.559162109375,1.266524314880371,-1.321634292602539,3.5784146785736084
1781604280630678000,26.607677978515625,0.7765873670578003,4.435793876647949,1.4627387523651123
1781604280679193900,26.65619384765625,0.2067960500717163,1.6098880767822266,0.7627561688423157
1781604280727709700,26.704709716796874,2.4108786582946777,-0.6350030899047852,-0.7983267307281494
1781604280776226000,26.75322607421875,1.816955327987671,1.7384724617004395,0.11307334899902344
1781604280824741400,26.801741455078126,4.150839805603027,4.3438401222229,-1.5300695896148682
1781604280873257200,26.85025732421875,2.332866668701172,-4.445219993591309,-6.468708038330078
1781604280921772800,26.898772705078127,0.2726374864578247,0.28285980224609375,-4.228166580200195
1781604280970288600,26.94728857421875,-3.699586868286133,5.539826393127441,4.383689880371094
1781604281018804500,26.995804443359376,-4.880954265594482,-6.282639503479004,7.4420695304870605
1781604281067320300,27.0443203125,-5.783596038818359,-14.966146469116211,-3.4814679622650146
1781604281115836200,27.092836181640624,-0.6142544746398926,10.336772918701172,-5.408073902130127
1781604281164352000,27.14135205078125,0.7955418825149536,4.140511512756348,0.85248202085495
1781604281212867800,27.189867919921873,-0.40867629647254944,1.9413371086120605,1.6232709884643555
1781604281261383700,27.2383837890625,1.2522897720336914,1.2311534881591797,-0.3856407403945923
1781604281309899500,27.2868994140625,1.8715293407440186,-0.29210662841796875,-2.408611297607422
1781604281358415400,27.335415283203126,2.293342351913452,-4.191411018371582,1.6290979385375977
1781604281406931200,27.38393115234375,-0.6689800024032593,-5.665140151977539,0.4971228837966919
1781604281455446800,27.43244677734375,-3.6787874698638916,-2.0458269119262695,2.6550726890563965
1781604281503962600,27.480962646484375,-0.9899899959564209,-0.00780487060546875,-0.992872953414917
1781604281552478500,27.529478515625,0.45612406730651855,-2.4777536392211914,3.1376068592071533
1781604281600994300,27.577994384765624,2.389063596725464,4.420249938964844,3.519545555114746
1781604281649510100,27.62651025390625,-0.8152855634689331,4.156061172485352,1.6823610067367554
1781604281698026000,27.67502587890625,2.5322580337524414,-1.5974674224853516,-0.7252016067504883
1781604281746541800,27.723541748046873,1.8358433246612549,0.4186878204345703,0.7868958115577698
1781604281795057400,27.772057373046874,5.690844535827637,4.529610633850098,-1.896195650100708
1781604281843573200,27.8205732421875,0.42020702362060547,-1.7640247344970703,-6.217194080352783
1781604281892089000,27.869089111328126,2.03316593170166,-1.5165481567382812,-3.968402862548828
1781604281940605000,27.91760498046875,-4.510280609130859,5.9292449951171875,2.3929004669189453
1781604281989120800,27.966120849609375,-5.114062786102295,-6.90556526184082,6.198102951049805
1781604282037636600,28.01463671875,-5.5133748054504395,-16.205108642578125,-2.484269380569458
1781604282086152400,28.06315234375,-0.4753890931606293,9.795854568481445,-4.846230983734131
1781604282134668000,28.11166796875,-0.25810205936431885,5.151483058929443,0.9965773820877075
1781604282183184000,28.160183837890624,0.1697595715522766,3.8436126708984375,0.5291711091995239
1781604282231699700,28.20869970703125,1.6772229671478271,1.357229232788086,-2.1782805919647217
1781604282280215600,28.257215576171873,1.9455363750457764,-0.7989368438720703,-4.274005889892578
1781604282328731400,28.3057314453125,0.5572971105575562,-6.8491106033325195,1.7170253992080688
1781604282377247200,28.354247314453126,1.339917778968811,-5.981509208679199,4.657843589782715
1781604282425763000,28.40276318359375,-2.566258192062378,1.4528322219848633,2.1095027923583984
1781604282474278700,28.451278564453126,-1.7253302335739136,-4.288205146789551,-2.270375967025757
1781604282522794500,28.49979443359375,1.3148001432418823,0.27626895904541016,3.8517589569091797
1781604282571310300,28.548310302734375,2.9137587547302246,4.255467414855957,3.0416769981384277
1781604282619826200,28.596826171875,-0.31113243103027344,3.335340976715088,1.4899266958236694
1781604282668342000,28.645342041015624,1.8822916746139526,0.15497589111328125,-0.4936804473400116
1781604282716857600,28.693857666015624,1.9631783962249756,-0.46261024475097656,0.7407723665237427
1781604282765373400,28.74237353515625,5.878900527954102,2.647005081176758,0.3174029588699341
1781604282813889300,28.79088916015625,2.814073085784912,2.0379114151000977,-7.148963928222656
1781604282862405000,28.839405029296874,-2.157804012298584,-2.827334403991699,-5.049185752868652
1781604282910921000,28.8879208984375,-3.830434799194336,2.5842862129211426,4.293915748596191
1781604282959436500,28.9364365234375,-2.8271777629852295,-5.955547332763672,9.527897834777832
1781604283007952400,28.984952392578126,-7.557211875915527,-15.148029327392578,-5.803309440612793
1781604283056468200,29.03346826171875,-0.26928678154945374,10.697661399841309,-7.371155738830566
1781604283104984000,29.081984130859375,0.6705485582351685,4.295609474182129,1.0323059558868408
1781604283153499600,29.130499755859375,0.37331438064575195,3.9932126998901367,2.4005589485168457
1781604283202015500,29.179015380859376,1.5973222255706787,3.3610897064208984,-0.7274761199951172
1781604283250531300,29.22753125,1.3017091751098633,-2.6356897354125977,-3.2030622959136963
1781604283299047200,29.276047119140625,1.4246711730957031,-4.809138298034668,2.1155200004577637
1781604283347562800,29.324562744140625,-0.9813457131385803,-9.717353820800781,5.905451774597168
1781604283396078600,29.37307861328125,-2.8549625873565674,2.1557741165161133,-1.5573253631591797
1781604283444594400,29.421594482421874,-1.6102465391159058,-4.372629165649414,-0.2919729948043823
1781604283493110300,29.4701103515625,2.1005008220672607,1.6214170455932617,3.84926176071167
1781604283541625900,29.5186259765625,1.8677978515625,5.663569450378418,3.077526092529297
1781604283590141700,29.5671416015625,0.5544717311859131,1.7049760818481445,1.3405475616455078
1781604283638657500,29.615657470703123,3.049354076385498,-0.2726907730102539,-1.3795933723449707
1781604283687173400,29.66417333984375,2.911247491836548,0.2795143127441406,-0.3115072250366211
1781604283735689200,29.712689208984376,5.67411994934082,4.378246784210205,-3.9198386669158936
1781604283784205000,29.761205078125,-0.05560624599456787,-1.9181652069091797,-6.762086391448975
1781604283832720600,29.809720703125,-2.4396374225616455,1.7428083419799805,-1.4750885963439941
1781604283881236500,29.858236572265625,-4.637839317321777,-0.48992061614990234,6.800756454467773
1781604283929752300,29.90675244140625,-6.0081257820129395,-15.466694831848145,6.062325477600098
1781604283978268000,29.955267822265625,-4.549990653991699,-1.177027702331543,-9.280840873718262
1781604284026783700,30.00378369140625,1.2183947563171387,9.620683670043945,-3.0658621788024902
1781604284075299600,30.052299560546874,-0.04089093208312988,3.216217517852783,2.4659130573272705
1781604284123815200,30.100815185546875,0.7202596068382263,3.651996612548828,0.09688866138458252
1781604284172331000,30.1493310546875,1.113677740097046,2.1072397232055664,-3.4764938354492188
1781604284220846800,30.197846923828124,0.8716745376586914,-6.630949974060059,-2.359374523162842
1781604284269362400,30.246362548828124,2.150218963623047,-7.2293291091918945,4.521753787994385
1781604284317878300,30.294878173828124,-2.325899600982666,-2.141918182373047,3.1429858207702637
1781604284366394000,30.34339404296875,-3.2743632793426514,-1.56695556640625,-1.3454651832580566
1781604284414910000,30.391909912109377,-0.15044176578521729,-2.056900978088379,4.446870803833008
1781604284463425500,30.440425537109373,3.030569553375244,3.7310261726379395,3.356204032897949
1781604284511941400,30.48894140625,-0.14196467399597168,4.16510534286499,1.8085843324661255
1781604284560457200,30.537457275390626,2.449902057647705,0.10331153869628906,-0.042534396052360535
1781604284608972800,30.585972900390626,1.4334948062896729,-0.27874755859375,-0.2219293713569641
1781604284657488600,30.634488525390626,5.136931419372559,1.6955814361572266,-1.0062246322631836
1781604284706004500,30.68300439453125,4.171311855316162,3.869901180267334,-7.140796184539795
1781604284754520000,30.73152001953125,0.19760358333587646,-5.29847526550293,-6.017452716827393
1781604284803036000,30.780035888671875,-3.189587116241455,4.049900531768799,0.7338173985481262
1781604284851551700,30.8285517578125,-4.547990798950195,1.5118637084960938,6.669783592224121
1781604284900067300,30.8770673828125,-6.231977462768555,-18.987751007080078,3.991377115249634
1781604284948583200,30.925583251953125,-3.4649853706359863,4.185293197631836,-9.696752548217773
1781604284997099000,30.97409912109375,1.344118595123291,7.054556846618652,-1.9730087518692017
1781604285045614600,31.022614501953125,-0.21289736032485962,2.917263984680176,2.4214189052581787
1781604285094130400,31.07113037109375,0.5318325161933899,3.7956275939941406,-0.881869912147522
1781604285142646300,31.119646240234374,2.100790023803711,1.4441041946411133,-3.1313257217407227
1781604285191161900,31.168161865234374,0.1997431218624115,-8.895767211914062,-0.599664568901062
1781604285239677700,31.216677734375,1.437620759010315,-6.4847259521484375,6.142111778259277
1781604285288193300,31.265193359375,-1.9383156299591064,-0.4989757537841797,2.683701753616333
1781604285336709000,31.313709228515624,-2.699476480484009,-2.3002586364746094,-2.957226037979126
1781604285385224700,31.362224609375,0.5203019380569458,-1.1800222396850586,4.558938980102539
1781604285433740500,31.410740478515624,3.9898481369018555,3.5918688774108887,3.3768727779388428
1781604285482256400,31.45925634765625,0.0791628360748291,4.905773639678955,1.2156124114990234
1781604285530772000,31.50777197265625,2.2643070220947266,1.1933917999267578,0.45552024245262146
1781604285579287800,31.556287841796873,1.8619555234909058,-1.4683637619018555,-0.12255802750587463
1781604285627803600,31.6048037109375,6.5774641036987305,2.9708900451660156,-0.5132462978363037
1781604285676319200,31.6533193359375,2.3426296710968018,0.651911735534668,-8.565519332885742
1781604285724835000,31.7018349609375,-1.3856685161590576,-3.0387887954711914,-6.002996921539307
1781604285773350700,31.7503505859375,-4.053836822509766,4.225269794464111,5.069470405578613
1781604285821866500,31.798866455078127,-2.8812313079833984,-5.019883155822754,9.64494800567627
1781604285870382300,31.84738232421875,-8.836956977844238,-18.651477813720703,-6.357633590698242
1781604285918898000,31.89589794921875,0.35627996921539307,12.700370788574219,-8.334027290344238
1781604285967413800,31.944413818359376,1.3869593143463135,4.281040191650391,1.4511979818344116
1781604286015929300,31.992929443359376,0.7118402719497681,3.6222991943359375,2.7700634002685547
1781604286064445200,32.04144506835937,1.46947181224823,3.1536927223205566,-0.18838536739349365
1781604286112970000,32.08996997070312,1.8361027240753174,-0.5683784484863281,-2.7279744148254395
1781604286161476600,32.1384765625,-0.11778992414474487,-7.449368476867676,2.871778964996338
1781604286209992400,32.186992431640626,0.6555029153823853,-8.662858009338379,4.416326522827148
1781604286258508000,32.235508056640626,-3.3990325927734375,2.0674757957458496,0.43584156036376953
1781604286307023600,32.284023681640626,-2.485755205154419,-2.663820266723633,-0.5413346290588379
1781604286355539500,32.33253955078125,1.1621214151382446,-1.256937026977539,5.584782123565674
1781604286404055000,32.38105493164063,2.2503371238708496,5.53474760055542,3.234498977661133
1781604286452571000,32.42957080078125,0.2718045711517334,2.632040023803711,0.4821159839630127
1781604286501086700,32.47808666992187,2.461798906326294,-1.242234230041504,-1.8550539016723633
1781604286549602300,32.52660229492187,2.363743782043457,0.2226848602294922,-0.3122537434101105
1781604286598118100,32.5751181640625,5.6521806716918945,4.387170314788818,-1.0005193948745728
1781604286646633700,32.6236337890625,1.5031015872955322,0.8877639770507812,-6.201355457305908
1781604286695149300,32.6721494140625,-0.13706672191619873,-4.345249176025391,-5.063088417053223
1781604286743665200,32.7206650390625,-4.040355682373047,3.83170747756958,4.098239421844482
1781604286792181000,32.769180908203126,-3.4147257804870605,-2.1490821838378906,8.968957901000977
1781604286840696600,32.817696533203126,-7.018504619598389,-18.497634887695312,-5.060942649841309
1781604286889212400,32.86621240234375,-1.235148549079895,9.572446823120117,-8.104544639587402
1781604286937728000,32.91472802734375,1.2322601079940796,3.2800354957580566,0.11444008350372314
1781604286986243600,32.96324365234375,0.2400301694869995,3.350400447845459,2.299741744995117
1781604287034759400,33.01175952148437,1.7171705961227417,4.889193534851074,0.405364990234375
1781604287083275300,33.06027514648437,1.6585253477096558,1.3535900115966797,-2.0922579765319824
1781604287131790800,33.10879077148437,-0.7873432636260986,-8.522773742675781,-0.7784727811813354
1781604287180306400,33.15730639648437,3.97908616065979,-4.5203046798706055,3.0017807483673096
1781604287228822300,33.205822265625,-4.89530611038208,-2.884500503540039,3.1989588737487793
1781604287277337900,33.254337890625,-1.7793848514556885,0.2767620086669922,-0.415783166885376
1781604287325853700,33.302853759765625,-0.31905925273895264,-2.0374555587768555,3.3296866416931152
1781604287374369300,33.351369384765626,3.214148998260498,2.2735838890075684,3.1784234046936035
1781604287422885000,33.399885009765626,-0.1266636848449707,4.482017993927002,1.6122362613677979
1781604287471400700,33.448400634765626,2.2995519638061523,-0.3806924819946289,0.2664027810096741
1781604287519916300,33.49691625976563,1.8212538957595825,-0.9865951538085938,0.37027502059936523
1781604287568432000,33.54543212890625,6.515510082244873,3.664637565612793,-0.19630727171897888
1781604287616948000,33.59394799804687,3.414505958557129,3.4436588287353516,-6.811060428619385
1781604287665463600,33.64246362304687,0.653011679649353,-5.733526229858398,-7.002599239349365
1781604287713979100,33.69097924804687,-3.9264628887176514,3.7242960929870605,0.5600160956382751
1781604287762495000,33.73949487304687,-3.5647830963134766,1.1887006759643555,8.35722541809082
1781604287811010600,33.78801049804687,-6.3610124588012695,-20.739124298095703,0.5116739273071289
1781604287859526400,33.8365263671875,-3.20332932472229,5.710140228271484,-10.223567008972168
1781604287908042000,33.8850419921875,2.2164783477783203,7.029642105102539,-1.0746365785598755
1781604287956557600,33.9335576171875,0.4701576232910156,3.0545406341552734,4.1903557777404785
1781604288005073400,33.982073486328126,1.0472140312194824,3.73433780670166,1.5426757335662842
1781604288053589000,34.030589111328126,1.1818530559539795,1.840010643005371,-1.9135291576385498
1781604288102104800,34.07910473632813,-0.15035700798034668,-6.799921035766602,-1.471688151359558
1781604288150620400,34.12762036132813,2.964613676071167,-5.538510322570801,2.5764007568359375
1781604288199136000,34.17613598632813,-4.010533332824707,-4.753800392150879,2.868864059448242
1781604288247651600,34.22465161132813,-1.740828514099121,0.5345344543457031,-1.42020583152771
1781604288296180000,34.27317993164063,-0.5875625610351562,-2.762669563293457,4.2710795402526855
1781604288344683000,34.32168310546875,3.148063898086548,3.319149971008301,4.5235443115234375
1781604288393198800,34.37019873046875,0.371195912361145,5.176560878753662,2.1504948139190674
1781604288441714400,34.41871435546875,2.529200792312622,-0.6421070098876953,-0.8693646788597107
1781604288490230000,34.46722998046875,2.114142894744873,-0.5410699844360352,-1.8609718084335327
1781604288538745900,34.515745849609374,5.342560768127441,2.4552321434020996,-1.5703628063201904
1781604288587261400,34.564261474609374,3.029456377029419,3.9212727546691895,-6.264438152313232
1781604288635777300,34.61277734375,0.15002870559692383,-4.320161819458008,-5.314154624938965
1781604288684292900,34.66129296875,-4.0012898445129395,3.6659927368164062,2.3503634929656982
1781604288732808700,34.70980859375,-3.315624952316284,-2.9861879348754883,7.649527549743652
1781604288781324300,34.75832421875,-6.93158483505249,-18.90770721435547,-1.8845382928848267
1781604288829840000,34.80683984375,-1.8153343200683594,8.818896293640137,-8.912068367004395
1781604288878355500,34.85535546875,1.8519325256347656,5.597344875335693,-0.1923999786376953
1781604288926871300,34.90387133789063,-0.06692659854888916,3.471336841583252,3.042635440826416
1781604288975387000,34.95238696289063,0.7818664312362671,3.963712692260742,0.597971498966217
1781604289023902500,35.00090234375,1.4115641117095947,-0.15520763397216797,-1.4646397829055786
1781604289072418000,35.04941796875,0.13075727224349976,-7.653251647949219,2.1583900451660156
1781604289120934000,35.09793383789062,1.1063323020935059,-8.345762252807617,3.4388208389282227
1781604289169449500,35.14644946289062,-3.42752742767334,1.0293169021606445,0.1887669563293457
1781604289266481000,35.24348095703125,1.3763939142227173,0.27866363525390625,5.77788782119751
1781604289314996500,35.29199658203125,2.563776969909668,4.49263858795166,2.1736221313476562
1781604289363512300,35.34051220703125,-0.12151110172271729,2.7735958099365234,-0.3636605441570282
1781604289412028000,35.38902783203125,2.5060982704162598,-0.19681835174560547,-2.0462610721588135
1781604289460543500,35.43754345703125,2.9504334926605225,0.20667171478271484,-1.3257383108139038
1781604289509059300,35.486059326171876,5.717647552490234,3.3301916122436523,-1.8873491287231445
1781604289557575000,35.53457495117188,1.5593003034591675,0.2812662124633789,-4.6399006843566895
1781604289606090500,35.58309057617188,-0.19582486152648926,-2.7363367080688477,-3.9938032627105713
1781604289654606000,35.63160620117188,-4.516630172729492,4.021377086639404,2.507596969604492
1781604289703122000,35.68012182617188,-3.1851346492767334,-3.719573974609375,8.217517852783203
1781604289751637500,35.72863745117188,-7.395493984222412,-18.664682388305664,-3.1839804649353027
1781604289800153000,35.77715307617188,-0.8180602788925171,10.329899787902832,-8.742057800292969
1781604289848668700,35.82566870117188,0.9574787616729736,4.821897029876709,0.4090578556060791
1781604289945700000,35.9227001953125,1.515214204788208,4.152578353881836,0.08959794044494629
1781604289994215700,35.97121557617187,1.5723648071289062,-1.6137609481811523,-2.258357524871826
1781604290042731300,36.01973120117187,0.27567344903945923,-6.950130462646484,2.160862922668457
1781604290091247000,36.0682470703125,2.8324596881866455,-4.051358222961426,0.9776893854141235
1781604290139762700,36.1167626953125,-5.011752605438232,-3.21907901763916,2.731541872024536
1781604290188278300,36.1652783203125,-1.302283525466919,-0.47838783264160156,-0.9103434085845947
1781604290236794000,36.213794189453125,0.06072497367858887,-1.1833648681640625,2.998032808303833
1781604290285309700,36.262309814453126,3.1393399238586426,3.431769371032715,3.3998637199401855
1781604290333825300,36.3108251953125,0.1812419891357422,5.081930637359619,2.362149477005005
1781604290382340900,36.3593408203125,2.919407606124878,-0.9147319793701172,-0.6907140612602234
1781604290430856700,36.407856689453126,1.66196870803833,-1.0918874740600586,-1.0393054485321045
1781604290479372300,36.45637231445313,6.5149688720703125,5.013788223266602,-3.1990087032318115
1781604290527888000,36.50488793945313,1.3653634786605835,-0.2505168914794922,-7.069460868835449
1781604290576403500,36.55340356445313,-0.8496944904327393,-2.013300895690918,-3.8906867504119873
1781604290624919000,36.6019189453125,-4.330714225769043,2.7878518104553223,4.187877655029297
1781604290673435000,36.65043481445313,-3.3308815956115723,-8.57516098022461,7.804841041564941
1781604290721950500,36.69895043945313,-7.824318885803223,-13.48511028289795,-6.258383274078369
1781604290770466000,36.74746606445313,0.5385527610778809,12.418844223022461,-7.038388252258301
1781604290818981600,36.79598168945312,0.8493652939796448,4.955993175506592,1.7299941778182983
1781604290867497200,36.84449731445312,0.4269246459007263,3.660449504852295,2.770278215408325
1781604290916013000,36.89301293945312,1.305436611175537,0.872406005859375,0.019022047519683838
1781604290964528600,36.94152856445312,0.3678702712059021,-3.45102596282959,-3.6850340366363525
1781604291013044200,36.99004418945312,2.3252203464508057,-4.089177131652832,3.154609441757202
1781604291061559800,37.03855981445312,-1.5353840589523315,-8.616780281066895,4.86530065536499
1781604291110075600,37.08707568359375,-3.226038932800293,1.3494300842285156,-1.2717242240905762
1781604291158591200,37.13559130859375,-1.6459280252456665,-2.511869430541992,0.4252219796180725
1781604291207106800,37.18410693359375,2.6415786743164062,0.9443769454956055,4.330195426940918
1781604291255622400,37.232622314453124,1.8281683921813965,6.580890655517578,2.0439043045043945
1781604291304138000,37.281137939453124,0.9599273204803467,2.4623775482177734,1.1064590215682983
1781604291352653600,37.329653564453125,2.33707857131958,-2.5901193618774414,-0.23662954568862915
1781604291401169400,37.37816943359375,4.725420951843262,0.8744058609008789,-0.5500504970550537
1781604291449685000,37.42668505859375,4.701353073120117,6.195967197418213,-5.838566303253174
1781604291498200600,37.47520068359375,0.160028338432312,-6.412219047546387,-6.628465175628662
1781604291546716200,37.523716064453126,-3.3365495204925537,3.620975971221924,-0.16150301694869995
1781604291595232000,37.57223193359375,-3.5631046295166016,1.9779701232910156,6.919459819793701
1781604291643747600,37.62074755859375,-5.671546459197998,-18.863994598388672,4.452790260314941
1781604291692263200,37.66926318359375,-4.879966735839844,0.9976959228515625,-9.866325378417969
1781604291740778800,37.71777880859375,2.0548627376556396,9.498077392578125,-2.6171655654907227
1781604291789294300,37.76629443359375,-0.3429982662200928,3.598588466644287,2.422003746032715
1781604291837810000,37.81480981445313,0.948556661605835,3.287351608276367,0.09641236066818237
1781604291886325800,37.86332568359375,2.165306568145752,1.402216911315918,-1.8740216493606567
1781604291934841300,37.91184130859375,0.170335590839386,-6.567225456237793,0.1259828805923462
1781604291983357000,37.96035693359375,0.9367974400520325,-6.76881217956543,7.126796722412109
1781604292031872500,38.00887255859375,-2.1554713249206543,-0.9560623168945312,1.536154866218567
1781604292080388000,38.05738818359375,-3.5021698474884033,-2.8026304244995117,-4.386788368225098
1781604292128903700,38.10590356445312,0.7578132152557373,-1.412388801574707,5.080523490905762
1781604292177419500,38.15441943359375,3.0415635108947754,4.519899368286133,4.244267463684082
1781604292225935000,38.20293505859375,-0.4129382371902466,4.294610023498535,1.4730660915374756
1781604292274450700,38.25145068359375,2.078845500946045,-0.6556797027587891,-0.026294976472854614
1781604292322966300,38.29996630859375,2.0341973304748535,-0.4963645935058594,-0.09840807318687439
1781604292371481900,38.34848193359375,6.510487079620361,2.329265594482422,-0.7169691324234009
1781604292419997400,38.39699755859375,2.984520435333252,3.291301727294922,-7.0498199462890625
1781604292468513300,38.44551318359375,0.39289188385009766,-5.352364540100098,-5.318276882171631
1781604292517028900,38.49402880859375,-3.500955581665039,3.377768039703369,0.04341314733028412
1781604292565544400,38.54254443359375,-3.7059218883514404,1.3916454315185547,6.81664514541626
1781604292614060000,38.59106005859375,-5.587628364562988,-17.482141494750977,2.63077449798584
1781604292662575600,38.63957568359375,-3.982696056365967,2.31331729888916,-9.19072437286377
1781604292711091200,38.68809130859375,1.5603489875793457,8.899258613586426,-2.174076795578003
1781604292759606800,38.736606689453126,-0.021336674690246582,3.6179709434509277,3.188722848892212
1781604292808122400,38.785122314453126,0.764248788356781,2.5712051391601562,0.8211295008659363
1781604292856638000,38.833637939453126,1.4217292070388794,0.4788398742675781,-2.0710606575012207
1781604292905153800,38.88215380859375,0.40788644552230835,-5.3421430587768555,-1.6808412075042725
1781604292953669400,38.93066943359375,2.030568838119507,-5.763737678527832,4.662141799926758
1781604293002185000,38.97918505859375,-3.425691843032837,-3.1497974395751953,2.9705920219421387
1781604293050700500,39.02770043945313,-2.8221778869628906,0.00441741943359375,-2.4615225791931152
1781604293099216100,39.07621606445313,-0.1384655237197876,-2.9409608840942383,3.4423141479492188
1781604293147731700,39.12473168945313,3.323922634124756,3.5862412452697754,3.4077391624450684
1781604293196247600,39.17324755859375,-0.19837594032287598,4.866811752319336,1.3806918859481812
1781604293244763100,39.22176318359375,2.155771493911743,-0.7495288848876953,0.21623440086841583
1781604293293278500,39.27027856445312,2.0532078742980957,-0.3677387237548828,-0.36672770977020264
1781604293341794300,39.31879418945312,6.139530181884766,3.275378704071045,-1.473594307899475
1781604293390310000,39.36730981445312,1.8580718040466309,2.8529481887817383,-5.7360358238220215
1781604293438825500,39.41582543945312,1.458186149597168,-5.96031379699707,-5.880622386932373
1781604293487341000,39.46434106445312,-2.981513261795044,5.396947383880615,0.23317977786064148
1781604293535856600,39.51285668945312,-4.844579219818115,1.6274003982543945,6.527652740478516
1781604293584372200,39.56137231445312,-5.753322601318359,-19.239952087402344,3.2542667388916016
1781604293632888000,39.60988818359375,-3.9440765380859375,1.7622251510620117,-9.253525733947754
1781604293681403600,39.658403564453124,1.5850603580474854,8.989114761352539,-1.6038603782653809
1781604293729919200,39.706919189453124,0.008448004722595215,3.149693489074707,3.021087884902954
1781604293778434800,39.755434814453125,0.7851696014404297,2.924100875854492,0.10577112436294556
1781604293826950400,39.803950439453125,1.6244202852249146,0.08490943908691406,-3.286045789718628
1781604293875466000,39.852466064453125,0.7976218461990356,-4.435550689697266,-0.974319338798523
1781604293923981600,39.900981689453126,2.449169158935547,-2.702101707458496,4.24290657043457
1781604293972497200,39.9494970703125,-4.445234775543213,-6.45761775970459,2.998047351837158
1781604294021012700,39.9980126953125,-1.6602296829223633,0.15617847442626953,-1.6200107336044312
1781604294069528600,40.046528564453126,-0.7046440243721008,-2.3432416915893555,2.9796791076660156
1781604294118044000,40.0950439453125,3.4184556007385254,2.303518295288086,3.649486541748047
1781604294166559700,40.14355981445313,-0.2512165307998657,4.735488414764404,2.5141825675964355
1781604294215075300,40.19207543945313,2.235830068588257,-0.18114185333251953,1.5658646821975708
1781604294263591000,40.2405908203125,2.622948169708252,-0.39171409606933594,-0.46200889348983765
1781604294312106500,40.2891064453125,6.342331409454346,3.6632957458496094,-3.996720790863037
1781604294360622000,40.3376220703125,1.879085659980774,1.925002098083496,-6.345338821411133
1781604294409137700,40.3861376953125,0.34164369106292725,-4.445329666137695,-4.501350402832031
1781604294457653200,40.4346533203125,-3.781684637069702,4.617473602294922,1.2256678342819214
1781604294506169000,40.48316918945312,-3.5504703521728516,-1.8961477279663086,8.29908275604248
1781604294554684400,40.53168432617188,-6.461218357086182,-17.140281677246094,0.09322446584701538
1781604294603200300,40.5802001953125,-2.6590206623077393,4.4899139404296875,-9.341171264648438
1781604294651715800,40.6287158203125,1.9994678497314453,7.087179660797119,-1.3238948583602905
1781604294700231400,40.6772314453125,-0.23056182265281677,3.1841955184936523,3.1289267539978027
1781604294748747000,40.7257470703125,0.7325635552406311,3.336245536804199,1.0725278854370117
1781604294797262600,40.7742626953125,1.3396742343902588,0.5587120056152344,-0.6425557136535645
1781604294845778200,40.82277807617187,0.3396766185760498,-5.5276031494140625,-0.7134512662887573
1781604294894293800,40.87129370117187,3.4892733097076416,-2.003314971923828,1.1971735954284668
1781604294942809300,40.91980932617187,-4.59309720993042,-7.885768890380859,3.449130058288574
1781604294991325000,40.96832495117187,-1.5816609859466553,1.575911521911621,-0.5807552337646484
1781604295039840800,41.0168408203125,-1.1984399557113647,-1.8517303466796875,2.247755765914917
1781604295088356000,41.06535620117187,3.4707093238830566,1.4325857162475586,3.537048816680908
1781604295136871700,41.11387158203125,0.28790855407714844,6.047321796417236,2.563579797744751
1781604295185387500,41.162387451171874,1.8060357570648193,0.5441560745239258,0.982810914516449
1781604295233903000,41.210903076171874,2.205841064453125,-1.7598323822021484,-1.0583666563034058
1781604295282418700,41.259418701171874,5.181154251098633,2.530787467956543,-2.2943227291107178
1781604295330934300,41.307934326171875,2.960418701171875,3.5957589149475098,-6.23226261138916
1781604295379449900,41.356449951171875,-0.147902250289917,-5.040789604187012,-6.186739444732666
1781604295427965400,41.40496533203125,-3.2006771564483643,1.6132869720458984,0.7170314788818359
1781604295476481000,41.45348095703125,-2.232789993286133,1.3831195831298828,9.29640007019043
1781604295524996600,41.50199658203125,-6.8960723876953125,-15.721851348876953,2.4172451496124268
1781604295573512400,41.550512451171876,-3.50793719291687,2.270678997039795,-10.133420944213867
1781604295622027800,41.59902783203125,1.7622953653335571,7.97054386138916,-1.8486140966415405
1781604295670543400,41.64754345703125,0.1444636583328247,3.4738221168518066,2.994112014770508
1781604295719059200,41.69605908203125,1.2516802549362183,3.328007221221924,0.7246097922325134
1781604295767574800,41.74457470703125,1.1617339849472046,1.4609193801879883,-1.9436829090118408
1781604295816090400,41.79309033203125,-0.7358289957046509,-6.425960540771484,-2.2452826499938965
1781604295864606000,41.84160595703125,3.4682178497314453,-3.590639114379883,3.481600522994995
1781604295913121500,41.89012158203125,-3.7835631370544434,-5.775110244750977,3.865603446960449
1781604295961637000,41.93863720703125,-2.058987617492676,-0.009278297424316406,-1.12125825881958
1781604296010152700,41.98715258789063,-0.9099750518798828,-1.8668975830078125,1.3196313381195068
1781604296058668300,42.03566821289063,3.1260175704956055,1.8820648193359375,3.5977513790130615
1781604296107183900,42.08418383789063,0.7082430124282837,5.861671447753906,2.5639634132385254
1781604296155699500,42.13269946289063,1.750185251235962,0.3900003433227539,1.6716784238815308
1781604296204215000,42.18121508789063,2.065718412399292,-1.7724180221557617,-0.4377916157245636
1781604296252731000,42.22973095703125,5.84294319152832,2.045687675476074,-1.2688043117523193
1781604296301246200,42.27824609375,3.324577569961548,4.516544818878174,-6.401645183563232
1781604296349761800,42.32676171875,0.8607795238494873,-6.119734764099121,-7.19289493560791
1781604296398277600,42.37527758789062,-3.005189895629883,5.472036361694336,0.6272935271263123
1781604296446793200,42.42379321289062,-3.8283796310424805,1.078730583190918,7.8967108726501465
1781604296495308800,42.47230883789062,-6.429224014282227,-20.721696853637695,3.2870051860809326
1781604296543824400,42.52082446289062,-4.058875560760498,3.3963418006896973,-11.171311378479004
1781604296592340000,42.56934008789062,1.832155704498291,8.261000633239746,-0.9622910022735596
1781604296640855600,42.61785546875,0.028599977493286133,3.2968626022338867,4.7110490798950195
1781604296689371100,42.66637109375,0.8384122252464294,3.4269771575927734,0.6772029399871826
1781604296737886700,42.71488671875,1.674604892730713,1.069962501525879,-3.145754337310791
1781604296786402300,42.76340234375,-0.07635843753814697,-7.582380294799805,-2.498563289642334
1781604296834918000,42.81191796875,1.9783546924591064,-7.064908027648926,7.351469993591309
1781604296883433500,42.86043359375,-1.9309979677200317,-0.24074554443359375,3.2994914054870605
1781604296931949000,42.90894897460937,-2.826326847076416,-2.140409469604492,-4.125505447387695
1781604296980464600,42.957464599609374,0.2348111867904663,-1.723963737487793,4.833237648010254
1781604297028980200,43.005980224609374,3.614710569381714,3.5711216926574707,3.4663238525390625
1781604297077495800,43.054495849609374,-0.4565243721008301,5.288969039916992,1.7233037948608398
1781604297126011400,43.103011474609374,2.4850735664367676,0.03315258026123047,-0.3451882004737854
1781604297174527200,43.15152734375,1.6325609683990479,-0.7614831924438477,-0.9625235795974731
1781604297223042800,43.200042724609375,4.436224937438965,2.2617387771606445,-0.32779017090797424
1781604297271558100,43.24855810546875,3.4687349796295166,3.227336883544922,-5.05826997756958
1781604297320074000,43.297073974609376,1.2263327836990356,-6.184785842895508,-7.123250484466553
1781604297368589600,43.345589599609376,-2.2171692848205566,3.1319961547851562,-0.34259289503097534
1781604297417105200,43.394105224609376,-5.245607376098633,3.4347829818725586,7.362796306610107
1781604297465620700,43.442620849609376,-4.985753059387207,-16.204639434814453,5.456110000610352
1781604297514136300,43.49113623046875,-4.605510234832764,-2.092161178588867,-9.864020347595215
1781604297562652000,43.53965185546875,1.585481882095337,10.169649124145508,-2.5902185440063477
1781604297611167500,43.58816748046875,0.28349214792251587,3.4474949836730957,3.2604918479919434
1781604297659683000,43.63668310546875,0.7336809635162354,2.92919921875,1.6902042627334595
1781604297708198700,43.68519873046875,1.2093825340270996,2.0384860038757324,-0.7975419759750366
1781604297756714200,43.73371435546875,0.004465222358703613,-4.781810760498047,-3.7752413749694824
1781604297805229800,43.78222973632813,2.3147692680358887,-5.681268692016602,2.119198799133301
1781604297853745400,43.83074536132813,-0.9020816087722778,-6.109477996826172,4.74111270904541
1781604297902261000,43.87926098632813,-3.542557716369629,0.9394588470458984,-1.4461474418640137
1781604297950776600,43.92777661132813,-1.3887590169906616,-3.6739978790283203,1.595550775527954
1781604297999292200,43.97629223632813,2.312161922454834,2.7215704917907715,2.7848403453826904
1781604298047807700,44.02480786132813,1.0299527645111084,6.490922927856445,2.628755569458008
1781604298096323300,44.0733232421875,1.4094237089157104,1.1839418411254883,0.9490528106689453
1781604298144839000,44.1218388671875,1.9456907510757446,-1.5458040237426758,-1.4020607471466064
1781604298193354500,44.1703544921875,2.9319567680358887,1.031656265258789,-0.23470067977905273
1781604298241870000,44.2188701171875,5.675502300262451,5.212027549743652,-4.5002875328063965
1781604298290385700,44.2673857421875,0.5085008144378662,-5.133806228637695,-6.79742956161499
1781604298338901500,44.31590161132812,-2.3329737186431885,0.6961631774902344,-1.5574692487716675
1781604298387417000,44.3644169921875,-4.10975456237793,3.9109373092651367,5.957540035247803
1781604298435932400,44.41293237304688,-3.8331260681152344,-10.828386306762695,7.143121719360352
1781604298484448300,44.4614482421875,-7.734499454498291,-10.44946002960205,-7.960526943206787
1781604298532963800,44.5099638671875,1.4315574169158936,12.00766372680664,-5.000580310821533
1781604298581479400,44.5584794921875,0.11147522926330566,3.82562255859375,2.9094858169555664
1781604298629995000,44.6069951171875,0.3683682680130005,3.9792680740356445,1.0954456329345703
1781604298678510300,44.65551025390625,1.2092034816741943,2.415130615234375,-1.1963982582092285
1781604298727026200,44.70402612304687,1.0035724639892578,-3.6903200149536133,-4.245673179626465
1781604298775541800,44.75254174804687,0.22096240520477295,-6.082701683044434,3.2773256301879883
1781604298824057300,44.80105737304687,0.9555863738059998,-6.745946884155273,6.046823024749756
1781604298872573000,44.849572998046874,-3.6061441898345947,2.112110137939453,-2.7383463382720947
1781604298921088500,44.898088623046874,-1.9205296039581299,-3.9432172775268555,-0.241288423538208
1781604298969604000,44.94660400390625,2.302554130554199,0.16125011444091797,4.037487983703613
1781604299018119700,44.99511962890625,2.050535202026367,5.618887901306152,2.823702812194824
1781604299066635300,45.04363525390625,0.599509596824646,2.7531137466430664,1.2450971603393555
1781604299115150800,45.09215087890625,1.9927408695220947,0.30414676666259766,-0.8474221229553223
1781604299163666400,45.14066650390625,1.9724879264831543,0.10542869567871094,0.07341545820236206
1781604299212182000,45.18918212890625,5.137444972991943,3.806820869445801,-3.0935966968536377
1781604299260697600,45.237697509765624,1.023898959159851,-2.5580196380615234,-5.795845031738281
1781604299309213200,45.286213134765624,-0.07845103740692139,-1.4458293914794922,-2.86848521232605
1781604299357728800,45.334728759765625,-4.480051517486572,3.863170623779297,3.5191240310668945
1781604299406244400,45.383244384765625,-4.477479457855225,-4.568094253540039,6.835817337036133
1781604299454760000,45.431760009765625,-6.666417121887207,-14.602663040161133,-2.1679182052612305
1781604299503275500,45.480275634765626,0.1123499870300293,10.204578399658203,-5.744884014129639
1781604299551791000,45.528791015625,0.5462676882743835,3.8856639862060547,0.05144047737121582
1781604299600306700,45.577306640625,-0.06625914573669434,3.8260698318481445,1.5134059190750122
1781604299648822300,45.625822265625,0.8091682195663452,2.8901491165161133,0.27842336893081665
1781604299697337900,45.674337890625,1.2472927570343018,-1.6272525787353516,-2.459862232208252
1781604299745853400,45.722853515625,0.1627570390701294,-5.445550918579102,-0.4075806140899658
1781604299794369000,45.771369140625,2.4241783618927,-5.1165361404418945,2.457272529602051
1781604299842884600,45.819884521484376,-3.921884059906006,-2.2922000885009766,3.892465591430664
1781604299891400200,45.868400146484376,-1.5954179763793945,-0.6686677932739258,-1.6833680868148804
1781604299939915800,45.916915771484376,-0.16901397705078125,-1.5478448867797852,2.6391525268554688
1781604299988431400,45.96543139648438,2.7487213611602783,2.4111084938049316,1.4490547180175781
1781604300036947000,46.01394702148438,-1.1872475147247314,5.187617301940918,1.1806226968765259
1781604300085462500,46.06246264648438,2.0127222537994385,1.2693710327148438,-1.694793939590454
1781604300133978000,46.11097802734375,1.2765387296676636,0.7369422912597656,-0.47249457240104675
1781604300182493700,46.15949365234375,4.253392219543457,0.04383087158203125,-0.1937381625175476
1781604300231009300,46.20800927734375,2.759629249572754,2.67808198928833,-2.7892417907714844
1781604300279525600,46.25652563476562,0.37589478492736816,-4.288599014282227,-3.7704877853393555
1781604300328040400,46.30504052734375,-3.1585447788238525,2.1093907356262207,0.1565733551979065
1781604300376556000,46.35355615234375,-4.478428840637207,1.2368221282958984,5.890895843505859
1781604300425071600,46.40207153320313,-4.343064785003662,-11.94206428527832,0.9418764114379883
1781604300473587200,46.45058715820313,-3.5480728149414062,0.4758729934692383,-6.469470500946045
1781604300522102800,46.49910278320313,0.6612461805343628,5.185490608215332,0.5747323036193848
1781604300570618400,46.54761840820313,-0.34871697425842285,3.4576120376586914,1.6100401878356934
1781604300619134000,46.59613403320313,0.9551870226860046,1.3061256408691406,0.09549307823181152
1781604300667649500,46.6446494140625,1.8349252939224243,-1.7497673034667969,-0.293609619140625
1781604300716165000,46.6931650390625,1.281214952468872,-2.6742477416992188,-0.4153139591217041
1781604300764680700,46.7416806640625,2.269109010696411,-5.618925094604492,2.8803703784942627
1781604300813196300,46.7901962890625,-1.4019914865493774,-5.72960090637207,0.575770378112793
1781604300861724200,46.83872412109375,-3.3839516639709473,-5.525189399719238,2.598175525665283
1781604300910227500,46.8872275390625,-0.8353723287582397,-4.2688984870910645,5.837024688720703
1781604300958743000,46.93574291992188,-2.2871599197387695,-5.390319347381592,4.786096572875977
1781604301007259000,46.9842587890625,-1.9874155521392822,-2.4651403427124023,8.019702911376953
1781604301055774200,47.03277416992187,-4.911041259765625,1.5137896537780762,9.527860641479492
1781604301104290000,47.0812900390625,-3.5024466514587402,5.710500240325928,10.788004875183105
1781604301152805400,47.12980541992187,2.3290505409240723,4.255037307739258,6.517333984375
1781604301201321000,47.17832104492187,9.494671821594238,-1.8859443664550781,-0.44527292251586914
1781604301249836800,47.2268369140625,12.902387619018555,-3.5896520614624023,-6.369606018066406
1781604301298352000,47.27535205078125,9.397770881652832,-5.3227128982543945,-7.080032825469971
1781604301346868000,47.323867919921874,4.454505920410156,-5.845394134521484,-5.265413284301758
1781604301395383600,47.372383544921874,-1.288945198059082,-2.3094568252563477,-4.393405914306641
1781604301443899100,47.420899169921874,-3.433274269104004,-1.8174829483032227,-3.1557888984680176
1781604301492414700,47.469414794921875,-4.407296180725098,-0.16325664520263672,-3.237485885620117
1781604301540930300,47.517930419921875,-4.8890180587768555,1.0574932098388672,-1.5647735595703125
1781604301589446000,47.56644580078125,-6.671126365661621,2.406667709350586,-1.8392577171325684
1781604301637961500,47.61496142578125,1.131420373916626,1.3918724060058594,0.6560697555541992
1781604301686477000,47.66347705078125,-0.3597180247306824,0.43998241424560547,0.6053999662399292
1781604301734992600,47.71199267578125,1.8260736465454102,-0.9090166091918945,1.0998769998550415
1781604301783508200,47.76050830078125,3.9525222778320312,-4.904614448547363,0.9691767692565918
1781604301832023800,47.80902392578125,4.6436004638671875,-6.058680534362793,-2.8703181743621826
1781604301880539400,47.857539306640625,2.178380012512207,-4.887312889099121,-3.7678256034851074
1781604301929055000,47.906054931640625,-0.026836156845092773,-0.8210248947143555,-1.7377080917358398
1781604301977570600,47.954570556640626,-5.773413181304932,2.1065335273742676,2.076475143432617
1781604302026086100,48.003086181640626,-5.415489673614502,3.9111413955688477,5.353494644165039
1781604302074601700,48.051601806640626,-2.587049961090088,4.007094383239746,2.6320762634277344
1781604302123117300,48.100117431640626,1.1838176250457764,5.278810977935791,3.3865649700164795
1781604302171633000,48.1486328125,-0.9654581546783447,6.922332763671875,2.9205126762390137
1781604302220148500,48.1971484375,0.6044358015060425,4.745666980743408,2.598043203353882
1781604302268664000,48.2456640625,0.567093014717102,-6.9627227783203125,-0.9223761558532715
1781604302317179600,48.2941796875,3.3162734508514404,-14.115248680114746,-0.7320370674133301
1781604302365695200,48.3426953125,-0.9816705584526062,-6.300585746765137,-4.001879692077637
1781604302414210800,48.3912109375,-3.383018732070923,0.10298824310302734,-1.118213176727295
1781604302462726400,48.43972631835938,0.2966610789299011,5.020620822906494,-1.0188989639282227
1781604302511242200,48.4882421875,0.1234084740281105,7.764222145080566,-6.021169185638428
1781604302559757800,48.5367578125,-0.9761816263198853,4.954521656036377,-0.00035381317138671875
1781604302608273200,48.58527319335938,1.1322896480560303,-0.04764556884765625,2.0141093730926514
1781604302656789000,48.6337890625,1.6533297300338745,-2.442439079284668,0.9712319374084473
1781604302705304600,48.6823046875,4.324937343597412,-7.431008338928223,3.6148834228515625
1781604302753820200,48.73082006835938,1.3240140676498413,-3.447721481323242,2.7669174671173096
1781604302802335700,48.77933569335938,0.0385250449180603,2.3726067543029785,0.5515780448913574
1781604302850851300,48.82785131835937,-0.17315104603767395,0.2598075866699219,-2.59480619430542
1781604302899367000,48.87636694335937,-7.270444869995117,9.772279739379883,-2.0471224784851074
1781604302947882500,48.92488256835937,-1.9506129026412964,5.365105628967285,-1.4643831253051758
1781604302996398000,48.97339819335937,2.121659994125366,-7.741458892822266,-3.602573871612549
1781604303044913700,49.02191357421875,-1.6102511882781982,-7.6728515625,5.7035908699035645
1781604303093429200,49.07042919921875,-0.04156622290611267,-1.9276533126831055,-0.4900364875793457
1781604303141944800,49.11894482421875,3.353452205657959,-3.080972671508789,0.4539773464202881
1781604303190460700,49.167460693359374,-2.4253973960876465,3.9253368377685547,-3.654658317565918
1781604303238976300,49.215976318359374,-0.30707502365112305,2.3844637870788574,-3.6723456382751465
1781604303287491800,49.264491943359374,3.9092724323272705,-1.2798495292663574,-1.196037769317627
1781604303336007400,49.31300732421875,-0.9295381307601929,-3.556981086730957,12.706613540649414
1781604303384523000,49.36152294921875,-3.7894539833068848,-1.6614079475402832,-1.2739791870117188
1781604303433038600,49.41003857421875,-2.6918084621429443,-1.42116117477417,-3.3586654663085938
1781604303481554200,49.45855419921875,1.2591488361358643,-1.2374510765075684,-2.034153938293457
1781604303530069800,49.50706982421875,-1.3819713592529297,1.2512874603271484,7.8649067878723145
1781604303578585300,49.55558544921875,0.6750408411026001,6.4416117668151855,2.753086566925049
1781604303627101200,49.60410107421875,2.1813735961914062,7.0155839920043945,-0.7208948135375977
1781604303675616800,49.65261669921875,1.0529454946517944,1.4926996231079102,-1.6466484069824219
1781604303724132400,49.70113232421875,2.143528699874878,-2.017375946044922,-3.659114360809326
1781604303772648000,49.74964794921875,1.7520933151245117,-4.103364944458008,0.49744272232055664
1781604303821163500,49.79816357421875,0.08732485771179199,-6.537415504455566,-1.8299450874328613
1781604303869679000,49.84667919921875,-4.619399070739746,0.6496009826660156,-1.9652926921844482
1781604303918195000,49.89519482421875,-3.9753828048706055,7.609265327453613,-8.570996284484863
1781604303966710500,49.94371044921875,-1.657439947128296,3.516235828399658,-5.800830841064453
1781604304015226000,49.99222607421875,-1.0340042114257812,0.5810508728027344,2.042423963546753
1781604304063741700,50.04074169921875,1.7659990787506104,-7.312661170959473,4.593791484832764
1781604304112257500,50.08925756835937,-1.1315776109695435,3.0970258712768555,-1.9124045372009277
1781604304160773000,50.13777319335937,-0.5688391923904419,3.237222671508789,0.48767364025115967
1781604304209288700,50.18628881835937,2.4970338344573975,5.343669414520264,2.222825765609741
1781604304257804300,50.23480419921875,0.21850240230560303,-6.431658744812012,2.687098503112793
1781604304306320100,50.28332006835937,3.24930477142334,-11.245806694030762,-0.6434948444366455
1781604304354835700,50.33183569335937,-1.114593267440796,-2.702302932739258,-5.8322014808654785
1781604304403351300,50.380351318359374,-2.261139154434204,5.1861748695373535,-0.228907972574234
1781604304451867100,50.4288671875,-0.16695767641067505,-3.015483856201172,-3.8772470951080322
1781604304500382700,50.4773828125,1.1126610040664673,0.6937227249145508,-2.311568021774292
1781604304548898600,50.525898681640626,0.5785658359527588,7.2403106689453125,-1.0101804733276367
1781604304597414100,50.5744140625,1.34697425365448,1.668982982635498,0.09915435314178467
1781604304645929700,50.6229296875,1.0856308937072754,-3.0149736404418945,-0.7993673086166382
1781604304694445600,50.67144555664063,3.3422868251800537,0.2839164733886719,1.7109959125518799
1781604304742961200,50.71996118164063,6.5376505851745605,3.7335848808288574,7.483718395233154
1781604304791477000,50.76847705078125,-0.609904408454895,-3.1246166229248047,5.519487380981445
1781604304839992600,50.81699267578125,-3.7395689487457275,-1.9063243865966797,-3.8380637168884277
1781604304888508200,50.86550805664063,-1.0502232313156128,2.7641191482543945,-6.863202095031738
1781604304937024000,50.91402392578125,-6.42665958404541,-13.739981651306152,-2.4609580039978027
1781604304985539600,50.96253955078125,-3.635737657546997,-3.5974340438842773,6.417906761169434
1781604305034055400,51.011055419921874,1.3326934576034546,8.21962833404541,2.079591989517212
1781604305082571000,51.059571044921874,0.8230767250061035,4.703218936920166,-2.6587681770324707
1781604305131086800,51.1080869140625,-0.02725270390510559,3.772716999053955,0.44184795022010803
1781604305179602400,51.1566025390625,0.37596654891967773,1.1114997863769531,2.5303502082824707
1781604305228118300,51.2051181640625,-0.7536832690238953,-3.2333736419677734,1.8985918760299683
1781604305276634000,51.25363403320313,0.7406914234161377,-5.2817888259887695,-5.569067001342773
1781604305325149700,51.30214965820313,-1.4044013023376465,-3.388498306274414,-2.174747943878174
1781604305373665500,51.35066552734375,-1.5173628330230713,-0.9045200347900391,0.9974867105484009
1781604305422181000,51.39918115234375,0.9723692536354065,-2.3981266021728516,-5.691291809082031
1781604305470697000,51.44769702148437,1.3999321460723877,3.8087730407714844,-0.9754475951194763
1781604305519212500,51.49621264648437,0.5377298593521118,4.242547035217285,-0.8352676630020142
1781604305567728400,51.544728271484374,2.0615572929382324,0.12396526336669922,0.4162323474884033
1781604305616244200,51.593244140625,1.647117018699646,-0.7735567092895508,1.3817468881607056
1781604305664759800,51.641759765625,2.0876615047454834,0.24554920196533203,0.6780059337615967
1781604305713275600,51.69027563476563,5.949960231781006,2.32144832611084,3.272361993789673
1781604305761791500,51.73879150390625,2.5401175022125244,-1.0690832138061523,5.946744918823242
1781604305810307000,51.78730712890625,-1.7668027877807617,-3.188279151916504,0.17057877779006958
1781604305858823000,51.83582299804687,-2.965416193008423,4.539841651916504,-3.833413600921631
1781604305907338800,51.8843388671875,-2.9853012561798096,-6.419302940368652,-6.144049644470215
1781604305955854300,51.93285424804687,-6.717599391937256,-13.63690185546875,1.35903000831604
1781604306004370200,51.9813701171875,0.7191132307052612,8.435456275939941,6.9910688400268555
1781604306052886000,52.029885986328125,1.1042516231536865,3.7867774963378906,-0.14198285341262817
1781604306101401900,52.07840185546875,0.7296220064163208,4.253509044647217,-1.120962142944336
1781604306149917400,52.12691748046875,1.0126209259033203,3.945667266845703,1.2836565971374512
1781604306198433300,52.17543334960938,-0.6210943460464478,-1.5235862731933594,2.3807520866394043
1781604306246949000,52.22394921875,3.982442617416382,-3.413987159729004,-4.538557529449463
1781604306295465000,52.27246484375,-3.9774179458618164,-7.991106033325195,-3.384274959564209
1781604306343980800,52.32098071289062,-0.8556129932403564,0.06448173522949219,0.29223036766052246
1781604306392496600,52.36949658203125,-0.011821091175079346,-3.9415388107299805,-2.1696856021881104
1781604306441012200,52.41801220703125,1.0420160293579102,0.3169727325439453,-3.7370030879974365
1781604306489528000,52.466528076171876,1.4714220762252808,6.889283657073975,-3.284219264984131
1781604306538044000,52.5150439453125,1.611689567565918,4.733694553375244,-1.0395289659500122
1781604306586559700,52.56355981445312,1.0889698266983032,-2.487264633178711,0.4149250090122223
1781604306635075600,52.61207568359375,2.253404378890991,-1.4204607009887695,0.7712428569793701
1781604306683591400,52.66059130859375,8.62221908569336,4.958902835845947,4.577670574188232
1781604306732107300,52.709107177734374,2.024935722351074,-4.645319938659668,8.298702239990234
1781604306780623000,52.757623046875,-2.296459197998047,-1.8152732849121094,1.7610862255096436
1781604306829139000,52.80613891601563,-2.8851311206817627,5.838337421417236,-4.56289529800415
1781604306877654800,52.85465478515625,-3.864165782928467,-11.058836936950684,-9.439712524414062
1781604306926170600,52.90317065429687,-8.249011993408203,-13.40867805480957,4.673929214477539
1781604306974686500,52.9516865234375,1.7813764810562134,10.181693077087402,6.933135509490967
1781604307023202300,53.000202392578124,1.6176073551177979,4.020814418792725,-2.4048314094543457
1781604307071718100,53.04871826171875,0.3025078773498535,5.4681267738342285,-0.9697144031524658
1781604307120234000,53.09723388671875,1.3675358295440674,3.625230312347412,1.4130979776382446
1781604307168749800,53.14574975585938,0.06113511323928833,-3.0997753143310547,2.033007860183716
1781604307217265700,53.194265625,3.0750768184661865,-2.282102584838867,-4.905637264251709
1781604307265781500,53.24278149414062,-2.4056077003479004,-3.560131072998047,-1.0324958562850952
1781604307314297600,53.291297607421875,-2.163637161254883,-5.701009750366211,-1.0198920965194702
1781604307362813400,53.3398134765625,-0.15959644317626953,-0.5676403045654297,-0.27840274572372437
1781604307411329300,53.38832934570313,0.31533485651016235,-0.031108856201171875,-4.306763172149658
1781604307459845000,53.43684521484375,1.269052505493164,4.479437828063965,-4.289804935455322
1781604307508361000,53.48536083984375,1.1018881797790527,5.2625298500061035,-2.8872733116149902
1781604307556876800,53.53387670898437,2.5073390007019043,-2.1402502059936523,-0.4471776485443115
1781604307605393000,53.582392822265625,1.7411470413208008,-0.7438869476318359,1.4259730577468872
1781604307653908700,53.63090869140625,7.836546897888184,5.12344217300415,6.047605991363525
1781604307702424600,53.67942456054688,3.104313373565674,-4.364232063293457,8.881877899169922
1781604307750940700,53.72794067382812,-3.150949001312256,-2.091564178466797,1.4371542930603027
1781604307799456500,53.77645654296875,-3.24965238571167,5.242155075073242,-6.455621719360352
1781604307847972400,53.824972412109375,-2.1904361248016357,-10.41309642791748,-7.623259544372559
1781604307896488200,53.87348828125,-8.317438125610352,-14.11843204498291,5.6157073974609375
1781604307945004300,53.92200439453125,1.1769791841506958,10.666485786437988,7.2097063064575195
1781604307993520000,53.97052001953125,1.5039860010147095,4.659165382385254,-1.9077099561691284
1781604308042036000,54.01903588867187,1.0118132829666138,5.113180160522461,-0.6727042198181152
1781604308090551800,54.0675517578125,0.6074957847595215,3.601496696472168,1.190244436264038
1781604308139068000,54.11606787109375,-0.6873483061790466,-3.628143310546875,1.471584677696228
1781604308187583700,54.16458374023438,3.458554983139038,-1.0787229537963867,-4.306204795837402
1781604308236099800,54.21309985351562,-3.8489551544189453,-7.931902885437012,-2.978912830352783
1781604308284615700,54.26161572265625,-1.448009729385376,-0.7069473266601562,0.5691322088241577
1781604308333131800,54.3101318359375,-0.3543130159378052,-4.85272216796875,-1.501659631729126
1781604308381647600,54.35864770507813,0.05534851551055908,1.375448226928711,-4.464951992034912
1781604308430163500,54.40716357421875,1.153153896331787,6.069849967956543,-4.9396538734436035
1781604308478679600,54.45567944335937,1.9280472993850708,3.558910369873047,-2.204127788543701
1781604308527195400,54.5041953125,2.6600184440612793,-2.37215518951416,0.3146507143974304
1781604308575711500,54.55271142578125,2.4664018154144287,0.2593679428100586,2.39717435836792
1781604308624227300,54.60122729492188,6.887378692626953,5.194366931915283,5.0690107345581055
1781604308672743400,54.64974340820312,3.495940685272217,-4.142790794372559,9.517145156860352
1781604308721259300,54.69825927734375,-2.927150249481201,-2.396942138671875,2.881909132003784
1781604308769775400,54.746775390625,-2.77764630317688,5.234349250793457,-6.4038190841674805
1781604308818291200,54.79529125976563,-2.8692526817321777,-8.98678970336914,-9.169831275939941
1781604308866807300,54.84380737304687,-8.019472122192383,-15.080089569091797,6.914480209350586
1781604308915323100,54.8923232421875,1.3182168006896973,10.05887508392334,6.88375186920166
1781604308963839200,54.940839111328124,1.738081455230713,3.007230758666992,-2.3429815769195557
1781604309012355000,54.98935498046875,0.38013020157814026,5.608124732971191,-1.74131441116333
1781604309060871200,55.03787109375,0.7836430668830872,4.89866304397583,0.6733690500259399
1781604309109387000,55.08638696289062,-0.34217938780784607,-2.589223861694336,1.8875670433044434
1781604309157903000,55.134903076171874,2.4130654335021973,-2.827871322631836,-4.144478797912598
1781604309206419200,55.183419189453126,-1.8836216926574707,-2.4960317611694336,1.5333644151687622
1781604309254935000,55.23193505859375,-1.7705535888671875,-5.688297271728516,-2.974047899246216
1781604309303451100,55.280451171875,-0.9233379364013672,0.1844949722290039,-1.0777084827423096
1781604309351967200,55.32896728515625,-0.47658443450927734,-4.205578804016113,-4.112249374389648
1781604309400483000,55.377483154296876,1.0837059020996094,3.7203454971313477,-3.53429913520813
1781604309448999200,55.42599926757813,0.8983794450759888,5.54768180847168,-3.3069911003112793
1781604309497515300,55.47451538085937,2.609867572784424,-0.19172096252441406,-0.949828028678894
1781604309546031000,55.52303100585937,1.5746774673461914,-1.6083669662475586,1.8103405237197876
1781604309594547200,55.571547119140625,5.468940734863281,3.6793031692504883,4.4547529220581055
1781604309643063000,55.62006298828125,5.74689245223999,1.7086267471313477,7.23044490814209
1781604309691579100,55.6685791015625,0.1111680269241333,-7.387777328491211,6.244312286376953
1781604309740095200,55.71709521484375,-4.2295098304748535,3.38748836517334,-1.2540630102157593
1781604309788611000,55.765611083984375,-1.4946273565292358,3.3160228729248047,-9.178302764892578
1781604309837127200,55.81412719726563,-7.133328437805176,-20.8101806640625,-2.158428430557251
1781604309885643300,55.86264331054687,-3.6798648834228516,2.09133243560791,9.5485200881958
1781604309934159400,55.911159423828124,1.4629788398742676,7.45665168762207,1.3557956218719482
1781604309982675500,55.959675537109376,1.2746061086654663,3.833621025085449,-3.8597497940063477
1781604310031191300,56.00819140625,0.15639334917068481,4.837549686431885,1.4495505094528198
1781604310079707400,56.05670727539062,0.638181746006012,1.7443819046020508,4.17755126953125
1781604310128223500,56.105223388671874,-0.5398118495941162,-6.765873908996582,-0.6357486248016357
1781604310176739600,56.153739501953126,0.21088510751724243,-2.713886260986328,-4.77996826171875
1781604310225255700,56.20225561523438,-0.2507021427154541,-3.513446807861328,-2.7300033569335938
1781604310273771500,56.250771484375,-2.2803397178649902,-1.162093162536621,3.696065902709961
1781604310322287600,56.29928759765625,0.6007250547409058,-3.425045967102051,-2.959554433822632
1781604310370803700,56.3478037109375,0.9622224569320679,3.791645050048828,-3.900728940963745
1781604310419319800,56.39631982421875,0.5141845941543579,6.675844669342041,-4.6232404708862305
1781604310467835600,56.44483569335937,2.6203627586364746,1.1430587768554688,-0.7446178197860718
1781604310516351700,56.493351806640625,1.3297581672668457,-3.957988739013672,1.416917085647583
1781604310564867800,56.54186791992188,3.9983937740325928,2.2205424308776855,2.185427188873291
1781604310613384000,56.59038403320312,7.344861030578613,4.811736583709717,6.764906406402588
1781604310661900000,56.638900146484374,0.7082011699676514,-6.645050048828125,7.776949882507324
1781604310710416100,56.687416015625,-3.770355701446533,2.978452682495117,-0.5035790801048279
1781604310758932200,56.73593212890625,-2.497251033782959,3.69525146484375,-7.342602729797363
1781604310807448000,56.78444799804687,-4.931354522705078,-20.07046890258789,-8.127513885498047
1781604310855964200,56.832964111328124,-5.243054389953613,-4.926756858825684,8.725417137145996
1781604310904480300,56.881480224609376,1.2618045806884766,9.672917366027832,5.2625017166137695
1781604310952996400,56.92999633789063,1.7688010931015015,5.110540390014648,-3.3493852615356445
1781604311001512400,56.97851245117187,0.46034154295921326,6.6997175216674805,-0.053622692823410034
1781604311050028500,57.027028564453126,0.7591145038604736,3.455259323120117,2.9185094833374023
1781604311098544600,57.07554467773438,-0.5536283254623413,-8.330016136169434,-0.027623653411865234
1781604311147060700,57.12406079101562,2.65325927734375,-0.33069896697998047,-3.288393974304199
1781604311195576600,57.17257666015625,-3.0369207859039307,-9.187339782714844,-3.8054471015930176
1781604311244093000,57.22109301757813,-1.2371580600738525,2.736227035522461,1.2923035621643066
1781604311292608800,57.26960888671875,-0.1319252848625183,-2.778371810913086,-1.8811123371124268
1781604311341125000,57.318125,0.5327539443969727,0.32126903533935547,-5.111876487731934
1781604311389641000,57.366640869140625,0.6053550243377686,6.486230850219727,-4.60984992980957
1781604311438157000,57.41515698242188,2.4839868545532227,1.5291337966918945,-0.6624390482902527
1781604311486673200,57.46367309570312,1.905322790145874,-3.1542510986328125,1.112051248550415
1781604311535189200,57.512189208984374,3.1950950622558594,1.9862518310546875,1.3570047616958618
1781604311583705300,57.560705322265626,7.319312572479248,5.0567169189453125,4.809659957885742
1781604311632221400,57.60922143554688,2.374342441558838,-6.4085493087768555,8.506094932556152
1781604311680737500,57.65773754882812,-3.231243133544922,-1.6244077682495117,2.7114243507385254
1781604311729253600,57.706253662109376,-2.657799005508423,6.56527042388916,-6.508668422698975
1781604311777769700,57.75476977539063,-2.6151123046875,-9.088180541992188,-7.991046905517578
1781604311826285800,57.80328588867187,-8.96186351776123,-13.872150421142578,5.947725296020508
1781604311874802000,57.851802001953125,1.0116209983825684,10.209589958190918,6.438287734985352
1781604311923318000,57.90031811523438,1.7301838397979736,3.760146141052246,-1.740903377532959
1781604311971834000,57.94883422851562,0.3350180983543396,4.552123546600342,-1.1068613529205322
1781604312020350200,57.99735009765625,1.0070840120315552,3.813351631164551,1.3244295120239258
1781604312068866300,58.0458662109375,0.04150789976119995,-1.0145683288574219,2.8898658752441406
1781604312117382700,58.09438256835937,1.1209360361099243,-5.0632734298706055,-3.5521080493927
1781604312165898500,58.1428984375,-0.26927557587623596,-4.783962249755859,-0.9335533380508423
1781604312214414800,58.191414794921876,-2.5698797702789307,-1.8506383895874023,-1.3043382167816162
1781604312262931000,58.23993090820313,-0.3535398244857788,-2.0085830688476562,0.06578528881072998
1781604312311446800,58.28844677734375,0.6470952033996582,-0.525721549987793,-3.724135398864746
1781604312359963100,58.336963134765625,1.2341554164886475,4.669076442718506,-4.212615966796875
1781604312408479200,58.38547924804688,0.5902096033096313,5.693609714508057,-3.966628074645996
1781604312456995300,58.43399536132812,2.7329983711242676,-1.9469490051269531,1.0027790069580078
1781604312505511400,58.482511474609375,0.9630551338195801,-3.0953922271728516,2.729863405227661
1781604312554027500,58.53102758789063,6.632223129272461,4.966632843017578,3.0827534198760986
1781604312602543600,58.57954370117187,5.4874420166015625,1.894092082977295,7.296595573425293
1781604312651059700,58.628059814453124,-2.6016130447387695,-5.023922920227051,5.245826244354248
1781604312699575800,58.676575927734376,-4.18852424621582,2.8954925537109375,-3.0297634601593018
1781604312748092000,58.725091796875,-1.2166763544082642,-6.676212310791016,-11.540435791015625
1781604312796608300,58.77360815429687,-9.108991622924805,-14.992502212524414,3.4351210594177246
1781604312845124000,58.8221240234375,0.06465369462966919,9.401647567749023,9.290027618408203
1781604312893640400,58.87064038085938,1.3868284225463867,5.19447660446167,-1.2556294202804565
1781604312942156500,58.91915649414062,0.9238760471343994,4.876284122467041,-2.8123486042022705
1781604312990672600,58.967672607421875,0.028287529945373535,3.543246269226074,1.3992059230804443
1781604313039188700,59.01618872070313,-0.6350175142288208,-2.5923805236816406,4.387657165527344
1781604313087704800,59.06470483398437,1.5851917266845703,-4.565190315246582,-4.754337310791016
1781604313136221000,59.113220947265624,-2.0317206382751465,-8.102884292602539,-5.735658645629883
1781604313184737000,59.161737060546876,-1.7504137754440308,2.001114845275879,1.056525707244873
1781604313233253400,59.21025341796875,0.10311219096183777,-3.7480592727661133,0.34310340881347656
1781604313281769500,59.25876953125,0.5407734513282776,-0.17139911651611328,-4.632993698120117
1781604313330285600,59.30728564453125,0.7218098044395447,5.990818977355957,-4.879963397979736
1781604313378801700,59.3558017578125,2.1475672721862793,4.368502616882324,-1.0566166639328003
1781604313427317800,59.40431787109375,1.8123682737350464,-2.085787773132324,2.012580156326294
1781604313475834000,59.45283422851563,0.9069396257400513,-1.0477962493896484,0.7966659069061279
1781604313524350200,59.50135009765625,7.027909755706787,6.073999404907227,1.8481414318084717
1781604313572866300,59.5498662109375,5.408565521240234,-1.3291702270507812,8.694465637207031
1781604313621382400,59.59838232421875,-0.8793433904647827,-6.624351501464844,5.3377275466918945
1781604313669898500,59.6468984375,-3.2629761695861816,5.426771640777588,-2.631423234939575
1781604313718414600,59.69541455078125,-2.791104555130005,-1.1007652282714844,-10.489548683166504
1781604313766930700,59.7439306640625,-8.483242988586426,-23.02788734436035,1.0427032709121704
1781604313815446800,59.79244677734375,-0.9187034964561462,8.423770904541016,9.551862716674805
1781604313863963100,59.84096313476562,1.9542536735534668,4.883753776550293,0.5364494323730469
1781604313912479200,59.889479248046875,1.0801823139190674,5.3365559577941895,-4.110539436340332
1781604313960995300,59.93799536132813,0.7370930910110474,5.7243876457214355,-0.6079181432723999
1781604314009511700,59.98651171875,1.263270378112793,0.21338558197021484,1.3463058471679688
1781604314058027800,60.03502783203125,-1.8162906169891357,-5.714052200317383,-1.0197691917419434
1781604314106543900,60.0835439453125,1.19033682346344,-6.291128158569336,-5.616241455078125
1781604314155060000,60.13206005859375,-1.496164321899414,-0.3555164337158203,1.1623574495315552
1781604314203576000,60.180576171875,-1.7445098161697388,-1.3475303649902344,2.948587656021118
1781604314252092400,60.22909252929688,0.5658823251724243,-3.623589515686035,-4.257580757141113
1781604314300608500,60.2776083984375,0.9333125948905945,4.509610652923584,-4.090315341949463
1781604314349124600,60.32612451171875,0.3072068691253662,6.3033246994018555,-3.300490379333496
1781604314397640700,60.374640625,2.8932783603668213,-1.2173404693603516,0.07665634155273438
1781604314446156800,60.42315673828125,1.08174729347229,-1.9791784286499023,-0.3948781192302704
1781604314494673200,60.471673095703125,6.561507701873779,5.049586296081543,1.2223104238510132
1781604314543189200,60.52018920898438,6.1514081954956055,2.060788631439209,9.492291450500488
1781604314591705300,60.56870532226562,-0.24184298515319824,-7.222726821899414,7.63084602355957
1781604314640221700,60.6172216796875,-5.28570032119751,5.193879127502441,-1.5054802894592285
1781604314688737800,60.66573779296875,-2.5327000617980957,0.15936279296875,-10.042762756347656
1781604314737254000,60.71425390625,-7.333670616149902,-22.716081619262695,-1.5443954467773438
1781604314785770000,60.76277001953125,-3.0183818340301514,4.923460006713867,11.349549293518066
1781604314834286300,60.81128637695313,1.9052048921585083,6.403570652008057,0.7707931995391846
1781604314882803500,60.859803466796876,1.8055998086929321,4.719712257385254,-5.064279079437256
1781604314931318500,60.908318603515625,0.16802167892456055,6.394283294677734,0.5679997801780701
1781604314979834600,60.95683471679688,0.46865642070770264,1.8996315002441406,4.00853157043457
