time,seconds_elapsed,z,y,x
1781604254200237800,0.17723779296875,9.439684867858887,2.7116663455963135,-1.2445669174194336
1781604254248754200,0.225754150390625,9.144471168518066,2.6602206230163574,-0.9900303483009338
1781604254297270500,0.2742705078125,9.028717994689941,2.830111026763916,-0.7941179871559143
1781604254345787000,0.322786865234375,9.809077262878418,2.5597219467163086,-0.6804589629173279
1781604254394303200,0.37130322265625,9.653244972229004,2.5226333141326904,-0.6083751320838928
1781604254442819600,0.419819580078125,9.372088432312012,2.6739792823791504,-0.747757077217102
1781604254491336000,0.4683359375,9.73370361328125,2.65423846244812,-0.7884350419044495
1781604254539852300,0.516852294921875,9.500103950500488,2.7675983905792236,-0.7136593461036682
1781604254588369000,0.565368896484375,9.04516887664795,2.2244277000427246,-0.6415755748748779
1781604254636885200,0.61388525390625,9.635896682739258,2.1481566429138184,-0.5057829022407532
1781604254685401600,0.662401611328125,9.744770050048828,2.7493531703948975,-0.7459624409675598
1781604254733918000,0.71091796875,9.47647476196289,2.510669231414795,-0.40259242057800293
1781604254782434300,0.759434326171875,9.938289642333984,2.1705892086029053,-0.4094717800617218
1781604254830950700,0.80795068359375,9.241379737854004,2.1975085735321045,-0.2515454888343811
1781604254879467000,0.856467041015625,9.4061861038208,2.3294129371643066,-0.32123643159866333
1781604254927983600,0.904983642578125,9.988240242004395,2.0656042098999023,0.015254244208335876
1781604254976500000,0.9535,10.069296836853027,1.810768485069275,0.04935196787118912
1781604255025016300,1.002016357421875,10.220343589782715,2.470290184020996,0.38255253434181213
1781604255073532700,1.05053271484375,10.602896690368652,2.834597587585449,0.4124628007411957
1781604255122049000,1.099049072265625,9.445966720581055,2.8564319610595703,1.4793626070022583
1781604255170565400,1.1475654296875,8.822935104370117,3.044567823410034,0.8551349639892578
1781604255219081700,1.196081787109375,10.267004013061523,2.6602206230163574,-0.23688943684101105
1781604255267598000,1.24459814453125,9.08674430847168,3.7540395259857178,-0.542572557926178
1781604255316114700,1.29311474609375,8.679366111755371,2.921337366104126,-0.04097708687186241
1781604255364631000,1.341631103515625,9.17886734008789,3.4034910202026367,0.924227774143219
1781604255413147400,1.3901474609375,9.007183074951172,2.162513494491577,0.7190431952476501
1781604255461663700,1.438663818359375,9.70349407196045,2.6147570610046387,0.8297112584114075
1781604255510180400,1.487180419921875,9.219844818115234,2.7493531703948975,1.2690932750701904
1781604255558696700,1.53569677734375,8.479864120483398,2.3234307765960693,1.4742778539657593
1781604255607213000,1.584213134765625,8.143373489379883,2.068894386291504,1.2664014101028442
1781604255655729400,1.6327294921875,8.260622024536133,1.2448660135269165,2.5408785343170166
1781604255704245800,1.681245849609375,6.34008264541626,0.04486542567610741,6.5318074226379395
1781604255752762400,1.729762451171875,2.0967109203338623,-1.916949987411499,6.451648235321045
1781604255801278700,1.77827880859375,1.6160526275634766,-4.36600399017334,4.041477680206299
1781604255849795000,1.826795166015625,0.47258245944976807,-7.942376613616943,3.122035264968872
1781604255898311400,1.8753115234375,0.9388837814331055,-12.894323348999023,3.9023945331573486
1781604255946827800,1.923827880859375,4.805087089538574,-19.202102661132812,5.68385124206543
1781604255995344100,1.97234423828125,15.708581924438477,-22.35853385925293,12.271591186523438
1781604256043860700,2.02086083984375,14.41585922241211,-18.82971954345703,9.495916366577148
1781604256092377000,2.069377197265625,11.210373878479004,-16.380067825317383,6.594020843505859
1781604256140893400,2.1178935546875,8.006982803344727,-16.421642303466797,5.625226974487305
1781604256189409800,2.166409912109375,7.81346321105957,-16.20240020751953,7.237690448760986
1781604256237926400,2.214926513671875,5.6931233406066895,-14.934503555297852,8.057231903076172
1781604256286442800,2.26344287109375,-2.582453727722168,-13.375280380249023,5.4071807861328125
1781604256334959000,2.311958984375,-0.06969095766544342,-11.379666328430176,0.9939187169075012
1781604256383475500,2.360475341796875,-2.8788647651672363,-10.252646446228027,-1.4874383211135864
1781604256431991800,2.40899169921875,4.787439823150635,-8.48435115814209,-3.380460262298584
1781604256480508200,2.457508056640625,-2.339881420135498,-3.0233314037323,-0.13190434873104095
1781604256529024500,2.5060244140625,-1.5077773332595825,-3.100799083709717,-4.653142929077148
1781604256577541000,2.554541015625,-2.434098720550537,-1.7724833488464355,-4.237090587615967
1781604256626057500,2.603057373046875,1.2604193687438965,-4.714757919311523,-3.4235310554504395
1781604256674573800,2.65157373046875,4.643571376800537,-8.509774208068848,-5.244469165802002
1781604256723090200,2.700090087890625,0.3643072545528412,-11.472088813781738,-6.677470684051514
1781604256771606500,2.7486064453125,1.1653046607971191,-14.465210914611816,-3.483351469039917
1781604256820123000,2.797122802734375,0.3798605799674988,-10.985448837280273,-3.929612874984741
1781604256868639200,2.84563916015625,1.088136076927185,-7.05553674697876,-3.4112677574157715
1781604256917155600,2.894155517578125,4.526921272277832,-11.183454513549805,-2.077867269515991
1781604256965672200,2.942672119140625,1.8693926334381104,-16.670196533203125,-2.139183521270752
1781604257014188500,2.9911884765625,0.8123632669448853,-11.633305549621582,-2.3778674602508545
1781604257062705000,3.039704833984375,2.1221346855163574,1.026221752166748,-7.260422229766846
1781604257111221200,3.08822119140625,-0.38344982266426086,1.856830358505249,-6.110671043395996
1781604257159737600,3.136737548828125,-0.11694920808076859,-5.756533145904541,-3.685544967651367
1781604257208254000,3.18525390625,1.4066805839538574,-16.221242904663086,-2.7667012214660645
1781604257256770300,3.233770263671875,1.4820544719696045,-15.802799224853516,-1.568495273590088
1781604257305286700,3.28228662109375,-0.8611170649528503,-12.392428398132324,-3.4342987537384033
1781604257353803300,3.33080322265625,0.393320232629776,-4.282255172729492,-3.093620538711548
1781604257402319600,3.379319580078125,0.7857431173324585,-4.829613208770752,-6.320042610168457
1781604257450836000,3.4278359375,-1.353141188621521,-8.813364028930664,-1.0106685161590576
1781604257499352300,3.476352294921875,-0.5919244885444641,-10.342677116394043,1.796710729598999
1781604257547868700,3.52486865234375,-0.36311084032058716,-12.251850128173828,-2.370988130569458
1781604257596385000,3.573385009765625,0.4013960063457489,-9.122037887573242,-0.9484550952911377
1781604257644901600,3.621901611328125,0.10079765319824219,-11.418848991394043,-1.0791629552841187
1781604257693418000,3.67041796875,0.17527425289154053,-13.5604248046875,-2.0063817501068115
1781604257741934300,3.718934326171875,-1.0929217338562012,-14.748760223388672,-0.24436701834201813
1781604257790450700,3.76745068359375,0.07238288223743439,-6.475875377655029,-1.9570298194885254
1781604257838967000,3.815967041015625,0.3415754437446594,-7.723433494567871,-1.1300104856491089
1781604257887483400,3.8644833984375,-0.8988040089607239,-11.078170776367188,-0.21206390857696533
1781604257935999700,3.912999755859375,-0.4740779995918274,-9.66939640045166,-0.6433702111244202
1781604257984516000,3.96151611328125,-0.5303093194961548,-9.550353050231934,-0.8129615187644958
1781604258033032700,4.01003271484375,-0.7408776879310608,-10.047462463378906,-1.0959128141403198
1781604258081549000,4.058549072265625,-0.25393831729888916,-9.626923561096191,-1.4638092517852783
1781604258130065400,4.1070654296875,-0.5276173949241638,-9.625727653503418,-1.3211371898651123
1781604258178581800,4.155581787109375,-0.6364908218383789,-10.4219388961792,-0.7525427341461182
1781604258227098000,4.20409814453125,-0.6272186636924744,-9.694820404052734,-0.5383850932121277
1781604258275614500,4.252614501953125,-0.615553617477417,-9.424430847167969,-0.48574298620224
1781604258324130800,4.301130859375,-0.6681957244873047,-10.159028053283691,-0.9352945685386658
1781604258372647200,4.349647216796875,-0.9517452120780945,-9.886545181274414,-0.9849455952644348
1781604258421163800,4.398163818359375,-0.7417750358581543,-9.879067420959473,-1.0061819553375244
1781604258469680000,4.44668017578125,-0.9702895879745483,-9.922736167907715,-1.048953652381897
1781604258518196500,4.495196533203125,-0.9601200819015503,-9.56650447845459,-1.1072787046432495
1781604258566712800,4.543712890625,-0.8291130661964417,-9.75105094909668,-1.0091729164123535
1781604258615229200,4.592229248046875,-0.900897741317749,-10.003494262695312,-1.2062816619873047
1781604258663745500,4.64074560546875,-0.8685946464538574,-9.993025779724121,-1.3878371715545654
1781604258712262000,4.689261962890625,-0.9029914736747742,-9.8267240524292,-1.1892328262329102
1781604258760778200,4.7377783203125,-0.7878368496894836,-9.917651176452637,-1.0450652837753296
1781604258809294600,4.786294677734375,-0.8330013751983643,-10.019047737121582,-1.1312068700790405
1781604258857811000,4.83481103515625,-0.7716853022575378,-10.186245918273926,-1.1473584175109863
1781604258906327300,4.883327392578125,-0.8790631890296936,-9.851848602294922,-1.1365907192230225
1781604258954843600,4.93184375,-0.9508479237556458,-9.964311599731445,-1.0447661876678467
1781604259003360000,4.980360107421875,-1.1389836072921753,-10.208080291748047,-0.7968099117279053
1781604259051876400,5.02887646484375,-1.0474581718444824,-9.946365356445312,-1.191924810409546
1781604259100392700,5.077392822265625,-1.526620864868164,-10.071989059448242,-1.8526428937911987
1781604259148909000,5.125908935546875,-1.32711923122406,-9.669096946716309,-1.5227324962615967
1781604259197425400,5.17442529296875,-0.9864411354064941,-9.593125343322754,-0.8886345028877258
1781604259245941800,5.222941650390625,-1.1282159090042114,-9.744172096252441,-1.0112667083740234
1781604259294458000,5.2714580078125,-0.8862416744232178,-8.923434257507324,-1.5107684135437012
1781604259342974500,5.319974365234375,-0.8799605369567871,-9.784850120544434,-1.211964726448059
1781604259391490800,5.36849072265625,-1.4081761837005615,-11.207383155822754,-1.8179470300674438
1781604259440007200,5.417007080078125,-2.11824631690979,-9.701101303100586,-1.6555341482162476
1781604259488523500,5.4655234375,-1.755733609199524,-9.372686386108398,-0.243469700217247
1781604259537040000,5.514039794921875,-1.4108680486679077,-9.505188941955566,-0.3080759048461914
1781604259585556200,5.56255615234375,-2.0853450298309326,-9.661619186401367,-0.46390849351882935
1781604259634072600,5.611072509765625,-2.2773690223693848,-9.75344467163086,-1.0166505575180054
1781604259682589000,5.6595888671875,-1.9067806005477905,-9.324530601501465,-1.5092729330062866
1781604259731105300,5.708105224609375,-1.9022940397262573,-9.479166984558105,-0.5195416212081909
1781604259779621600,5.75662158203125,-1.9268203973770142,-9.632606506347656,-0.25722843408584595
1781604259828137700,5.8051376953125,-2.0213370323181152,-9.713065147399902,-0.5548357367515564
1781604259876654000,5.853654052734375,-2.03419828414917,-9.76391315460205,-0.5796613097190857
1781604259925170400,5.90217041015625,-1.9983060359954834,-9.639784812927246,-0.5757729411125183
1781604259973686800,5.950686767578125,-2.0620148181915283,-9.742077827453613,-0.2829512655735016
1781604260022203100,5.999203125,-2.0895323753356934,-9.7636137008667,-0.0729810893535614
1781604260070719500,6.047719482421875,-1.934298038482666,-9.841679573059082,-0.38285163044929504
1781604260119235600,6.096235595703125,-2.324028968811035,-10.02592658996582,-0.43938204646110535
1781604260167752000,6.144751953125,-2.6347968578338623,-9.723833084106445,0.5150550603866577
1781604260216268300,6.193268310546875,-2.6452653408050537,-9.386744499206543,-0.27696922421455383
1781604260264784600,6.24178466796875,-2.529512643814087,-9.542876243591309,-0.41994038224220276
1781604260313301000,6.290301025390625,-2.123331069946289,-10.17308521270752,-0.5856433510780334
1781604260361817300,6.3388173828125,-2.2570300102233887,-9.45583724975586,-0.9260223507881165
1781604260410333700,6.387333740234375,-2.1230318546295166,-9.627223014831543,-0.09631111472845078
1781604260458849800,6.435849853515625,-1.9881365299224854,-9.530911445617676,-0.28983065485954285
1781604260507366100,6.4843662109375,-2.093719720840454,-9.677472114562988,-1.145264744758606
1781604260555882500,6.532882568359375,-2.3691935539245605,-9.809077262878418,-1.3660026788711548
1781604260604398800,6.58139892578125,-1.5376876592636108,-9.90568733215332,-0.7070791125297546
1781604260652915000,6.6299150390625,-2.235494613647461,-9.437292098999023,-1.2065808773040771
1781604260701431300,6.678431396484375,-2.173281192779541,-9.768698692321777,-0.984347403049469
1781604260749947600,6.72694775390625,-2.1613171100616455,-9.575777053833008,-0.5527420043945312
1781604260798464000,6.775464111328125,-1.9040886163711548,-9.520442962646484,-0.607776939868927
1781604260846980400,6.82398046875,-2.5031914710998535,-10.046265602111816,-0.7202396392822266
1781604260895496400,6.872496337890625,-2.0482561588287354,-9.603593826293945,-0.6993024349212646
1781604260944012800,6.9210126953125,-1.9710876941680908,-9.582656860351562,0.07776673883199692
1781604260992529200,6.969529052734375,-1.8167506456375122,-10.223933219909668,-0.31824541091918945
1781604261041045500,7.01804541015625,-2.331207513809204,-9.787840843200684,-1.1892328262329102
1781604261089561600,7.0665615234375,-2.490330219268799,-9.040681838989258,-2.210070848464966
1781604261138078000,7.115077880859375,-2.1628124713897705,-9.887442588806152,-1.1802598237991333
1781604261186594300,7.16359423828125,-1.784447431564331,-10.129416465759277,-0.5913262963294983
1781604261235110700,7.212110595703125,-2.097907304763794,-9.135198593139648,-1.1644073724746704
1781604261283626800,7.260626708984375,-2.2351953983306885,-9.939187049865723,-0.9873384237289429
1781604261332143000,7.30914306640625,-1.960020899772644,-9.848259925842285,-0.42741793394088745
1781604261380659500,7.357659423828125,-1.8861424922943115,-9.483354568481445,-0.37597227096557617
1781604261429175800,7.40617578125,-1.8499510288238525,-9.723833084106445,-0.29820552468299866
1781604261477692000,7.45469189453125,-1.9830517768859863,-9.797411918640137,-0.1381855010986328
1781604261526208300,7.503208251953125,-1.9773688316345215,-9.748957633972168,0.016450656577944756
1781604261574724600,7.551724609375,-1.978864312171936,-9.824930191040039,-0.04187439754605293
1781604261623240700,7.60024072265625,-1.8547366857528687,-9.991828918457031,-0.07836493849754333
1781604261671757000,7.648757080078125,-1.9184455871582031,-9.81954574584961,-0.15523436665534973
1781604261720273400,7.6972734375,-1.841277003288269,-9.69631576538086,-0.4265206456184387
1781604261768789500,7.74578955078125,-1.9435701370239258,-9.78664493560791,-0.6323033571243286
1781604261817305900,7.794305908203125,-1.927717685699463,-9.725627899169922,-0.542572557926178
1781604261865822200,7.842822265625,-1.8116658926010132,-9.638289451599121,-0.3939184248447418
1781604261914338300,7.89133837890625,-1.9301105737686157,-9.904191970825195,-0.21774685382843018
1781604261962854700,7.939854736328125,-1.9423737525939941,-9.825826644897461,-0.34247273206710815
1781604262011371000,7.98837109375,-1.9070796966552734,-9.756135940551758,-0.23629122972488403
1781604262059887000,8.03688720703125,-2.0635104179382324,-9.697811126708984,-0.2994019389152527
1781604262108403500,8.085403564453125,-1.9507486820220947,-9.767501831054688,-0.12143574655056
1781604262156919600,8.13391943359375,-2.0099709033966064,-9.741779327392578,-0.1534397453069687
1781604262205436000,8.182435791015624,-2.095215320587158,-9.747760772705078,-0.21355941891670227
1781604262253952300,8.2309521484375,-2.012662887573242,-9.8240327835083,-0.1785643845796585
1781604262302468400,8.27946826171875,-1.9710876941680908,-9.744770050048828,-0.36251261830329895
1781604262350984700,8.327984619140626,-2.0201404094696045,-9.764810562133789,-0.4411766827106476
1781604262399500800,8.376500732421874,-2.0129621028900146,-9.742676734924316,-0.4450650215148926
1781604262448017200,8.42501708984375,-1.9908283948898315,-9.673583984375,-0.40408793091773987
1781604262496533500,8.473533447265625,-2.0440688133239746,-9.827322959899902,-0.3314059376716614
1781604262545049600,8.522049560546876,-2.044965982437134,-9.636494636535645,-0.4621138870716095
1781604262593566000,8.57056591796875,-2.0210378170013428,-9.699605941772461,-0.4301098585128784
1781604262642082000,8.61908203125,-2.100898265838623,-9.824331283569336,-0.29312077164649963
1781604262690598400,8.667598388671875,-2.152343988418579,-9.646066665649414,-0.35533416271209717
1781604262739114500,8.716114501953125,-2.084746837615967,-9.669994354248047,-0.3655036687850952
1781604262787630800,8.764630859375,-2.1221346855163574,-9.83420181274414,-0.29730820655822754
1781604262836147000,8.81314697265625,-2.1311075687408447,-9.707681655883789,-0.35503506660461426
1781604262884663300,8.861663330078125,-2.0796620845794678,-9.722935676574707,-0.22462622821331024
1781604262933179600,8.9101796875,-2.073979139328003,-9.794720649719238,-0.37507495284080505
1781604262981695700,8.95869580078125,-2.1032910346984863,-9.717850685119629,-0.5009972453117371
1781604263030211800,9.0072119140625,-2.0796620845794678,-9.785747528076172,-0.4660021960735321
1781604263078728200,9.055728271484375,-2.079063892364502,-9.657432556152344,-0.44446679949760437
1781604263127244500,9.10424462890625,-2.08504581451416,-9.722038269042969,-0.43130627274513245
1781604263175760600,9.1527607421875,-2.0910279750823975,-9.74506950378418,-0.37148571014404297
1781604263224276700,9.20127685546875,-2.0333011150360107,-9.656235694885254,-0.4289134442806244
1781604263272793000,9.24979296875,-2.08504581451416,-9.807581901550293,-0.45284169912338257
1781604263321309400,9.298309326171875,-2.066800594329834,-9.748957633972168,-0.5027918815612793
1781604263369825500,9.346825439453125,-1.989033818244934,-9.693025588989258,-0.4950151741504669
1781604263418341600,9.395341552734376,-2.0518453121185303,-9.79083251953125,-0.5156532526016235
1781604263466858000,9.44385791015625,-1.9630118608474731,-9.756733894348145,-0.4821537733078003
1781604263515374000,9.4923740234375,-2.0003998279571533,-9.746265411376953,-0.489631325006485
1781604263563890400,9.540890380859375,-2.017448663711548,-9.763314247131348,-0.481854647397995
1781604263612406500,9.589406494140626,-1.9905292987823486,-9.653244972229004,-0.4663013219833374
1781604263660923000,9.6379228515625,-2.0297117233276367,-9.686145782470703,-0.5162515044212341
1781604263709439000,9.68643896484375,-2.0333011150360107,-9.742676734924316,-0.498604416847229
1781604263757955000,9.734955078125,-2.0210378170013428,-9.803394317626953,-0.388235479593277
1781604263806471400,9.783471435546875,-2.062314033508301,-9.79681396484375,-0.4136592149734497
1781604263854987500,9.831987548828126,-2.020439624786377,-9.748359680175781,-0.34995031356811523
1781604263903504000,9.88050390625,-2.0374884605407715,-9.741181373596191,-0.43639102578163147
1781604263952020000,9.92902001953125,-2.0267207622528076,-9.70349407196045,-0.4743770956993103
1781604264000536300,9.977536376953125,-2.0216360092163086,-9.764211654663086,-0.45194438099861145
1781604264049052400,10.026052490234376,-2.0404794216156006,-9.728618621826172,-0.40378883481025696
1781604264097568500,10.074568603515624,-2.026122570037842,-9.76241683959961,-0.36729827523231506
1781604264146084900,10.1230849609375,-2.040778636932373,-9.760921478271484,-0.35832518339157104
1781604264194601000,10.17160107421875,-2.067697763442993,-9.754640579223633,-0.4046861231327057
1781604264243117000,10.220116943359375,-2.0237298011779785,-9.695418357849121,-0.4387838542461395
1781604264291633400,10.26863330078125,-2.0521445274353027,-9.724730491638184,-0.4049852192401886
1781604264340149500,10.3171494140625,-2.0410776138305664,-9.728618621826172,-0.39152559638023376
1781604264388665600,10.36566552734375,-2.0344974994659424,-9.742975234985352,-0.41216370463371277
1781604264437182000,10.414181884765625,-2.0440688133239746,-9.744770050048828,-0.4456632137298584
1781604264485698000,10.462697998046876,-2.0048863887786865,-9.68494987487793,-0.4782654345035553
1781604264534214100,10.511214111328124,-2.0057835578918457,-9.797411918640137,-0.4570291340351105
1781604264582730200,10.559730224609375,-1.9986051321029663,-9.74088191986084,-0.44446679949760437
1781604264631246600,10.60824658203125,-1.9232312440872192,-9.74806022644043,-0.353240430355072
1781604264679762700,10.6567626953125,-1.9130617380142212,-9.786046028137207,-0.3128615617752075
1781604264728278800,10.70527880859375,-1.9268203973770142,-9.810274124145508,-0.5009972453117371
1781604264776795100,10.753795166015625,-1.8708882331848145,-9.764511108398438,-0.524327278137207
1781604264825311200,10.802311279296875,-1.932802438735962,-9.777671813964844,-0.45164528489112854
1781604264873827300,10.850827392578125,-1.9142581224441528,-9.75942611694336,-0.48424747586250305
1781604264922343700,10.89934375,-1.8813568353652954,-9.725627899169922,-0.4223332107067108
1781604264970859800,10.94785986328125,-1.866999864578247,-9.744172096252441,-0.3852444589138031
1781604265019375900,10.9963759765625,-1.8661025762557983,-9.774381637573242,-0.49172505736351013
1781604265067892000,11.04489208984375,-1.8993029594421387,-9.777671813964844,-0.5599204897880554
1781604265116408000,11.093407958984375,-1.9103697538375854,-9.7669038772583,-0.5617151260375977
1781604265164924400,11.14192431640625,-1.856830358505249,-9.705288887023926,-0.43489551544189453
1781604265213440500,11.1904404296875,-1.8610178232192993,-9.690034866333008,-0.4369892477989197
1781604265261956600,11.23895654296875,-1.8948163986206055,-9.744471549987793,-0.6532405614852905
1781604265310473000,11.287472900390625,-1.9283159971237183,-9.776774406433105,-0.7552346587181091
1781604265358989000,11.335989013671876,-1.9438693523406982,-9.904491424560547,-0.7345965504646301
1781604265407505200,11.384505126953124,-1.9576280117034912,-9.833903312683105,-0.7130611538887024
1781604265456021200,11.433021240234375,-1.9917258024215698,-9.757332801818848,-0.6418746709823608
1781604265504537300,11.481537353515625,-1.9576280117034912,-9.681958198547363,-0.620638370513916
1781604265553053700,11.5300537109375,-1.9606190919876099,-9.731908798217773,-0.8126623630523682
1781604265601569800,11.57856982421875,-1.8631114959716797,-9.693922996520996,-0.7770691514015198
1781604265650086000,11.6270859375,-1.9316060543060303,-9.767501831054688,-0.7636095285415649
1781604265698602000,11.67560205078125,-1.8708882331848145,-9.753743171691895,-0.7666005492210388
1781604265747118000,11.7241181640625,-1.8780666589736938,-9.768399238586426,-0.7217351198196411
1781604265795634200,11.77263427734375,-1.9037895202636719,-9.772886276245117,-0.7857431173324585
1781604265844150300,11.821150390625,-1.8586249351501465,-9.750154495239258,-0.7543373107910156
1781604265892666600,11.86966650390625,-1.8822541236877441,-9.760921478271484,-0.768395185470581
1781604265941182700,11.9181826171875,-1.9046868085861206,-9.752547264099121,-0.7286145091056824
1781604265989698800,11.96669873046875,-1.8870397806167603,-9.69212818145752,-0.7130611538887024
1781604266038215000,12.01521484375,-1.9112670421600342,-9.756135940551758,-0.6846463680267334
1781604266086731000,12.06373095703125,-1.8975083827972412,-9.763314247131348,-0.6433702111244202
1781604266135247000,12.1122470703125,-1.908276081085205,-9.738189697265625,-0.641276478767395
1781604266183763200,12.16076318359375,-1.934597134590149,-9.787840843200684,-0.6430711150169373
1781604266232279600,12.209279541015626,-1.8936200141906738,-9.724730491638184,-0.6251249313354492
1781604266280795600,12.257795654296874,-1.916949987411499,-9.791430473327637,-0.5985047817230225
1781604266329311700,12.306311767578125,-1.8753747940063477,-9.736993789672852,-0.6604190468788147
1781604266377827800,12.354827880859375,-1.8963119983673096,-9.719346046447754,-0.6825526356697083
1781604266426344000,12.403343994140625,-1.908575177192688,-9.769296646118164,-0.6873382925987244
1781604266474860000,12.451860107421876,-1.8693926334381104,-9.75523853302002,-0.6149554252624512
1781604266523376000,12.500376220703124,-1.8912272453308105,-9.761520385742188,-0.675075113773346
1781604266571892200,12.548892333984375,-1.9076778888702393,-9.734301567077637,-0.6720840334892273
1781604266620408300,12.597408203125,-1.9070796966552734,-9.795318603515625,-0.6188437342643738
1781604266668924400,12.64592431640625,-1.8831514120101929,-9.713364601135254,-0.6777670383453369
1781604266717440500,12.6944404296875,-1.92951238155365,-9.781859397888184,-0.6813562512397766
1781604266765956600,12.74295654296875,-1.8759729862213135,-9.747760772705078,-0.7004988193511963
1781604266814472700,12.79147265625,-1.8987047672271729,-9.771988868713379,-0.7127620577812195
1781604266862988800,12.83998876953125,-1.887637972831726,-9.73789119720459,-0.7160521745681763
1781604266911505000,12.8885048828125,-1.8750756978988647,-9.761520385742188,-0.6538388133049011
1781604266960021000,12.93702099609375,-1.8915263414382935,-9.772586822509766,-0.651745080947876
1781604267008537000,12.985537109375,-1.887637972831726,-9.673583984375,-0.6924230456352234
1781604267057053200,13.03405322265625,-1.9100706577301025,-9.810274124145508,-0.6604190468788147
1781604267105569300,13.0825693359375,-1.8478572368621826,-9.763314247131348,-0.7441678643226624
1781604267154085400,13.13108544921875,-1.8556339740753174,-9.753743171691895,-0.748056173324585
1781604267202601500,13.1796015625,-1.846361756324768,-9.75224781036377,-0.6523432731628418
1781604267251117600,13.22811767578125,-1.8942182064056396,-9.751350402832031,-0.600000262260437
1781604267299633700,13.276633544921875,-1.86729896068573,-9.750154495239258,-0.5653043389320374
1781604267348149800,13.325149658203125,-1.8849459886550903,-9.804291725158691,-0.643968403339386
1781604267396665900,13.373665771484376,-1.9019949436187744,-9.754940032958984,-0.6960122585296631
1781604267445182000,13.422181884765624,-1.8729819059371948,-9.753743171691895,-0.6604190468788147
1781604267493698000,13.470697998046875,-1.8807586431503296,-9.726823806762695,-0.6807580590248108
1781604267542214000,13.5192138671875,-1.8768702745437622,-9.787542343139648,-0.651745080947876
1781604267590730000,13.56772998046875,-1.8693926334381104,-9.751350402832031,-0.6960122585296631
1781604267639246000,13.61624609375,-1.8729819059371948,-9.742975234985352,-0.6870391964912415
1781604267687762200,13.66476220703125,-1.877767562866211,-9.800403594970703,-0.6921239495277405
1781604267736278300,13.7132783203125,-1.8708882331848145,-9.756135940551758,-0.6690930128097534
1781604267784794400,13.76179443359375,-1.906481385231018,-9.79681396484375,-0.6538388133049011
1781604267833310500,13.810310546875,-1.8541384935379028,-9.726225852966309,-0.6538388133049011
1781604267881826600,13.85882666015625,-1.9061822891235352,-9.78843879699707,-0.6421737670898438
1781604267930342700,13.9073427734375,-1.8786648511886597,-9.748957633972168,-0.6882356405258179
1781604267978858500,13.9558583984375,-1.8646070957183838,-9.754341125488281,-0.7040880918502808
1781604268027374800,14.004374755859375,-1.8783657550811768,-9.734002113342285,-0.7223333120346069
1781604268075890700,14.052890625,-1.8765711784362793,-9.749555587768555,-0.6604190468788147
1781604268124406800,14.10140673828125,-1.8535401821136475,-9.759127616882324,-0.6427719593048096
1781604268172923000,14.1499228515625,-1.9226330518722534,-9.760323524475098,-0.6738786697387695
1781604268221439000,14.19843896484375,-1.8681962490081787,-9.742377281188965,-0.6092724800109863
1781604268269955000,14.246955078125,-1.9381862878799438,-9.802796363830566,-0.6484549641609192
1781604268318471000,14.295470947265626,-1.8909281492233276,-9.725028991699219,-0.6957131624221802
1781604268366987000,14.343987060546874,-1.8975083827972412,-9.759725570678711,-0.6245267391204834
1781604268415503000,14.392503173828125,-1.8951154947280884,-9.758528709411621,-0.6502495408058167
1781604268464019200,14.441019287109375,-1.9199410676956177,-9.728918075561523,-0.6705885529518127
1781604268512535000,14.48953515625,-1.903191328048706,-9.793225288391113,-0.6293123364448547
1781604268561051400,14.538051513671874,-1.9094724655151367,-9.728618621826172,-0.623330295085907
1781604268609567200,14.586567138671874,-1.9399809837341309,-9.739386558532715,-0.6116653084754944
1781604268658083300,14.635083251953125,-1.8894325494766235,-9.687641143798828,-0.6346961855888367
1781604268706599400,14.683599365234375,-1.9399809837341309,-9.792327880859375,-0.6424728631973267
1781604268755115300,14.732115234375,-1.8801604509353638,-9.772287368774414,-0.5952146053314209
1781604268803631400,14.78063134765625,-1.9253249168395996,-9.756135940551758,-0.584446907043457
1781604268852147500,14.8291474609375,-1.9052850008010864,-9.76062297821045,-0.5644070506095886
1781604268900663600,14.87766357421875,-1.8810577392578125,-9.759127616882324,-0.5742774605751038
1781604268949179600,14.9261796875,-1.8942182064056396,-9.80399227142334,-0.6418746709823608
1781604268997695500,14.974695556640626,-1.8502501249313354,-9.757332801818848,-0.6553342938423157
1781604269046211600,15.023211669921874,-1.8523437976837158,-9.756733894348145,-0.6101697683334351
1781604269094727700,15.071727783203125,-1.8939191102981567,-9.793225288391113,-0.592223584651947
1781604269143243800,15.120243896484375,-1.8397815227508545,-9.702896118164062,-0.5673980712890625
1781604269191759600,15.168759521484375,-1.88285231590271,-9.790233612060547,-0.5730810165405273
1781604269240275700,15.217275634765626,-1.8565312623977661,-9.782755851745605,-0.6346961855888367
1781604269288791800,15.265791748046874,-1.8406788110733032,-9.756135940551758,-0.6236293911933899
1781604269337307600,15.3143076171875,-1.8607187271118164,-9.77707290649414,-0.6251249313354492
1781604269385823700,15.36282373046875,-1.8323038816452026,-9.74088191986084,-0.6092724800109863
1781604269434339800,15.41133984375,-1.8505492210388184,-9.77527904510498,-0.6083751320838928
1781604269482855700,15.459855712890626,-1.8346967697143555,-9.755537986755371,-0.5904290080070496
1781604269531371800,15.508371826171874,-1.836491346359253,-9.752845764160156,-0.5189434289932251
1781604269579887900,15.556887939453125,-1.8128622770309448,-9.836594581604004,-0.49710890650749207
1781604269628403700,15.60540380859375,-1.8323038816452026,-9.786943435668945,-0.49591249227523804
1781604269676919800,15.653919921875,-1.7602201700210571,-9.783653259277344,-0.5362913608551025
1781604269725436000,15.702435791015626,-1.857129454612732,-9.81236743927002,-0.6861419081687927
1781604269773951700,15.75095166015625,-1.770987868309021,-9.746564865112305,-0.582054078578949
1781604269822467800,15.7994677734375,-1.7533408403396606,-9.772586822509766,-0.5850451588630676
1781604269870984000,15.84798388671875,-1.8388842344284058,-9.76989459991455,-0.5988038778305054
1781604269919499800,15.896499755859375,-1.7327027320861816,-9.723833084106445,-0.5410770177841187
1781604269968016000,15.945015869140626,-1.7772690057754517,-9.818648338317871,-0.5796613097190857
1781604270016532000,15.993531982421874,-1.8236299753189087,-9.835099220275879,-0.5497509837150574
1781604270065047800,16.0420478515625,-1.755733609199524,-9.78245735168457,-0.46480581164360046
1781604270113564000,16.09056396484375,-1.8502501249313354,-9.838688850402832,-0.6203392744064331
1781604270162080000,16.139080078125,-1.9366908073425293,-9.835099220275879,-0.7360920906066895
1781604270210595800,16.187595947265624,-2.1296122074127197,-9.844670295715332,-0.5877370834350586
1781604270259112000,16.23611181640625,-1.9878374338150024,-9.634700775146484,-0.7286145091056824
1781604270307627800,16.284627685546877,-2.210369825363159,-9.659226417541504,-0.7414759397506714
1781604270356143900,16.333143798828125,-2.0991036891937256,-9.496515274047852,-0.5679962635040283
1781604270404660000,16.381659912109374,-2.103889226913452,-9.911370277404785,-0.6885347366333008
1781604270453175800,16.43017578125,-2.1394824981689453,-9.681360244750977,-0.9433703422546387
1781604270501692000,16.47869189453125,-2.181057929992676,-9.540482521057129,-0.9302098155021667
1781604270550207700,16.527207763671875,-2.2010977268218994,-9.65683364868164,-0.784247636795044
1781604270598723800,16.575723876953123,-2.108675003051758,-9.692726135253906,-0.6738786697387695
1781604270647240000,16.624239990234376,-2.1981067657470703,-9.639486312866211,-0.748056173324585
1781604270695755800,16.672755859375,-2.1619153022766113,-9.630513191223145,-0.7594220638275146
1781604270744272000,16.72127197265625,-2.0395822525024414,-9.679266929626465,-0.6514459848403931
1781604270792787700,16.76978759765625,-1.9680966138839722,-9.618249893188477,-0.6777670383453369
1781604270841303800,16.8183037109375,-1.9722840785980225,-9.859027862548828,-0.7399803996086121
1781604270889819600,16.866819580078126,-1.903191328048706,-9.691230773925781,-0.7342974543571472
1781604270938335700,16.915335693359374,-1.726421594619751,-9.83838939666748,-0.388235479593277
1781604270986851800,16.963851806640626,-1.8367904424667358,-9.941280364990234,-0.5694918036460876
1781604271035367700,17.01236767578125,-1.9492532014846802,-9.776774406433105,-0.7920243144035339
1781604271083883800,17.0608837890625,-1.9193428754806519,-9.817152976989746,-0.651745080947876
1781604271132399600,17.109399658203124,-1.9025931358337402,-9.771689414978027,-0.7630113363265991
1781604271180915500,17.15791552734375,-2.161616086959839,-9.920044898986816,-0.6634100675582886
1781604271229431600,17.206431640625,-2.0231316089630127,-9.646066665649414,-0.6667001843452454
1781604271277947600,17.25494775390625,-2.002194404602051,-9.49920654296875,-0.8841479420661926
1781604271326463500,17.30346337890625,-2.0569300651550293,-9.514460563659668,-0.748056173324585
1781604271374979600,17.3519794921875,-2.0554347038269043,-9.276374816894531,-0.7076773047447205
1781604271423495400,17.400495361328126,-1.7123637199401855,-9.48784065246582,-0.974177896976471
1781604271472011500,17.449011474609375,-1.3468600511550903,-9.456435203552246,-0.9469595551490784
1781604271520527400,17.49752734375,-0.9430712461471558,-9.393623352050781,-1.2939188480377197
1781604271569043500,17.54604345703125,-0.9206385016441345,-10.466206550598145,-2.3994028568267822
1781604271617559300,17.594559326171876,-0.6358926296234131,-10.630114555358887,-2.6350958347320557
1781604271666075100,17.6430751953125,-0.2602194547653198,-9.312267303466797,-2.3515465259552
1781604271714591200,17.69159130859375,-0.3320041298866272,-9.646066665649414,-2.097907304763794
1781604271763107300,17.740107421875,0.19232311844825745,-9.333503723144531,-2.4684956073760986
1781604271811623200,17.788623046875,0.2231307178735733,-9.086444854736328,-3.035893678665161
1781604271860139000,17.837138916015626,0.8392825126647949,-9.146265029907227,-2.760420083999634
1781604271908655000,17.885655029296874,0.6738786697387695,-8.402995109558105,-3.156731367111206
1781604271957171000,17.9341708984375,1.241276741027832,-9.169595718383789,-2.740978240966797
1781604272005687000,17.98268701171875,0.521934449672699,-10.892128944396973,-4.3223347663879395
1781604272054203000,18.031202880859375,0.13668999075889587,-10.637292861938477,-5.928217887878418
1781604272102719000,18.079718994140624,2.2495524883270264,-11.062617301940918,-4.715356349945068
1781604272151234800,18.12823486328125,0.4624129831790924,-13.57179069519043,-3.2506494522094727
1781604272199751000,18.1767509765625,-0.4019941985607147,-10.036694526672363,1.9319051504135132
1781604272248266800,18.225266845703125,-2.729612350463867,-8.835497856140137,-1.4715858697891235
1781604272296782600,18.273782470703125,-2.2881367206573486,-10.968997955322266,-1.2882359027862549
1781604272345298700,18.322298583984374,-0.13040883839130402,-8.368298530578613,-0.851844847202301
1781604272393814500,18.370814453125,-1.282852053642273,-6.748358249664307,0.4172484576702118
1781604272442330400,18.419330322265626,-0.641276478767395,-9.02961540222168,0.02632104977965355
1781604272490846500,18.467846435546875,-0.7785646915435791,-9.990633010864258,-1.220937728881836
1781604272539362300,18.5163623046875,-1.5586248636245728,-8.771489143371582,-1.3405789136886597
1781604272587878400,18.56487841796875,-0.41964125633239746,-9.04845905303955,-0.5380859971046448
1781604272636394200,18.613394287109376,0.11605189740657806,-8.112865447998047,-0.8934201598167419
1781604272684910300,18.661910400390624,-0.12053844332695007,-12.581461906433105,-3.5997025966644287
1781604272733426200,18.71042626953125,-1.6250256299972534,-9.400801658630371,-3.7923247814178467
1781604272781942000,18.75894189453125,-5.56869649887085,-5.104189872741699,1.5544373989105225
1781604272830458000,18.8074580078125,-3.0774691104888916,-15.483357429504395,5.6671013832092285
1781604272878974000,18.855973876953126,-5.435894966125488,-21.02992057800293,-2.730808734893799
1781604272927490000,18.904489990234374,-0.6056832075119019,-1.8562321662902832,-3.471088409423828
1781604272976006000,18.953005859375,0.7938188910484314,-7.545466899871826,-0.5315057039260864
1781604273024521700,19.001521728515623,-0.21565313637256622,-9.93260669708252,-1.6621143817901611
1781604273073037800,19.050037841796875,1.2897313833236694,-7.17786979675293,-2.5133609771728516
1781604273121553700,19.0985537109375,1.583450436592102,-7.274180889129639,-4.046562194824219
1781604273170069500,19.147069580078124,1.0648061037063599,-14.566008567810059,-2.5118656158447266
1781604273218585600,19.195585693359376,4.215555191040039,-12.014063835144043,-3.2593235969543457
1781604273267101400,19.244101318359377,-4.009174346923828,-14.627325057983398,1.7697914838790894
1781604273315617300,19.2926171875,-1.179661512374878,-9.18843936920166,-0.09990034252405167
1781604273364133400,19.34113330078125,-2.144866466522217,-10.627422332763672,-0.5285146832466125
1781604273412649200,19.389649169921874,0.11306086927652359,-10.926525115966797,2.535494804382324
1781604273461165000,19.4381650390625,-0.37447673082351685,-7.771289825439453,0.844068169593811
1781604273509681200,19.48668115234375,-1.2296117544174194,-7.899305820465088,-0.42831525206565857
1781604273558197000,19.535197021484375,-0.4698905348777771,-8.466105461120605,-2.3539392948150635
1781604273606712800,19.583712890625,-0.3248256742954254,-8.508278846740723,-0.9188438653945923
1781604273655229000,19.63222900390625,1.51166570186615,-8.625826835632324,-0.9299107193946838
1781604273703745300,19.680745361328125,-0.735194742679596,-9.020342826843262,-4.505984306335449
1781604273752260600,19.729260498046877,-0.48484569787979126,-12.128320693969727,-2.8582265377044678
1781604273800776700,19.777776611328125,-2.286940336227417,-5.944967746734619,1.46500563621521
1781604273849292500,19.82629248046875,-4.348057746887207,-8.60758113861084,3.076870918273926
1781604273897808400,19.874808349609374,-4.246662139892578,-23.85225486755371,0.4013960063457489
1781604273946324200,19.92332421875,-2.921935558319092,-11.63121223449707,-6.034100532531738
1781604273994840300,19.97184033203125,1.4847464561462402,-2.4828526973724365,-1.3752747774124146
1781604274043356200,20.020356201171875,0.4588237404823303,-5.993123531341553,0.716949462890625
1781604274091872000,20.0688720703125,1.0151549577713013,-8.034500122070312,-0.39541393518447876
1781604274140388000,20.11738818359375,1.6034902334213257,-9.551549911499023,-2.754737138748169
1781604274188904000,20.165904052734376,1.7027924060821533,-10.978270530700684,-5.437988758087158
1781604274237419800,20.214419677734377,2.4496521949768066,-12.495918273925781,-1.6393826007843018
1781604274285935600,20.262935546875,-0.23030917346477509,-14.4263277053833,0.2844468057155609
1781604274334451700,20.31145166015625,-3.8796627521514893,-11.733803749084473,0.6505486369132996
1781604274382967600,20.359967529296874,-1.064207911491394,-8.481958389282227,-2.1379871368408203
1781604274431483400,20.4084833984375,-0.9858429431915283,-14.473286628723145,2.7140591144561768
1781604274479999200,20.456999267578126,0.6616154313087463,-6.5042901039123535,2.1756739616394043
1781604274528515300,20.505515380859375,-2.1816561222076416,-5.8010993003845215,0.97926265001297
1781604274577031200,20.55403125,-0.35503506660461426,-10.784451484680176,-0.9553344249725342
1781604274625547000,20.602547119140624,-0.5542375445365906,-9.32183837890625,-1.3211371898651123
1781604274674062800,20.651062744140624,1.2999008893966675,-6.614659309387207,-2.9216363430023193
1781604274722579000,20.699578857421876,0.04127619042992592,-8.047361373901367,-3.675076484680176
1781604274771094800,20.7480947265625,0.036191441118717194,-13.670195579528809,-2.967698335647583
1781604274819610600,20.796610595703125,-0.246759831905365,-6.652944087982178,-0.5051847100257874
1781604274868126500,20.84512646484375,-4.6749773025512695,-5.117649555206299,2.4532413482666016
1781604274916642600,20.893642578125,-4.236791610717773,-20.81905174255371,4.624129772186279
1781604274965158400,20.942158447265626,-3.960420608520508,-20.597118377685547,-5.667998790740967
1781604275013674200,20.99067431640625,-0.062213387340307236,-1.4333007335662842,-5.378467082977295
1781604275062190000,21.039190185546875,2.1128623485565186,-6.142973899841309,0.7534400224685669
1781604275110706000,21.087705810546876,0.3242274820804596,-8.00518798828125,0.49980083107948303
1781604275159222000,21.136221923828124,1.6863417625427246,-8.564510345458984,-3.402294635772705
1781604275207737900,21.18473779296875,2.9907290935516357,-9.259325981140137,-6.7076802253723145
1781604275256253700,21.233253662109377,0.973878800868988,-14.67219066619873,-2.2755744457244873
1781604275304769500,21.28176953125,2.1672990322113037,-15.407684326171875,1.812264084815979
1781604275353285400,21.330285400390625,-2.8325037956237793,-8.850751876831055,0.6984050869941711
1781604275401801200,21.37880126953125,-2.0811574459075928,-10.994122505187988,-3.2721848487854004
1781604275450317300,21.4273173828125,-0.5814558863639832,-12.58714485168457,1.516152262687683
1781604275498833200,21.475833251953127,0.8509475588798523,-7.591827869415283,0.4704887568950653
1781604275547349000,21.524348876953123,-2.0467605590820312,-6.631109714508057,0.6098706722259521
1781604275595864800,21.57286474609375,-0.3415754437446594,-9.025128364562988,-1.8083757162094116
1781604275644380700,21.621380615234376,-0.1423729509115219,-8.840581893920898,-0.8126623630523682
1781604275692896500,21.669896484375,0.7088736891746521,-7.921140193939209,1.1291131973266602
1781604275741412600,21.71841259765625,1.4922239780426025,-6.912266254425049,-1.373480200767517
1781604275838444300,21.8154443359375,-1.407876968383789,-7.6390862464904785,-3.202493906021118
1781604275886960000,21.863960205078126,-4.979464054107666,-6.2913289070129395,2.7723841667175293
1781604275935476200,21.912476318359374,-4.122235298156738,-16.26461410522461,7.479365348815918
1781604275983994400,21.960994384765623,-5.00787878036499,-23.644079208374023,-3.1941192150115967
1781604276032508000,22.0095078125,-0.6326025128364563,-1.8529419898986816,-7.015756130218506
1781604276081023700,22.058023681640623,2.049452543258667,-4.915156841278076,-0.3735794425010681
1781604276129539600,22.10653955078125,0.5868397355079651,-7.509275436401367,1.2391830682754517
1781604276178055400,22.155055419921876,1.906481385231018,-8.7445707321167,-2.0084755420684814
1781604276226571300,22.2035712890625,2.0934207439422607,-8.745168685913086,-5.239384174346924
1781604276275087000,22.252087158203125,1.9752750396728516,-14.609976768493652,-2.4424736499786377
1781604276323603000,22.30060302734375,2.5226333141326904,-13.869697570800781,0.9311071038246155
1781604276372118800,22.349118896484374,-4.718646049499512,-13.214961051940918,0.5748756527900696
1781604276420634600,22.397634521484374,-1.8637096881866455,-9.36161994934082,-2.6045875549316406
1781604276469150700,22.446150634765626,-1.4862419366836548,-12.369098663330078,1.6420745849609375
1781604276517666600,22.49466650390625,1.1736794710159302,-7.207181930541992,3.1818559169769287
1781604276566182400,22.543182373046875,-1.795215129852295,-5.725127220153809,1.425524115562439
1781604276614698200,22.5916982421875,-0.05144568532705307,-10.81825065612793,-1.103689432144165
1781604276663214000,22.640214111328124,-0.14895321428775787,-9.305686950683594,-1.2798609733581543
1781604276711730000,22.68872998046875,1.9872392416000366,-6.676274299621582,-2.011765718460083
1781604276760245800,22.737245849609376,0.6227321028709412,-7.5173516273498535,-4.9501519203186035
1781604276808761600,22.78576171875,-0.15942180156707764,-13.774881362915039,-4.309772491455078
1781604276857277400,22.83427734375,-1.7413766384124756,-6.5614190101623535,-1.0444670915603638
1781604276905793500,22.88279345703125,-4.006781578063965,-7.500601768493652,4.983352184295654
1781604276954309400,22.931309326171874,-3.7235312461853027,-22.420150756835938,3.8479578495025635
1781604277002825000,22.979824951171874,-3.88594388961792,-15.789339065551758,-8.926424980163574
1781604277051340800,23.0283408203125,1.827817440032959,-0.4815555512905121,-3.148057222366333
1781604277099857000,23.07685693359375,1.3142578601837158,-7.82692289352417,0.7208378314971924
1781604277148372700,23.125372802734375,0.5685944557189941,-8.355138778686523,-0.91136634349823
1781604277196888600,23.173888671875,1.831406593322754,-7.749455451965332,-3.0861430168151855
1781604277245404400,23.222404296875,1.7584255933761597,-10.622636795043945,-4.630710124969482
1781604277293920300,23.270920166015625,1.3794622421264648,-14.508281707763672,0.2267199456691742
1781604277342436000,23.31943603515625,1.168893814086914,-15.549757957458496,-0.4097708761692047
1781604277390952000,23.367951904296874,-4.030111312866211,-9.601799011230469,-0.053240302950143814
1781604277439467800,23.4164677734375,-1.8553348779678345,-9.89850902557373,-0.6122635006904602
1781604277487983600,23.464983642578126,-0.19710876047611237,-11.743375778198242,3.2303106784820557
1781604277536499500,23.51349951171875,0.5665007829666138,-7.010671138763428,1.0336993932724
1781604277585015300,23.562015380859375,-1.5275181531906128,-7.288537979125977,-0.048454657196998596
1781604277633531100,23.61053125,-0.50907301902771,-10.11296558380127,-2.1729819774627686
1781604277682047000,23.659046875,0.32991042733192444,-9.823135375976562,-0.9783653616905212
1781604277730562800,23.707562744140624,1.3178470134735107,-7.581359386444092,-0.8108677864074707
1781604277779079000,23.756078857421876,0.7860422134399414,-6.796214580535889,-4.836492538452148
1781604277827594800,23.8045947265625,-0.27696922421455383,-12.944572448730469,-3.4510483741760254
1781604277876110600,23.853110595703125,-1.8592232465744019,-6.572485446929932,0.05802594870328903
1781604277924626400,23.90162646484375,-5.215754985809326,-9.351449966430664,3.777369737625122
1781604277973142300,23.950142333984374,-3.617349624633789,-21.996919631958008,1.4246268272399902
1781604278021658000,23.998658203125,-3.1504502296447754,-13.406387329101562,-7.144669532775879
1781604278070174000,24.047174072265626,1.1736794710159302,-2.121835470199585,-2.5734808444976807
1781604278118689800,24.095689697265627,0.8620143532752991,-7.1626152992248535,0.44835513830184937
1781604278167205600,24.14420556640625,0.6954140663146973,-8.040183067321777,-0.08554340898990631
1781604278215721500,24.192721435546876,1.7976080179214478,-8.382954597473145,-2.1337995529174805
1781604278264237300,24.2412373046875,1.6426727771759033,-11.360822677612305,-4.417748928070068
1781604278312753200,24.289753173828124,2.806182861328125,-12.526127815246582,-0.8512466549873352
1781604278361269000,24.33826904296875,1.2690932750701904,-15.05863094329834,-1.3597214221954346
1781604278409784800,24.386784912109373,-4.455136775970459,-11.427522659301758,0.5210371017456055
1781604278458300700,24.43530078125,-1.4042878150939941,-8.592925071716309,-1.5005989074707031
1781604278506816500,24.48381640625,-1.3381860256195068,-12.264412879943848,2.0264217853546143
1781604278555332400,24.532332275390626,1.0462616682052612,-7.677072525024414,2.3829522132873535
1781604278603848200,24.58084814453125,-1.7437695264816284,-5.734997749328613,1.4608181715011597
1781604278652364000,24.629364013671875,-0.02063809521496296,-11.11346435546875,-1.7066807746887207
1781604278700880000,24.6778798828125,-0.5437689423561096,-9.942776679992676,-1.5607185363769531
1781604278749395700,24.726395751953124,1.932802438735962,-5.514857769012451,-1.568495273590088
1781604278797911600,24.77491162109375,-0.03409772366285324,-8.726025581359863,-4.2346978187561035
1781604278846427400,24.823427490234376,-0.7854440212249756,-13.214961051940918,-4.906782150268555
1781604278894943200,24.871943115234377,-2.6524438858032227,-7.0031938552856445,-0.023330021649599075
1781604278943459000,24.920458984375,-3.7196428775787354,-8.102097511291504,6.6729841232299805
1781604278991975000,24.968974853515626,-4.7350969314575195,-24.97089958190918,2.624328136444092
1781604279040490800,25.01749072265625,-2.4987051486968994,-10.473085403442383,-9.28445053100586
1781604279089006600,25.066006591796874,1.9504495859146118,-2.0673987865448,-2.587538480758667
1781604279137522400,25.1145224609375,1.0474581718444824,-6.890431880950928,1.0121639966964722
1781604279186038300,25.163038330078123,1.2116655111312866,-7.109674453735352,-0.9924231767654419
1781604279234554000,25.21155419921875,1.7198412418365479,-8.535497665405273,-3.4396824836730957
1781604279283070000,25.260070068359376,1.2185449600219727,-14.155041694641113,-3.272484064102173
1781604279331585800,25.308585693359376,3.093620538711548,-12.268599510192871,-0.6478567123413086
1781604279380101600,25.3571015625,-1.1545369625091553,-16.944475173950195,-0.9574281573295593
1781604279428617500,25.405617431640625,-3.4845480918884277,-9.08674430847168,-0.5527420043945312
1781604279477133300,25.45413330078125,-1.989033818244934,-9.64965534210205,-0.664606511592865
1781604279525649200,25.502649169921874,0.06161518394947052,-11.382956504821777,2.7942185401916504
1781604279574165000,25.5511650390625,0.3080759048461914,-5.719444274902344,1.7066807746887207
1781604279622680800,25.599680908203126,-1.651944875717163,-7.481758117675781,1.088435173034668
1781604279671196700,25.64819677734375,-0.7929216027259827,-9.34457015991211,-1.3010972738265991
1781604279719712500,25.69671240234375,-0.4698905348777771,-8.9010009765625,-0.9565308690071106
1781604279768228400,25.745228271484375,3.105883836746216,-7.926225185394287,-1.9588243961334229
1781604279816744200,25.793744140625,-2.0282163619995117,-9.400801658630371,-6.011368751525879
1781604279865260000,25.842260009765624,-2.1062822341918945,-11.525628089904785,-4.89900541305542
1781604279913775900,25.89077587890625,-2.7693932056427,-7.8041911125183105,4.019941806793213
1781604279962291700,25.939291748046877,-3.3338000774383545,-12.885648727416992,6.93739128112793
1781604280010807600,25.9878076171875,-5.827121257781982,-22.821247100830078,-5.24327278137207
1781604280059323400,26.036323486328126,0.1333998590707779,-1.1886346340179443,-6.722336292266846
1781604280107839200,26.084839111328126,1.2687941789627075,-6.833602428436279,-0.4004986882209778
1781604280156355000,26.13335498046875,0.04187439754605293,-8.479864120483398,-0.661914587020874
1781604280204870700,26.18187060546875,1.119541883468628,-7.260422229766846,-2.131406784057617
1781604280253386500,26.230386474609375,2.26959228515625,-9.847063064575195,-3.4265220165252686
1781604280301902300,26.27890234375,0.7336992621421814,-12.507882118225098,-2.4451656341552734
1781604280350418200,26.327418212890624,4.132404804229736,-12.320643424987793,-1.0106685161590576
1781604280398934000,26.37593408203125,-4.012165546417236,-17.316259384155273,1.3908281326293945
1781604280447449900,26.424449951171876,-1.4470595121383667,-7.727321624755859,-2.0811574459075928
1781604280495965700,26.472965576171877,-2.082054853439331,-11.448759078979492,1.028016448020935
1781604280544481500,26.5214814453125,0.9029914736747742,-9.926325798034668,1.9701902866363525
1781604280592997400,26.569997314453126,-1.7988044023513794,-5.2630133628845215,0.3119642436504364
1781604280641513200,26.61851318359375,-1.072582721710205,-8.952746391296387,0.0687936544418335
1781604280690029000,26.667029052734375,-0.6607181429862976,-10.053743362426758,-1.4799607992172241
1781604280738545000,26.715544921875,-0.01196411345154047,-6.776174545288086,-0.47288158535957336
1781604280787060500,26.764060546875,0.9684949517250061,-6.343073844909668,-2.8172495365142822
1781604280835576300,26.812576416015624,0.031106693670153618,-14.88963794708252,-7.331010341644287
1781604280884092200,26.861092041015624,-1.6552350521087646,-7.424330234527588,-2.5950162410736084
1781604280932608000,26.90960791015625,-4.067499160766602,-4.708476543426514,5.200500965118408
1781604280981123800,26.958123779296876,-4.101896286010742,-21.412471771240234,6.811468601226807
1781604281029639700,27.0066396484375,-5.017449855804443,-19.59063720703125,-6.788736820220947
1781604281078155500,27.055155517578125,1.2427722215652466,0.8844470977783203,-5.358128070831299
1781604281126671400,27.10367138671875,1.2433704137802124,-6.347560405731201,-0.23718854784965515
1781604281175187200,27.152187255859374,0.5093721151351929,-8.1224365234375,-0.18873389065265656
1781604281223703000,27.200703125,2.1068804264068604,-8.535198211669922,-2.134098768234253
1781604281272219000,27.249218994140627,2.365903377532959,-11.3240327835083,-3.8377883434295654
1781604281320734500,27.297734375,3.4366915225982666,-13.080963134765625,0.35413774847984314
1781604281369250300,27.346250244140624,-2.2444677352905273,-17.469100952148438,-1.1548360586166382
1781604281417766100,27.39476611328125,-3.0442686080932617,-9.182756423950195,-0.24406790733337402
1781604281466282000,27.443281982421876,-1.7700905799865723,-10.846365928649902,-2.2642083168029785
1781604281514797800,27.4917978515625,0.17228323221206665,-11.697014808654785,2.210369825363159
1781604281563313700,27.540313720703125,0.11425728350877762,-4.261617183685303,2.5423741340637207
1781604281611829500,27.58882958984375,-2.4388844966888428,-7.105486869812012,0.7363911867141724
1781604281660345300,27.637345458984374,-0.057726845145225525,-11.108678817749023,-0.8012964725494385
1781604281708861200,27.685861083984374,-0.1621137410402298,-8.754739761352539,0.3849453330039978
1781604281757376800,27.734376708984374,2.6270201206207275,-4.480859279632568,-3.188735246658325
1781604281805892600,27.782892578125,-1.7548363208770752,-13.732409477233887,-6.698108673095703
1781604281854408400,27.831408447265623,0.28923243284225464,-8.586644172668457,-2.9150562286376953
1781604281902924300,27.87992431640625,-5.089832782745361,-5.003990173339844,3.6568312644958496
1781604281951440100,27.928440185546876,-3.8898322582244873,-21.723539352416992,6.008078575134277
1781604281999956000,27.9769560546875,-4.776073932647705,-20.871994018554688,-5.616253852844238
1781604282048471800,28.025471923828125,1.4135600328445435,0.5620142221450806,-4.578367233276367
1781604282096987400,28.0739873046875,0.23419751226902008,-5.048855781555176,-0.15583257377147675
1781604282145503200,28.122503173828125,1.2675977945327759,-6.432804584503174,-1.454537034034729
1781604282194019000,28.17101904296875,2.3321046829223633,-8.629714965820312,-3.7645082473754883
1781604282242535000,28.219534912109374,2.0865414142608643,-12.090633392333984,-5.832505226135254
1781604282291050800,28.26805078125,1.5568302869796753,-15.869499206542969,1.0205388069152832
1781604282339566600,28.316566650390627,0.6113662123680115,-15.708282470703125,2.7957141399383545
1781604282388082200,28.365082275390623,-3.1800613403320312,-8.244470596313477,-2.2265214920043945
1781604282436598000,28.413597900390624,-2.389233350753784,-13.947463989257812,-2.7382864952087402
1781604282485113900,28.46211376953125,0.6290132403373718,-8.655437469482422,2.4894328117370605
1781604282533629700,28.510629638671876,0.4983053207397461,-5.1514482498168945,1.7868403196334839
1781604282582145500,28.5591455078125,-2.2366909980773926,-7.0995049476623535,0.9924231767654419
1781604282630661000,28.6076611328125,-0.8988040089607239,-9.752547264099121,-0.7977072596549988
1781604282679177000,28.656177001953125,-0.9451649188995361,-9.711569786071777,0.8404789566993713
1781604282727692800,28.70469287109375,3.7740795612335205,-5.6916279792785645,-1.2293126583099365
1781604282776208600,28.753208740234374,-1.028315544128418,-9.746564865112305,-7.948358535766602
1781604282824724500,28.801724365234374,-3.8159539699554443,-11.224431991577148,-3.253640651702881
1781604282873240000,28.850239990234375,-3.479762315750122,-7.307082176208496,5.911767482757568
1781604282921756000,28.898755859375,-2.7631118297576904,-20.298315048217773,8.447261810302734
1781604282970271700,28.947271728515624,-6.516254425048828,-20.226829528808594,-9.465408325195312
1781604283018787600,28.99578759765625,1.440778374671936,0.9149555563926697,-6.735496520996094
1781604283067303400,29.044303466796876,0.9194421172142029,-5.86421012878418,0.49172505736351013
1781604283115819300,29.0928193359375,1.1389836072921753,-5.702395439147949,0.5799604058265686
1781604283164335000,29.141335205078125,1.9630118608474731,-6.879364967346191,-2.491825580596924
1781604283261366500,29.238366455078125,2.77657151222229,-13.724632263183594,1.6710875034332275
1781604283309882400,29.28688232421875,-2.3018953800201416,-18.221942901611328,3.497110366821289
1781604283358398200,29.335398193359374,-3.0622148513793945,-8.932107925415039,-5.222335338592529
1781604283406913800,29.383913818359375,-1.937588095664978,-13.564312934875488,0.27696922421455383
1781604283455429600,29.4324296875,1.568495273590088,-7.110571384429932,2.466402053833008
1781604283503945500,29.480945556640624,-0.9421738982200623,-4.18773889541626,1.9860427379608154
1781604283552461300,29.52946142578125,-0.7576274871826172,-9.004789352416992,0.6580262184143066
1781604283600977000,29.577976806640624,0.11545369029045105,-9.671489715576172,-1.3154542446136475
1781604283649492700,29.62649267578125,1.124626636505127,-8.890233039855957,-0.6586244106292725
1781604283698008600,29.675008544921877,1.9695920944213867,-5.0811591148376465,-5.26600456237793
1781604283746524200,29.723524169921873,-2.0093727111816406,-12.457931518554688,-6.250949859619141
1781604283795040000,29.7720400390625,-3.7357943058013916,-7.33968448638916,0.08584251254796982
1781604283843555800,29.820555908203126,-3.7713875770568848,-12.499506950378418,8.402995109558105
1781604283892071700,29.86907177734375,-6.0762739181518555,-26.59652328491211,2.609971284866333
1781604283940587300,29.917587158203126,-1.9351953268051147,-5.397609710693359,-10.477572441101074
1781604283989103000,29.96610302734375,1.6971094608306885,-2.4538395404815674,-2.919841766357422
1781604284037619000,30.014618896484375,0.8560323119163513,-6.67717170715332,1.1727821826934814
1781604284086134800,30.063134765625,1.4482558965682983,-6.172883987426758,-1.688734531402588
1781604284134650400,30.111650390625,1.8164514303207397,-8.566305160522461,-5.969494342803955
1781604284183166200,30.160166259765624,1.4072787761688232,-17.45265007019043,-1.9486548900604248
1781604284231682000,30.20868212890625,1.8595223426818848,-17.823537826538086,1.7249259948730469
1781604284280197600,30.25719775390625,-3.1304101943969727,-8.644071578979492,-0.09122636169195175
1781604284328713500,30.30571337890625,-3.82791805267334,-13.253844261169434,-3.250051259994507
1781604284377229300,30.354229248046874,-0.384347140789032,-10.619646072387695,3.2931220531463623
1781604284425745000,30.402744873046874,1.3821542263031006,-5.473880767822266,2.586043119430542
1781604284474260700,30.4512607421875,-2.103590250015259,-6.545865535736084,1.2077772617340088
1781604284522776600,30.499776611328127,-0.06281159073114395,-9.685847282409668,-0.6915257573127747
1781604284571292200,30.548292236328123,-1.5068800449371338,-9.945767402648926,0.05593222752213478
1781604284619808000,30.59680810546875,3.6921253204345703,-6.577271461486816,-2.216052770614624
1781604284668323800,30.64532373046875,0.1055833026766777,-7.539186000823975,-7.728816986083984
1781604284716839700,30.693839599609376,-1.558026671409607,-14.239089012145996,-4.537689208984375
1781604284765355300,30.742355224609376,-4.235595226287842,-5.055735111236572,2.252842426300049
1781604284813871000,30.79087109375,-3.5192439556121826,-11.249556541442871,7.977072715759277
1781604284862387000,30.839386962890625,-6.233602046966553,-29.744579315185547,0.5500500798225403
1781604284910902500,30.887902587890625,-0.9954141974449158,-0.04336991161108017,-10.006784439086914
1781604284959418400,30.93641845703125,1.924128532409668,-5.2166523933410645,-1.953141450881958
1781604285007934000,30.984933837890626,0.7079764008522034,-6.751348972320557,0.7184450030326843
1781604285056449800,31.03344970703125,1.4111671447753906,-6.180062770843506,-2.318047046661377
1781604285104965600,31.081965576171875,2.916252613067627,-9.730711936950684,-5.0979084968566895
1781604285153481200,31.130481201171875,0.32602208852767944,-18.928123474121094,-0.2961117923259735
1781604285201997800,31.178997802734376,1.6432709693908691,-16.936996459960938,3.90568470954895
1781604285250513000,31.227512939453124,-3.0317063331604004,-8.301898002624512,-1.6806588172912598
1781604285299028500,31.276028564453124,-3.510270833969116,-12.783355712890625,-3.6580276489257812
1781604285347544300,31.32454443359375,0.26201409101486206,-10.525428771972656,3.8730826377868652
1781604285396060000,31.373059814453125,1.5846468210220337,-5.24835729598999,2.306381940841675
1781604285444575700,31.42157568359375,-2.029113531112671,-5.460720539093018,1.0878369808197021
1781604285493091600,31.470091552734374,-0.7698906660079956,-8.90518856048584,-0.04486542567610741
1781604285541607200,31.518607177734374,-0.6299105882644653,-11.144571304321289,-0.15972091257572174
1781604285590123000,31.567123046875,3.8315072059631348,-4.964509010314941,-2.1535403728485107
1781604285638638800,31.615638916015627,-0.7645068168640137,-11.816655158996582,-9.74806022644043
1781604285687154400,31.664154541015623,-3.49202561378479,-10.514660835266113,-3.7301113605499268
1781604285735670300,31.712670166015624,-3.722932815551758,-5.922834396362305,6.8967132568359375
1781604285784185900,31.761185791015624,-2.833700180053711,-19.520048141479492,8.38265609741211
1781604285832701700,31.80970166015625,-7.964509963989258,-23.82623291015625,-10.109077453613281
1781604285881217300,31.85821728515625,2.595614433288574,3.063411235809326,-7.664809226989746
1781604285929733000,31.906733154296877,1.4036896228790283,-5.971288681030273,0.9876375198364258
1781604285978249000,31.9552490234375,1.4006985425949097,-6.140282154083252,0.483051061630249
1781604286026764500,32.0037646484375,1.954936146736145,-6.991528511047363,-1.7787644863128662
1781604286075280400,32.0522802734375,1.7494524717330933,-12.22403335571289,-4.527220249176025
1781604286123796000,32.1007958984375,1.1359925270080566,-16.561323165893555,2.6132614612579346
1781604286172311800,32.149311767578126,-0.16331014037132263,-18.40290069580078,1.389631748199463
1781604286220827400,32.19782739257813,-4.2825541496276855,-7.1494550704956055,-3.24735951423645
1781604286269343200,32.24634326171875,-3.056830883026123,-12.8389892578125,-0.43579283356666565
1781604286317858800,32.29485888671875,0.8120641708374023,-9.841081619262695,3.9942193031311035
1781604286366374700,32.34337475585937,-0.1869392693042755,-3.96789813041687,2.032104730606079
1781604286414890200,32.39189013671875,-1.0977073907852173,-8.49452018737793,-0.06520441919565201
1781604286463406000,32.44040600585937,-0.6664010882377625,-10.525129318237305,-1.8894325494766235
1781604286511921700,32.48892163085937,-0.16809579730033875,-9.095417976379395,-0.602692186832428
1781604286560437500,32.5374375,2.495414972305298,-3.953242063522339,-2.162513494491577
1781604286608953000,32.585953125,-1.1730812788009644,-11.538490295410156,-7.096214771270752
1781604286657469000,32.634468994140626,-2.266601324081421,-12.152547836303711,-3.2991042137145996
1781604286705984800,32.68298486328125,-4.072883129119873,-5.822933673858643,5.838188171386719
1781604286754500400,32.731500244140626,-2.831008195877075,-16.10788345336914,8.419445991516113
1781604286803016000,32.78001586914063,-6.45822811126709,-25.210180282592773,-8.852845191955566
1781604286851531800,32.82853173828125,0.6367899179458618,0.706480860710144,-7.288537979125977
1781604286900047400,32.87704736328125,1.466800332069397,-7.257132053375244,-0.49322056770324707
1781604286948563200,32.92556323242187,0.838983416557312,-6.053243160247803,0.5566303730010986
1781604286997078800,32.97407885742187,2.2728824615478516,-5.2028937339782715,-0.7947162389755249
1781604287045594600,33.0225947265625,1.7434704303741455,-10.221540451049805,-4.269991874694824
1781604287142626000,33.1196259765625,3.1722846031188965,-15.080764770507812,0.349352091550827
1781604287191141600,33.1681416015625,-5.3919267654418945,-10.61276626586914,0.2270190417766571
1781604287239657500,33.216657470703126,-2.4870400428771973,-10.250553131103516,-2.289033889770508
1781604287288173000,33.265173095703126,-0.5802595019340515,-11.942876815795898,2.816950559616089
1781604287385204500,33.36220458984375,-2.197209358215332,-6.098108291625977,1.2113664150238037
1781604287433720000,33.41071997070313,-0.28534409403800964,-10.578070640563965,-0.25304099917411804
1781604287482236000,33.45923583984375,-0.877866804599762,-10.224830627441406,0.2676970362663269
1781604287530751500,33.50775146484375,4.4844489097595215,-4.233501434326172,-1.76051926612854
1781604287579267300,33.55626733398437,-0.08075776696205139,-9.017950057983398,-7.983353614807129
1781604287627783000,33.60478295898437,-1.4847464561462402,-14.137393951416016,-5.5396833419799805
1781604287676298800,33.653298828125,-4.357629299163818,-5.449354648590088,2.3300111293792725
1781604287724814300,33.701814453125,-2.4329023361206055,-12.10678482055664,9.151947975158691
1781604287773330200,33.750330078125,-6.651149749755859,-30.33500862121582,-3.503690481185913
1781604287821845800,33.798845703125,-1.0414760112762451,0.734895646572113,-10.196714401245117
1781604287870361300,33.847361328125,2.8513472080230713,-5.137091159820557,-1.0854442119598389
1781604287918877200,33.89587719726563,0.9640084505081177,-6.7540411949157715,2.572882652282715
1781604287967392800,33.94439282226563,1.6528422832489014,-6.2297139167785645,0.07597211748361588
1781604288015908600,33.99290869140625,1.6139588356018066,-8.944669723510742,-4.288835525512695
1781604288064424200,34.04142407226563,0.8943174481391907,-17.54118537902832,-1.1066805124282837
1781604288112939800,34.08993969726563,2.1000008583068848,-16.20509147644043,-0.43489551544189453
1781604288161455600,34.13845556640625,-4.383351802825928,-11.259127616882324,0.11395817995071411
1781604288209971200,34.18697119140625,-2.3177478313446045,-10.952547073364258,-3.4998021125793457
1781604288258487000,34.23548706054687,-0.9598209857940674,-12.07358455657959,4.1078782081604
1781604288307002600,34.284002685546874,1.6504493951797485,-5.353342533111572,3.780958890914917
1781604288355518200,34.332518310546874,-1.7772690057754517,-5.713761329650879,1.4093725681304932
1781604288404034000,34.381033935546874,0.2267199456691742,-10.787442207336426,-1.607378602027893
1781604288452549600,34.429549560546874,-0.9768698215484619,-9.780961990356445,-1.7916259765625
1781604288501065200,34.478065185546875,3.6711881160736084,-5.7792649269104,-2.5995028018951416
1781604288549581000,34.5265810546875,-0.7986045479774475,-8.051848411560059,-6.868298530578613
1781604288598096600,34.5750966796875,-1.5050854682922363,-12.677772521972656,-4.033999919891357
1781604288646612500,34.62361254882813,-4.281956195831299,-6.381359100341797,3.870689630508423
1781604288695128000,34.67212817382813,-2.4675984382629395,-16.598411560058594,7.585845947265625
1781604288743643600,34.7206435546875,-6.843472957611084,-26.271398544311523,-5.878567218780518
1781604288792159200,34.7691591796875,0.33768710494041443,1.5702898502349854,-8.499007225036621
1781604288840675000,34.81767504882812,2.097907304763794,-5.651547908782959,-0.6945167779922485
1781604288889190700,34.86619067382812,0.5410770177841187,-6.276672840118408,1.3489537239074707
1781604288937706200,34.91470629882812,1.3357932567596436,-6.068497180938721,-0.8838488459587097
1781604288986222000,34.96322216796875,1.7518452405929565,-12.107084274291992,-3.325425386428833
1781604289034737700,35.01173754882812,1.2089736461639404,-16.279569625854492,1.323829174041748
1781604289083253500,35.06025341796875,1.0001999139785767,-19.216758728027344,1.1781660318374634
1781604289131769000,35.10876904296875,-4.458127498626709,-7.591827869415283,-3.4830524921417236
1781604289180284700,35.15728466796875,-3.075076103210449,-12.939786911010742,1.0196415185928345
1781604289228800500,35.205800537109376,1.2472587823867798,-8.753543853759766,3.835395574569702
1781604289277316000,35.254316162109376,0.31794631481170654,-5.0856451988220215,0.9667003750801086
1781604289325831700,35.302831787109376,-1.3001999855041504,-8.078767776489258,-0.6086742877960205
1781604289374347300,35.35134716796875,-0.15972091257572174,-9.808479309082031,-2.1708884239196777
1781604289422863000,35.39986303710938,0.6323033571243286,-9.125328063964844,-1.3420743942260742
1781604289471378700,35.44837866210938,2.8043880462646484,-5.494818210601807,-2.5764718055725098
1781604289519894300,35.49689428710938,-1.313360571861267,-11.56690502166748,-4.726123809814453
1781604289568409900,35.54540991210938,-2.1397817134857178,-10.75394344329834,-2.9066812992095947
1781604289616925700,35.59392578125,-4.46769905090332,-5.90159797668457,4.123730659484863
1781604289665441300,35.64244116210938,-2.428116798400879,-18.272192001342773,8.300702095031738
1781604289713956900,35.69095678710938,-6.835995197296143,-24.4271297454834,-7.3022966384887695
1781604289762472700,35.73947265625,1.095314621925354,1.4069796800613403,-8.246265411376953
1781604289810988300,35.78798828125,1.1461620330810547,-5.629115104675293,0.13459627330303192
1781604289859503900,35.83650390625,1.0103694200515747,-5.784947872161865,0.9116654396057129
1781604289908019500,35.88501953125,2.164607286453247,-5.965605735778809,-1.435693621635437
1781604289956535300,35.933535400390625,1.4919248819351196,-14.048859596252441,-4.214957237243652
1781604290005051000,35.98205078125,2.0315065383911133,-14.725131034851074,1.6609179973602295
1781604290053566500,36.03056640625,0.9571290612220764,-15.748063087463379,-0.8656035661697388
1781604290102082000,36.07908203125,-4.680959224700928,-10.976475715637207,-0.3367897868156433
1781604290150598000,36.127597900390626,-2.50498628616333,-10.705787658691406,-2.1765713691711426
1781604290199113500,36.176113525390626,-0.2721835672855377,-11.006685256958008,2.4460630416870117
1781604290247629000,36.224629150390626,0.8967102766036987,-5.167898654937744,3.0035905838012695
1781604290296145000,36.27314477539063,-1.932503342628479,-5.78345251083374,2.0150556564331055
1781604290344660500,36.32166040039063,-0.06311069428920746,-11.057233810424805,-1.179063320159912
1781604290393176000,36.37017602539063,-0.8662018179893494,-9.835099220275879,-1.3106685876846313
1781604290441691600,36.41869165039063,3.5045878887176514,-3.6646077632904053,-4.135395526885986
1781604290490207500,36.46720751953125,-1.5873386859893799,-12.644272804260254,-7.352844715118408
1781604290538723000,36.51572314453125,-2.99222469329834,-9.407681465148926,-2.0470597743988037
1781604290587238700,36.56423876953125,-3.903291940689087,-8.119146347045898,5.982056617736816
1781604290635754200,36.61275415039062,-3.6430723667144775,-22.77967071533203,6.8033928871154785
1781604290684270000,36.66127001953125,-6.595516681671143,-17.940786361694336,-9.30748176574707
1781604290732785700,36.70978564453125,2.172683000564575,2.2417757511138916,-6.250650882720947
1781604290781301200,36.75830126953125,1.0683952569961548,-5.241776943206787,1.5379867553710938
1781604290829816800,36.80681689453125,1.222732424736023,-6.531508445739746,1.144965648651123
1781604290878332400,36.85533251953125,1.7117655277252197,-9.7669038772583,-1.7389838695526123
1781604290926848000,36.90384790039062,0.6460621356964111,-14.099109649658203,-4.7697930335998535
1781604290975363800,36.95236376953125,3.55214524269104,-14.003396034240723,2.5531418323516846
1781604291023879400,37.00087939453125,-3.1504502296447754,-17.484355926513672,2.1311075687408447
1781604291072395000,37.04939501953125,-3.584149122238159,-8.815457344055176,-4.080061912536621
1781604291120910600,37.09791064453125,-2.1672990322113037,-12.439088821411133,0.8291130661964417
1781604291169426400,37.14642651367188,1.9052850008010864,-7.600203037261963,3.3846476078033447
1781604291217942000,37.19494189453125,-1.1096714735031128,-3.2368907928466797,1.2074781656265259
1781604291266457600,37.24345751953125,-0.9672985672950745,-8.601000785827637,0.8102695941925049
1781604291314973200,37.29197314453125,-0.6804589629173279,-12.144172668457031,-0.3478565812110901
1781604291363488800,37.34048876953125,3.2563323974609375,-7.0031938552856445,-1.5305092334747314
1781604291412004400,37.38900439453125,0.24167509377002716,-5.1442694664001465,-6.798008918762207
1781604291460520200,37.43752026367188,-1.7365909814834595,-15.90868091583252,-5.7756757736206055
1781604291509035800,37.48603588867188,-4.457230567932129,-5.155635356903076,1.41834557056427
1781604291557551400,37.53455126953125,-2.4834508895874023,-10.63370418548584,8.130212783813477
1781604291606067000,37.58306689453125,-6.348756790161133,-30.396026611328125,0.6122635006904602
1781604291654582800,37.63158276367187,-2.307279348373413,-2.304288148880005,-10.470992088317871
1781604291703098400,37.68009838867187,2.418844699859619,-3.13429856300354,-2.5887351036071777
1781604291751614000,37.72861401367187,0.3406781256198883,-6.423831462860107,0.9756734371185303
1781604291800129500,37.77712963867187,1.7536399364471436,-6.662515640258789,-1.2915260791778564
1781604291848645000,37.82564501953125,2.6240291595458984,-9.632308006286621,-3.714258909225464
1781604291897160700,37.87416064453125,0.5093721151351929,-16.54218101501465,0.3317050337791443
1781604291945676500,37.922676513671874,1.3211371898651123,-17.902799606323242,4.855037212371826
1781604291994192100,37.971192138671874,-3.2201411724090576,-8.255537033081055,-2.9312076568603516
1781604292042707700,38.019707763671875,-3.7660038471221924,-13.6175537109375,-4.835296154022217
1781604292091223300,38.068223388671875,0.6825526356697083,-10.475478172302246,4.4395833015441895
1781604292139739000,38.11673876953125,1.3142578601837158,-4.566402912139893,3.0975089073181152
1781604292188254500,38.16525439453125,-1.8756738901138306,-6.760322093963623,0.8491529226303101
1781604292236770300,38.213770263671876,-0.37148571014404297,-10.615159034729004,-0.6867401003837585
1781604292285286000,38.262285888671876,-0.1456630825996399,-10.009476661682129,-0.1094716340303421
1781604292333801500,38.310801513671876,4.512863636016846,-5.936892032623291,-2.202294111251831
1781604292382317000,38.35931713867188,-0.9245268702507019,-8.745766639709473,-7.4108710289001465
1781604292430832600,38.40783251953125,-1.3525429964065552,-13.817354202270508,-4.330410957336426
1781604292479348200,38.45634814453125,-4.299005031585693,-6.042176246643066,1.5032907724380493
1781604292527864000,38.50486401367188,-2.712862730026245,-11.148459434509277,7.885247707366943
1781604292576379600,38.55337963867188,-5.916851997375488,-28.249065399169922,-0.8045865893363953
1781604292624895000,38.60189501953125,-1.721037745475769,-1.7880367040634155,-9.677472114562988
1781604292673410800,38.65041088867188,2.173281192779541,-3.5048868656158447,-2.047358989715576
1781604292721926400,38.69892651367188,0.714257538318634,-6.434299945831299,1.8550357818603516
1781604292770442000,38.74744189453125,1.5272190570831299,-7.585546970367432,-0.610468864440918
1781604292818957600,38.79595751953125,1.8918254375457764,-10.232307434082031,-4.0558342933654785
1781604292867473200,38.84447314453125,1.3695918321609497,-15.421143531799316,-1.4934204816818237
1781604292915988700,38.89298876953125,1.2687941789627075,-17.235502243041992,2.825923442840576
1781604292964504600,38.94150463867187,-3.5721850395202637,-9.496515274047852,-0.597607433795929
1781604293013020200,38.99002026367187,-3.244966506958008,-11.692827224731445,-3.9840497970581055
1781604293061535700,39.03853564453125,-0.11635100096464157,-12.089437484741211,3.2656047344207764
1781604293110051300,39.08705126953125,1.8640087842941284,-5.1667022705078125,2.6551358699798584
1781604293158567000,39.13556689453125,-2.202294111251831,-6.151648044586182,0.8632107973098755
1781604293207082500,39.18408251953125,-0.1902294009923935,-10.729117393493652,-0.26530420780181885
1781604293255598300,39.232598388671875,-0.46719861030578613,-9.788140296936035,-0.45194438099861145
1781604293304113700,39.28111376953125,3.975076675415039,-4.837689399719238,-2.6210381984710693
1781604293352629200,39.32962915039062,-1.6058831214904785,-9.723833084106445,-6.1669020652771
1781604293401145000,39.37814501953125,-0.08673982322216034,-13.736895561218262,-4.95074987411499
1781604293449660700,39.42666064453125,-4.339982032775879,-4.057330131530762,1.862214207649231
1781604293498176300,39.47517626953125,-3.842574119567871,-11.240283966064453,7.487142086029053
1781604293546691800,39.52369189453125,-5.676074504852295,-30.11427116394043,-0.1899302899837494
1781604293595207400,39.57220751953125,-1.688734531402588,-2.129014015197754,-9.79801082611084
1781604293643723000,39.620722900390625,2.3024935722351074,-3.5270206928253174,-1.4901303052902222
1781604293692238800,39.66923876953125,0.8584251403808594,-6.744170665740967,1.5412769317626953
1781604293740754200,39.717754150390626,1.6767704486846924,-7.268497943878174,-1.4988043308258057
1781604293789269800,39.766269775390626,2.1876380443573,-10.506585121154785,-5.371587753295898
1781604293837785600,39.81478564453125,1.937588095664978,-14.46880054473877,-0.1339980661869049
1781604293886301200,39.86330126953125,1.5696916580200195,-13.811372756958008,2.1714866161346436
1781604293934816800,39.91181665039063,-4.3085761070251465,-13.770395278930664,-0.37597227096557617
1781604293983332400,39.96033227539063,-2.4197418689727783,-10.683355331420898,-3.544069528579712
1781604294031848000,40.00884790039063,-0.6885347366333008,-12.120244979858398,3.022733211517334
1781604294080363500,40.05736352539063,1.848754644393921,-6.33798885345459,2.8414769172668457
1781604294128879000,40.10587915039063,-2.45204496383667,-5.913562297821045,2.2633111476898193
1781604294177394700,40.15439477539063,-0.009870393201708794,-10.305587768554688,0.9179465770721436
1781604294225910300,40.20291015625,0.004187439568340778,-9.67657470703125,-1.1889337301254272
1781604294274426000,40.25142602539062,3.921537160873413,-4.6749773025512695,-5.188836097717285
1781604294322941700,40.29994165039062,-1.5080764293670654,-10.438987731933594,-6.411269187927246
1781604294371457300,40.34845727539062,-1.5335001945495605,-12.119945526123047,-3.6445679664611816
1781604294419972900,40.39697290039062,-4.298107624053955,-5.551647663116455,2.761915445327759
1781604294468488400,40.44548852539062,-2.697608470916748,-15.135201454162598,8.594719886779785
1781604294517004000,40.49400415039062,-6.62632417678833,-26.05604362487793,-3.916452407836914
1781604294565519600,40.54251953125,-0.4549354016780853,-0.9900303483009338,-9.43489933013916
1781604294614035200,40.59103515625,2.3706889152526855,-4.972883701324463,-1.5197415351867676
1781604294662551000,40.639551025390624,0.3320041298866272,-6.558427810668945,1.5978072881698608
1781604294711066600,40.688066650390624,1.3692927360534668,-6.8243303298950195,-0.25363919138908386
1781604294759582200,40.736582275390624,1.8747764825820923,-10.374382019042969,-2.6045875549316406
1781604294808097800,40.785097900390625,1.4111671447753906,-15.362519264221191,-1.1285150051116943
1781604294856613400,40.83361328125,2.960519790649414,-12.73430347442627,-0.4815555512905121
1781604294905129000,40.88212890625,-5.048556804656982,-15.86441421508789,0.719641387462616
1781604294953644500,40.93064453125,-2.1975085735321045,-8.808279037475586,-2.7110681533813477
1781604295002160000,40.97916015625,-1.5071791410446167,-12.052647590637207,2.2671995162963867
1781604295050675700,41.02767578125,2.2244277000427246,-6.967600345611572,2.8136603832244873
1781604295099191300,41.07619140625,-2.2621147632598877,-4.184747695922852,1.9722840785980225
1781604295147707000,41.124706787109375,-0.2745763957500458,-10.267004013061523,0.22073788940906525
1781604295196222500,41.173222412109375,-0.7172485589981079,-10.943573951721191,-1.3046865463256836
1781604295244738300,41.22173828125,3.257229804992676,-5.638088226318359,-3.397209882736206
1781604295293254000,41.27025390625,-0.6562315821647644,-8.209176063537598,-6.682555675506592
1781604295341769500,41.31876953125,-2.399103879928589,-14.065908432006836,-5.410171985626221
1781604295390285000,41.36728515625,-3.596113443374634,-7.626523971557617,2.7951159477233887
1781604295438800600,41.41580053710938,-1.5418751239776611,-10.713265419006348,9.811769485473633
1781604295487316200,41.46431616210938,-7.637889862060547,-27.33470916748047,-1.5248262882232666
1781604295535831800,41.51283178710938,-1.074975609779358,-1.4533406496047974,-10.293923377990723
1781604295584347400,41.56134741210938,2.053041934967041,-4.377070903778076,-1.7222341299057007
1781604295632863000,41.60986303710938,0.9574281573295593,-6.420840263366699,1.4874383211135864
1781604295681378600,41.65837866210938,1.802094578742981,-6.650850772857666,-0.46002015471458435
1781604295729894100,41.70689404296875,1.43599271774292,-9.458528518676758,-4.156631946563721
1781604295778410000,41.75540991210938,-0.0891326442360878,-16.881362915039062,-1.8559330701828003
1781604295826925600,41.80392553710937,3.7372899055480957,-14.036297798156738,1.3848460912704468
1781604295875441200,41.85244116210937,-4.752145767211914,-13.58435344696045,1.1312068700790405
1781604295923956700,41.90095678710937,-2.623729944229126,-10.442277908325195,-3.61226487159729
1781604295972472300,41.94947241210937,-1.3609179258346558,-11.737991333007812,1.461416482925415
1781604296020988000,41.99798779296875,2.0368902683258057,-6.665207386016846,2.843271493911743
1781604296069503500,42.04650341796875,-2.0967109203338623,-4.468596458435059,2.084148406982422
1781604296118019000,42.09501904296875,-0.4298107624053955,-10.329216957092285,0.9708877801895142
1781604296166534700,42.14353466796875,-0.748056173324585,-10.971092224121094,-0.6771687865257263
1781604296215050200,42.19205029296875,4.088735580444336,-6.046064376831055,-2.292922258377075
1781604296263565800,42.24056591796875,-0.8309076428413391,-7.423433303833008,-7.315157890319824
1781604296312081400,42.28908129882812,-0.6921239495277405,-14.539388656616211,-6.185446739196777
1781604296360597000,42.33759692382812,-4.278964996337891,-3.747758388519287,2.430509567260742
1781604296409112600,42.38611254882812,-2.754138946533203,-12.177373886108398,8.92373275756836
1781604296457628400,42.43462841796875,-6.829713821411133,-31.099515914916992,-0.9649057388305664
1781604296506143700,42.483143798828124,-1.8481563329696655,-0.6664010882377625,-11.38235855102539
1781604296554659600,42.53165966796875,2.470888376235962,-4.218845367431641,-0.6885347366333008
1781604296603175200,42.580175048828124,0.7663014531135559,-6.553342819213867,2.954537868499756
1781604296651690800,42.628690673828125,1.5807584524154663,-6.602694988250732,-1.0307083129882812
1781604296700206300,42.677206298828125,2.3647069931030273,-10.004989624023438,-5.592624664306641
1781604296748722000,42.725721923828125,0.042771704494953156,-17.78764533996582,-2.1227328777313232
1781604296797237500,42.774237548828125,2.32761812210083,-17.316259384155273,5.502893924713135
1781604296845753000,42.822753173828126,-2.7667012214660645,-7.801199913024902,-1.3770694732666016
1781604296894268700,42.8712685546875,-3.490530014038086,-13.217353820800781,-5.214259624481201
1781604296942784300,42.9197841796875,0.12861421704292297,-10.893324851989746,4.070191383361816
1781604296991299800,42.9682998046875,1.8496519327163696,-5.275874614715576,2.3309082984924316
1781604297039815400,43.0168154296875,-2.29860520362854,-5.3904314041137695,1.1596217155456543
1781604297088331000,43.0653310546875,0.11844471842050552,-10.331609725952148,-1.3310075998306274
1781604297136846600,43.1138466796875,-1.2134602069854736,-10.039087295532227,-1.0202397108078003
1781604297185362200,43.162362060546876,2.733201742172241,-6.172883987426758,-1.1826525926589966
1781604297233878000,43.2108779296875,-0.45972105860710144,-8.399106979370117,-6.361020088195801
1781604297282393300,43.259393310546876,-0.3717848062515259,-15.201303482055664,-6.473781585693359
1781604297330909000,43.30790893554688,-4.038187503814697,-5.651248931884766,1.3992030620574951
1781604297379424800,43.3564248046875,-4.348955154418945,-8.519644737243652,8.355138778686523
1781604297427940400,43.4049404296875,-4.945066928863525,-29.028228759765625,1.9259231090545654
1781604297476456000,43.4534560546875,-2.6147570610046387,-5.106283664703369,-10.919346809387207
1781604297524971500,43.50197143554688,2.252244234085083,-2.1828525066375732,-2.3982064723968506
1781604297573487000,43.55048706054688,0.8371888399124146,-6.5991058349609375,2.0228323936462402
1781604297622002700,43.59900268554688,1.5176477432250977,-6.981060028076172,0.20518454909324646
1781604297670518300,43.64751831054687,1.72941255569458,-8.236693382263184,-2.9940192699432373
1781604297719033900,43.69603393554687,0.30957141518592834,-16.368701934814453,-4.494019985198975
1781604297767549400,43.74454956054687,3.4139597415924072,-15.905092239379883,0.6580262184143066
1781604297816065000,43.79306494140625,-2.6183462142944336,-12.608380317687988,1.9782661199569702
1781604297864580600,43.84158056640625,-3.7271203994750977,-11.072786331176758,-4.181158542633057
1781604297913096200,43.89009619140625,-1.714158296585083,-12.608380317687988,1.3268201351165771
1781604297961611800,43.93861181640625,1.4626128673553467,-6.139384746551514,2.105085611343384
1781604298010127400,43.98712744140625,-1.6588243246078491,-3.6909289360046387,1.8454644680023193
1781604298058643000,44.03564282226562,-0.2315055876970291,-9.701101303100586,0.14356936514377594
1781604298107158500,44.08415844726562,-1.379163146018982,-10.791929244995117,-1.194915771484375
1781604298155674000,44.13267407226562,2.0144574642181396,-7.603792190551758,-0.8153542876243591
1781604298204189700,44.18118969726562,1.3525429964065552,-5.219045162200928,-5.6330037117004395
1781604298252705300,44.22970532226562,-1.4817553758621216,-15.812968254089355,-6.295516490936279
1781604298301220900,44.27822094726562,-4.085744857788086,-7.400701522827148,0.12891331315040588
1781604298349736400,44.326736328125,-3.3122646808624268,-6.912266254425049,7.430312633514404
1781604298398252000,44.375251953125,-4.222733974456787,-25.65285301208496,5.303691387176514
1781604298446767600,44.423767578125,-5.710471153259277,-13.207184791564941,-10.107582092285156
1781604298495283200,44.472283203125,2.5800609588623047,0.39960137009620667,-4.150051593780518
1781604298543798800,44.520798828125,0.854536771774292,-6.22702169418335,2.1266210079193115
1781604298592314400,44.569314453125,1.280758261680603,-5.708975791931152,-0.6577271223068237
1781604298640830200,44.617830322265625,1.9061822891235352,-8.246563911437988,-2.9608190059661865
1781604298689345500,44.666345458984374,1.1578270196914673,-15.190535545349121,-5.248955726623535
1781604298737861000,44.714861083984374,1.831107497215271,-15.941283226013184,3.232105255126953
1781604298786377000,44.763376953125,-0.4941178858280182,-13.895719528198242,2.9377880096435547
1781604298834892300,44.811892333984375,-3.7716867923736572,-9.6795654296875,-6.001797199249268
1781604298883408100,44.860408203125,-1.8424733877182007,-13.69621753692627,0.5611169338226318
1781604298931923700,44.908923828125,1.6381862163543701,-8.260622024536133,2.7260231971740723
1781604298980439000,44.95743896484375,-0.6879364848136902,-4.208376884460449,1.92951238155365
1781604299028955000,45.005954833984376,-0.9675976634025574,-7.820940971374512,0.6203392744064331
1781604299077470200,45.05447021484375,-1.1027921438217163,-9.276374816894531,-0.8988040089607239
1781604299125985800,45.10298583984375,0.1052841991186142,-9.184849739074707,-0.39930227398872375
1781604299174501600,45.15150170898438,1.2352946996688843,-5.556732177734375,-4.444967269897461
1781604299223017000,45.200016845703125,-0.8093722462654114,-14.032110214233398,-5.646463394165039
1781604299271532800,45.24853271484375,-2.5286152362823486,-9.277871131896973,-1.846361756324768
1781604299320048400,45.29704833984375,-4.573282241821289,-6.307779788970947,4.752444744110107
1781604299368564000,45.34556396484375,-4.133601188659668,-18.68644905090332,6.479763507843018
1781604299417079600,45.39407958984375,-5.4673004150390625,-20.267805099487305,-5.155934810638428
1781604299465595100,45.44259521484375,1.7955143451690674,0.5688936114311218,-5.60608434677124
1781604299514110700,45.49111083984375,0.8225327730178833,-6.302395820617676,-0.6317051649093628
1781604299562626300,45.53962622070313,0.8727820515632629,-5.989833354949951,0.04576273262500763
1781604299611142000,45.58814184570313,1.495813250541687,-7.581359386444092,-1.0220344066619873
1781604299659657500,45.63665747070313,1.6890336275100708,-12.627523422241211,-4.465904235839844
1781604299708173000,45.68517309570313,1.9037895202636719,-14.61506175994873,-0.5464608669281006
1781604299756688600,45.73368872070313,1.3058829307556152,-16.426128387451172,1.350150227546692
1781604299805204200,45.78220434570313,-3.4917263984680176,-9.882657051086426,0.5910272002220154
1781604299853719800,45.8307197265625,-2.057528257369995,-11.455039978027344,-2.628814697265625
1781604299902235400,45.8792353515625,-0.3089732229709625,-11.18913745880127,1.8394824266433716
1781604299950751000,45.9277509765625,1.1327024698257446,-6.43459939956665,0.8404789566993713
1781604299999266600,45.9762666015625,-3.2192437648773193,-5.158327579498291,1.139880895614624
1781604300047782100,46.0247822265625,-0.10289137065410614,-8.65753173828125,-2.0404794216156006
1781604300096297700,46.07329760742188,-1.4249259233474731,-9.413962364196777,0.12741780281066895
1781604300144813300,46.12181323242187,2.323729991912842,-8.384450912475586,-0.8117650747299194
1781604300193329000,46.17032885742187,-1.012762188911438,-8.5764741897583,-2.715853691101074
1781604300241844500,46.21884448242187,-1.4327025413513184,-13.182060241699219,-3.559921979904175
1781604300290360000,46.26736010742187,-4.670191764831543,-7.452147006988525,1.8287147283554077
1781604300338875600,46.31587573242187,-3.8162529468536377,-10.341779708862305,6.534798622131348
1781604300387391200,46.36439111328125,-4.191627025604248,-22.68425750732422,-1.9148563146591187
1781604300435906800,46.41290673828125,-1.7578272819519043,-6.26440954208374,-5.452345371246338
1781604300484422400,46.46142236328125,1.2191431522369385,-5.514558792114258,0.13130614161491394
1781604300532938000,46.50993798828125,0.09092725813388824,-6.402894496917725,0.24047867953777313
1781604300581453600,46.55845361328125,1.2113664150238037,-9.358628273010254,-1.3384851217269897
1781604300629969200,46.60696923828125,1.2134602069854736,-11.955140113830566,-2.489133834838867
1781604300678484700,46.65548461914062,0.6302096843719482,-12.308679580688477,-2.4502503871917725
1781604300727000300,46.70400024414062,1.729711651802063,-15.047863006591797,-1.729711651802063
1781604300775516000,46.75251586914062,-3.7944185733795166,-14.972489356994629,-3.5748770236968994
1781604300824031500,46.801031494140624,-4.245166301727295,-13.249358177185059,-3.4842488765716553
1781604300872547000,46.849547119140624,-1.8439689874649048,-10.970194816589355,-0.36311084032058716
1781604300921062700,46.898062744140624,-2.400001049041748,-11.70867919921875,-4.000201225280762
1781604300969578200,46.946578125,-2.288435697555542,-7.088139057159424,0.8748757839202881
1781604301018093800,46.99509375,-4.873880386352539,-2.914158821105957,1.1422736644744873
1781604301066609400,47.043609375,-2.9006991386413574,-1.4539388418197632,4.1608195304870605
1781604301115125000,47.092125,2.095215320587158,-5.259125232696533,0.626022219657898
1781604301163640600,47.140640625,9.652647018432617,-11.423933982849121,-5.582455158233643
1781604301212156200,47.18915625,10.982158660888672,-13.496716499328613,-9.18724250793457
1781604301260671700,47.237671630859374,8.239983558654785,-15.064911842346191,-9.173783302307129
1781604301309187300,47.286187255859375,3.972683906555176,-15.068800926208496,-7.197012424468994
1781604301357703000,47.334702880859375,-0.8228318691253662,-11.616556167602539,-6.148955821990967
1781604301406218800,47.38321875,-1.6064813137054443,-11.055139541625977,-5.311468124389648
1781604301454734000,47.431734130859375,-2.5800609588623047,-9.467501640319824,-4.8233323097229
1781604301503249700,47.480249755859376,-2.8187451362609863,-8.201997756958008,-3.550649642944336
1781604301551765500,47.528765625,-4.673780918121338,-7.323832035064697,-3.6047873497009277
1781604301600281000,47.577281005859376,2.978466033935547,-7.980661869049072,-1.770688772201538
1781604301648796700,47.62579663085938,0.7441678643226624,-9.525228500366211,-1.7282161712646484
1781604301697312300,47.67431225585938,3.124129056930542,-10.990234375,-1.2652050256729126
1781604301745827800,47.72282788085938,5.553741455078125,-15.238691329956055,-2.0715861320495605
1781604301794343400,47.77134350585938,6.247061729431152,-15.260226249694824,-6.340381622314453
1781604301842859000,47.81985888671875,4.077369689941406,-13.091133117675781,-7.671987533569336
1781604301891374600,47.86837451171875,2.743969440460205,-9.19143009185791,-5.565406322479248
1781604301939890200,47.91689013671875,-5.058426856994629,-5.767300605773926,-2.18045973777771
1781604301988405800,47.96540576171875,-3.8682968616485596,-4.596312999725342,0.8482556343078613
1781604302036921300,48.01392138671875,-0.7262216806411743,-4.792225360870361,-2.733799934387207
1781604302085437000,48.06243701171875,2.172683000564575,-2.4089741706848145,-0.857228696346283
1781604302133952500,48.11095239257813,-0.6858428120613098,-2.7116663455963135,-1.1509476900100708
1781604302182468000,48.15946801757813,1.1673983335494995,-5.391627788543701,-0.271286278963089
1781604302230983700,48.20798364257813,2.134995937347412,-19.14676856994629,-5.533701419830322
1781604302279499300,48.25649926757813,1.8418751955032349,-22.05793571472168,-6.381359100341797
1781604302328014800,48.30501489257812,-1.2137593030929565,-13.919049263000488,-7.198208808898926
1781604302376530400,48.35353051757812,-2.9377880096435547,-8.233104705810547,-4.5338006019592285
1781604302425046000,48.4020458984375,0.5850451588630676,-3.4654054641723633,-5.9060845375061035
1781604302473561600,48.4505615234375,-0.4223332107067108,-1.4826527833938599,-8.462815284729004
1781604302522077200,48.4990771484375,-1.2601202726364136,-5.597410202026367,-2.846860647201538
1781604302570592800,48.5475927734375,0.49710890650749207,-9.675976753234863,-1.1802598237991333
1781604302619108400,48.5961083984375,1.7808582782745361,-12.815360069274902,-2.6264219284057617
1781604302667624000,48.6446240234375,2.5199413299560547,-16.091135025024414,-0.7692924737930298
1781604302716139800,48.693139892578124,0.9604191780090332,-10.613663673400879,-1.750050663948059
1781604302764655000,48.74165502929687,-0.9523434042930603,-7.3935227394104,-4.307379722595215
1781604302813170700,48.79017065429687,-1.2924233675003052,-7.316354274749756,-7.583752155303955
1781604302861686500,48.8386865234375,-6.8554368019104,2.0793628692626953,-6.266204357147217
1781604302910202000,48.8872021484375,0.6391827464103699,-5.402395248413086,-6.476772785186768
1781604302958717700,48.9357177734375,1.163809061050415,-17.70449447631836,-7.653443336486816
1781604303007233300,48.9842333984375,-0.9538389444351196,-14.676377296447754,-0.4289134442806244
1781604303055748900,49.032748779296874,1.7778671979904175,-11.415558815002441,-5.595017433166504
1781604303104264400,49.081264404296874,3.438486099243164,-10.835299491882324,-3.1334011554718018
1781604303152780000,49.129780029296874,-0.9705886840820312,-4.23230504989624,-9.427123069763184
1781604303201295600,49.178295654296875,2.809173822402954,-5.701498031616211,-9.220144271850586
1781604303249811500,49.2268115234375,7.420741081237793,-8.650651931762695,-6.489335060119629
1781604303298327000,49.2753271484375,-1.3609179258346558,-8.757730484008789,3.4510483741760254
1781604303346842400,49.32384228515625,-2.1720848083496094,-6.4716877937316895,-10.769197463989258
1781604303395358200,49.372358154296876,-1.272383451461792,-6.288038730621338,-12.20937728881836
1781604303443873800,49.420873779296876,1.5272190570831299,-6.245865345001221,-7.920841217041016
1781604303492389400,49.46938940429688,-1.6776677370071411,-3.553640842437744,-0.8742775917053223
1781604303540905000,49.51790502929688,0.5665007829666138,1.0049854516983032,-6.020939826965332
1781604303589420500,49.56642065429688,1.184746265411377,0.2763710021972656,-8.868398666381836
1781604303637936000,49.61493603515625,0.7399803996086121,-5.341677665710449,-10.125528335571289
1781604303686452000,49.66345190429688,1.6304094791412354,-9.358927726745605,-9.594022750854492
1781604303734967600,49.71196752929688,0.8635098934173584,-12.132806777954102,-6.462714672088623
1781604303783483100,49.76048315429688,-0.791725218296051,-14.838191986083984,-6.242575168609619
1781604303831998700,49.80899877929688,-4.948058128356934,-6.522834300994873,-7.0097737312316895
1781604303880514300,49.85751440429687,-1.6983058452606201,-2.3084757328033447,-9.147761344909668
1781604303929030000,49.90602978515625,-0.7905287742614746,-7.139285564422607,-5.843871116638184
1781604303977545700,49.95454565429687,0.13668999075889587,-10.908878326416016,4.681557655334473
1781604304026061300,50.00306127929687,2.879462957382202,-15.638591766357422,3.253640651702881
1781604304074577000,50.05157690429687,-0.4217349886894226,-6.370890140533447,-1.3701900243759155
1781604304123092500,50.10009252929687,1.8598214387893677,-6.506383895874023,1.2164511680603027
1781604304171608300,50.1486083984375,2.293520450592041,-4.166801452636719,1.750349760055542
1781604304220124000,50.1971240234375,2.801696300506592,-19.085752487182617,1.5176477432250977
1781604304268639500,50.245639404296874,1.906481385231018,-22.463220596313477,0.6170491576194763
1781604304317155300,50.2941552734375,-0.7534400224685669,-7.290332317352295,-5.121238708496094
1781604304365671000,50.3426708984375,-2.517249345779419,-7.199704170227051,0.5805585980415344
1781604304414186500,50.3911865234375,-0.9544371366500854,-13.453645706176758,-5.1218366622924805
1781604304462702300,50.43970239257813,0.23988047242164612,-7.199704170227051,-1.9028922319412231
1781604304511218000,50.48821801757813,-1.49611234664917,-2.6087749004364014,-1.852044701576233
1781604304559733500,50.5367333984375,-0.8027920126914978,-9.62483024597168,-1.1925230026245117
1781604304608249300,50.58524926757813,-1.709073543548584,-12.062518119812012,-1.8687944412231445
1781604304656765000,50.63376489257813,2.182553291320801,-8.393424034118652,1.7168502807617188
1781604304705280500,50.68228051757813,2.8977081775665283,-6.171987056732178,7.0669026374816895
1781604304753796400,50.73079638671875,-3.2766714096069336,-13.860424995422363,2.550748825073242
1781604304802312200,50.779312255859374,-3.7342989444732666,-10.28195858001709,-6.2638115882873535
1781604304850827800,50.827827880859374,-0.42323049902915955,-8.6033935546875,-7.862216949462891
1781604304899343400,50.87634326171875,-7.010372161865234,-25.88106918334961,-0.857228696346283
1781604304947859200,50.924859130859375,-1.1665010452270508,-7.821239948272705,6.657131671905518
1781604304996374800,50.973374755859375,1.7673985958099365,-3.5024940967559814,0.6717849373817444
1781604305044890600,51.021890625,0.8994022011756897,-5.080859661102295,-2.0273189544677734
1781604305093406200,51.07040625,0.4450650215148926,-6.4947190284729,0.98703932762146
1781604305141922000,51.11892211914063,0.268594354391098,-9.629316329956055,3.2440693378448486
1781604305190437600,51.16743774414063,1.1261221170425415,-13.122239112854004,1.205384373664856
1781604305238953500,51.21595336914063,0.16360925137996674,-17.439189910888672,-5.642873764038086
1781604305287469000,51.26446899414063,-1.3301103115081787,-10.26341438293457,0.9263214468955994
1781604305335985000,51.31298486328125,-1.2903295755386353,-11.975179672241211,0.39870408177375793
1781604305384500500,51.36150048828125,0.32931220531463623,-11.367403030395508,-5.377569675445557
1781604305433016300,51.410016357421874,0.45254257321357727,-5.347360610961914,-0.675075113773346
1781604305481532200,51.4585322265625,-0.7758727669715881,-6.261717796325684,-1.3214362859725952
1781604305530047700,51.5070478515625,-0.33110684156417847,-10.1243314743042,-0.07926224917173386
1781604305578563600,51.5555634765625,-1.2170493602752686,-9.979267120361328,0.27846473455429077
1781604305627079200,51.6040791015625,-0.2754737138748169,-8.936295509338379,-0.25244277715682983
1781604305675595000,51.65259497070313,3.3720853328704834,-6.734001159667969,3.4570305347442627
1781604305724110800,51.70111083984375,-0.7977072596549988,-12.611969947814941,4.406980991363525
1781604305772626400,51.74962646484375,-3.7639100551605225,-10.875977516174316,-1.9522441625595093
1781604305821142300,51.79814233398437,-2.0961127281188965,-5.446064472198486,-5.211268424987793
1781604305869658000,51.846658203125,-3.580260992050171,-20.70928192138672,-6.858428001403809
1781604305918174000,51.895174072265625,-5.011168956756592,-19.286149978637695,3.58115816116333
1781604305966689800,51.943689697265626,1.4527424573898315,-1.3953146934509277,6.326323986053467
1781604306015205400,51.992205322265626,1.394716501235962,-6.015556335449219,-0.7863413691520691
1781604306063721200,52.04072119140625,0.906281590461731,-5.570491313934326,-0.41096729040145874
1781604306112237000,52.08923706054688,1.3178470134735107,-6.302694797515869,1.9121644496917725
1781604306160753000,52.1377529296875,-0.19591236114501953,-13.09382438659668,2.0365912914276123
1781604306209268500,52.1862685546875,4.4243292808532715,-12.071191787719727,-3.5386855602264404
1781604306257784300,52.234784423828124,-3.6553356647491455,-18.817157745361328,-2.499901533126831
1781604306306300200,52.283300048828124,-1.3884353637695312,-9.490532875061035,1.7353945970535278
1781604306354816000,52.33181591796875,-0.46450668573379517,-13.909478187561035,-3.375973701477051
1781604306403331800,52.38033178710938,0.048454657196998596,-8.136195182800293,-3.3541390895843506
1781604306451847700,52.42884765625,-0.8593224287033081,-2.3024935722351074,-3.9879379272460938
1781604306500363300,52.47736328125,-0.49680981040000916,-6.347560405731201,-1.3091731071472168
1781604306548879000,52.52587915039062,-2.571686029434204,-12.63769245147705,-0.29431718587875366
1781604306597395000,52.57439501953125,1.4476577043533325,-9.415757179260254,0.5662016868591309
1781604306645910800,52.622910888671875,5.281857013702393,-5.052145957946777,5.32403039932251
1781604306694426600,52.671426513671875,-1.0609177350997925,-16.249059677124023,6.699604511260986
1781604306742942500,52.7199423828125,-3.8673996925354004,-8.862417221069336,-0.5778666734695435
1781604306791458300,52.76845825195313,-1.83828604221344,-4.6785664558410645,-7.046862602233887
1781604306839974100,52.81697412109375,-4.741078853607178,-26.229225158691406,-9.263215065002441
1781604306888490000,52.86548999023437,-5.687739372253418,-16.925033569335938,7.23170804977417
1781604306937005800,52.914005859375,2.347957134246826,-0.8703892230987549,5.628517150878906
1781604306985521700,52.962521728515625,2.0165512561798096,-5.581557750701904,-2.8064818382263184
1781604307034037500,53.01103759765625,0.5865406394004822,-4.346263408660889,0.07507480680942535
1781604307082553300,53.05955322265625,2.0919251441955566,-7.034300327301025,1.9956140518188477
1781604307131069200,53.10806909179688,-0.22821545600891113,-14.53908920288086,1.7880367040634155
1781604307179585000,53.1565849609375,4.893920421600342,-10.118947982788086,-4.11924409866333
1781604307228101000,53.20510107421875,-4.022335052490234,-16.99173355102539,-0.6532405614852905
1781604307276617000,53.253616943359376,-1.5981063842773438,-12.987045288085938,0.7677969932556152
1781604307325132800,53.3021328125,-0.5964110493659973,-10.321440696716309,-0.4941178858280182
1781604307373648600,53.35064868164063,-0.48394837975502014,-9.88086223602295,-4.518247127532959
1781604307422164500,53.39916455078125,-0.6586244106292725,-4.087539196014404,-5.027918815612793
1781604307470680300,53.44768041992187,-0.7636095285415649,-5.78434944152832,-2.9231319427490234
1781604307519196200,53.496196044921874,-0.7591229677200317,-12.233006477355957,-1.1162517070770264
1781604307567712300,53.544712158203126,0.5910272002220154,-8.985347747802734,1.6716856956481934
1781604307616228000,53.59322802734375,4.969294548034668,-4.967200756072998,6.730412006378174
1781604307664744000,53.64174389648438,-0.010767702013254166,-15.902101516723633,6.86680269241333
1781604307713259800,53.690259765625,-4.852046012878418,-9.236295700073242,-1.0761719942092896
1781604307761775600,53.738775634765624,-1.750349760055542,-5.384748458862305,-8.546265602111816
1781604307810291700,53.787291748046876,-3.1253254413604736,-25.622943878173828,-6.771090030670166
1781604307858807600,53.8358076171875,-5.91924524307251,-17.679370880126953,7.673183917999268
1781604307907323600,53.88432373046875,1.648953914642334,-0.03888336941599846,6.143871307373047
1781604307955839200,53.93283911132813,2.103590250015259,-5.083252429962158,-2.3309082984924316
1781604308004355300,53.98135522460937,1.2320045232772827,-4.778466701507568,0.28893333673477173
1781604308052871200,54.02987109375,1.0214362144470215,-7.258328437805176,2.028515338897705
1781604308101387300,54.07838720703125,0.27816563844680786,-14.41466236114502,0.7926225066184998
1781604308149903000,54.12690307617188,3.4121651649475098,-10.10578727722168,-2.6111676692962646
1781604308198419000,54.1754189453125,-2.968595504760742,-18.312570571899414,-1.8969101905822754
1781604308246935000,54.22393505859375,-1.5140584707260132,-11.013863563537598,2.1705892086029053
1781604308295451000,54.272450927734376,-0.9469595551490784,-14.21575927734375,-2.4095723628997803
1781604308343967000,54.32096704101563,-0.4181457459926605,-7.4506516456604,-4.447659015655518
1781604308392482800,54.36948291015625,-0.6074778437614441,-3.4989049434661865,-5.353342533111572
1781604308440998700,54.41799853515625,0.13220344483852386,-7.458128929138184,-2.3270199298858643
1781604308489514800,54.4665146484375,-0.3358924686908722,-12.253345489501953,-0.06191428750753403
1781604308538030600,54.515030517578126,0.9442676305770874,-7.950751304626465,2.418844699859619
1781604308586546700,54.56354663085938,4.449453830718994,-5.18105936050415,5.665306568145752
1781604308635062500,54.6120625,0.3209373354911804,-15.378670692443848,8.261519432067871
1781604308683578600,54.66057861328125,-4.308277130126953,-10.052547454833984,0.16360925137996674
1781604308732094500,54.709094482421875,-1.7027924060821533,-4.904688358306885,-8.92492961883545
1781604308780610600,54.75761059570313,-3.342175006866455,-24.048465728759766,-7.6977105140686035
1781604308829126400,54.80612646484375,-5.748157978057861,-19.27538299560547,8.946166038513184
1781604308877642500,54.854642578125,2.179263114929199,-0.6607181429862976,5.6309099197387695
1781604308926158300,54.903158447265625,2.0452651977539062,-6.6984076499938965,-2.485544443130493
1781604308974674400,54.95167431640625,0.7794619798660278,-3.864408493041992,-0.5952146053314209
1781604309023190300,55.00019018554688,1.48055899143219,-5.783751487731934,1.6534404754638672
1781604309071706400,55.04870629882812,0.0014955141814425588,-14.43051528930664,1.6471593379974365
1781604309120222500,55.097222412109375,4.222733974456787,-10.398907661437988,-2.5109682083129883
1781604309168738300,55.14573828125,-3.768695592880249,-15.848262786865234,2.234896421432495
1781604309217254400,55.19425439453125,-0.47706902027130127,-12.206686019897461,-1.1635099649429321
1781604309265770500,55.2427705078125,-1.098903775215149,-11.356037139892578,-0.4366901218891144
1781604309314286300,55.291286376953124,-0.9397810697555542,-13.162917137145996,-3.7848472595214844
1781604309362802400,55.339802490234376,-0.3484548032283783,-5.059922695159912,-4.176671981811523
1781604309411318300,55.388318359375,-0.4612165689468384,-5.183751106262207,-3.4250264167785645
1781604309459834400,55.43683447265625,-0.14895321428775787,-10.559526443481445,-1.4051851034164429
1781604309508350500,55.4853505859375,-0.6454638838768005,-10.74437141418457,2.488236427307129
1781604309556866300,55.5338662109375,3.9732820987701416,-4.8436713218688965,4.275076866149902
1781604309605382400,55.58238232421875,2.468794822692871,-10.557432174682617,6.912864685058594
1781604309653898500,55.6308984375,-2.2360928058624268,-15.992429733276367,4.037589073181152
1781604309702414300,55.67941430664062,-3.9810585975646973,-4.7264227867126465,-4.328616142272949
1781604309750930400,55.727930419921876,-0.016749758273363113,-10.604690551757812,-10.993524551391602
1781604309799446500,55.77644653320313,-7.81555700302124,-31.119853973388672,1.0561320781707764
1781604309847962400,55.82496240234375,-0.8297112584114075,-1.9878374338150024,9.272486686706543
1781604309896478500,55.873478515625,2.498405933380127,-4.799104690551758,-0.2748754918575287
1781604309944994600,55.92199462890625,1.7596219778060913,-5.953043460845947,-2.3590240478515625
1781604309993510700,55.9705107421875,0.9047860503196716,-5.254040241241455,2.3443679809570312
1781604310042026800,56.01902685546875,1.3456636667251587,-9.48365306854248,5.13739013671875
1781604310090542600,56.06754248046875,0.8805587291717529,-16.794923782348633,-2.0970098972320557
1781604310139058700,56.11605859375,-0.0526420995593071,-14.1918306350708,-3.1896326541900635
1781604310187574800,56.16457470703125,-0.16899310052394867,-10.334601402282715,0.6370890140533447
1781604310236091000,56.2130908203125,-2.0027925968170166,-12.988839149475098,4.231108665466309
1781604310284607000,56.26160693359375,-0.05593222752213478,-12.246466636657715,-3.533301830291748
1781604310333122800,56.31012280273438,-0.026919255033135414,-5.035994529724121,-4.456333160400391
1781604310381639000,56.35863891601562,-0.9457631707191467,-3.5584263801574707,-4.465904235839844
1781604310430155000,56.407155029296874,0.08195417374372482,-10.094720840454102,-0.8739784955978394
1781604310478671000,56.455671142578126,-1.4001003503799438,-13.186247825622559,0.9966106414794922
1781604310527187000,56.50418701171875,3.129213809967041,-5.731109142303467,2.2310080528259277
1781604310575703000,56.552703125,3.6768710613250732,-6.674180507659912,7.3914289474487305
1781604310624219100,56.60121923828125,-1.4063814878463745,-16.553546905517578,5.659923076629639
1781604310672735200,56.6497353515625,-4.733900547027588,-4.83469820022583,-2.9790642261505127
1781604310721251300,56.69825122070313,-0.7336992621421814,-9.123832702636719,-9.483952522277832
1781604310769767400,56.74676733398437,-5.803193092346191,-32.74009323120117,-5.207978248596191
1781604310818283500,56.795283447265625,-2.5633113384246826,-7.251150131225586,10.173384666442871
1781604310866799400,56.84379931640625,1.862214207649231,-3.0131618976593018,4.031308174133301
1781604310915315500,56.8923154296875,2.1260228157043457,-4.484747886657715,-2.6727828979492188
1781604310963831600,56.94083154296875,0.771087110042572,-3.2162528038024902,1.031306505203247
1781604311012347600,56.98934765625,1.5152549743652344,-8.174480438232422,4.378267288208008
1781604311060863700,57.03786376953125,0.5778666734695435,-18.953847885131836,-1.4249259233474731
1781604311109379800,57.0863798828125,1.9782661199569702,-10.009775161743164,-0.3281157910823822
1781604311157896000,57.13489599609375,-2.1155543327331543,-17.270496368408203,-2.2250258922576904
1781604311206412000,57.183412109375,-1.5861423015594482,-8.035696983337402,3.608675718307495
1781604311254928100,57.23192822265625,-0.6146563291549683,-13.263116836547852,-2.9521448612213135
1781604311303444200,57.2804443359375,-0.2548356056213379,-7.915457248687744,-4.457230567932129
1781604311351960000,57.3289599609375,-1.0710872411727905,-3.459423303604126,-4.304089546203613
1781604311400476400,57.37747631835938,0.5506483316421509,-9.92243766784668,-0.3568296730518341
1781604311448992300,57.4259921875,-1.1482558250427246,-12.234501838684082,0.7459624409675598
1781604311497508600,57.474508544921875,2.106581211090088,-6.264110565185547,1.7434704303741455
1781604311546024400,57.5230244140625,4.429413795471191,-6.017350673675537,5.729613780975342
1781604311594540500,57.57154052734375,-0.5665007829666138,-17.463716506958008,7.514061450958252
1781604311643056600,57.620056640625,-4.715056896209717,-8.87946605682373,0.34576287865638733
1781604311691572700,57.66857275390625,-1.4530415534973145,-3.877269983291626,-8.533403396606445
1781604311740088800,57.7170888671875,-3.8877387046813965,-24.13311195373535,-6.483951091766357
1781604311788605000,57.76560498046875,-6.407081604003906,-18.146568298339844,7.807481288909912
1781604311837121000,57.81412109375,1.831107497215271,-0.4462614357471466,5.851647853851318
1781604311885637400,57.86263745117188,2.2031915187835693,-6.034997940063477,-1.8936200141906738
1781604311934153200,57.9111533203125,0.7510471940040588,-5.227719306945801,0.2925225794315338
1781604311982669600,57.959669677734375,1.6372889280319214,-6.604788780212402,2.172683000564575
1781604312031185400,58.008185302734375,-0.017946170642971992,-12.629916191101074,3.6182470321655273
1781604312079701800,58.05670166015625,3.3553354740142822,-13.423436164855957,-3.0152556896209717
1781604312128217900,58.1052177734375,-1.8418751955032349,-16.829618453979492,0.34307095408439636
1781604312176734000,58.15373388671875,-2.3473589420318604,-9.956235885620117,1.2143574953079224
1781604312225250000,58.20225,-0.3798605799674988,-12.433405876159668,0.24287149310112
1781604312273766100,58.25076611328125,-0.20039889216423035,-9.544072151184082,-3.336193084716797
1781604312322282200,58.2992822265625,-0.5213362574577332,-4.285844326019287,-4.78385066986084
1781604312370798300,58.34779833984375,-0.9038887619972229,-5.152644634246826,-3.306581735610962
1781604312419314400,58.396314453125,-0.367597371339798,-12.746865272521973,1.2924233675003052
1781604312467830500,58.44483056640625,-1.2203395366668701,-11.499008178710938,2.5181467533111572
1781604312516346600,58.4933466796875,5.315954685211182,-3.627519130706787,3.58534574508667
1781604312564862700,58.54186279296875,1.4294124841690063,-10.228718757629395,7.287042140960693
1781604312613378800,58.59037890625,-4.189234256744385,-13.662419319152832,2.7385854721069336
1781604312661895000,58.63889501953125,-3.342175006866455,-6.56919527053833,-5.8713884353637695
1781604312710411000,58.68741088867188,-0.7136593461036682,-20.806190490722656,-11.623734474182129
1781604312758927400,58.73592724609375,-8.063214302062988,-21.588943481445312,7.000202655792236
1781604312807443200,58.784443115234374,1.4889339208602905,0.8614161610603333,8.223832130432129
1781604312855959600,58.83295947265625,2.589632272720337,-4.988437175750732,-2.0446670055389404
1781604312904475600,58.8814755859375,1.3061820268630981,-5.072783946990967,-1.1614162921905518
1781604312952991700,58.92999169921875,0.9038887619972229,-6.954140663146973,2.710469961166382
1781604313001507800,58.9785078125,-0.39481574296951294,-14.332110404968262,4.997110843658447
1781604313050024000,59.02702392578125,3.0011978149414062,-13.2568359375,-4.929513931274414
1781604313098540000,59.0755400390625,-2.2654049396514893,-17.769399642944336,-3.182753324508667
1781604313147056000,59.12405615234375,-1.7042878866195679,-7.942675590515137,3.951148271560669
1781604313195572500,59.17257250976562,0.03469592705368996,-14.223535537719727,-0.17736798524856567
1781604313244088600,59.221088623046874,-0.2874378263950348,-8.531010627746582,-4.076472282409668
1781604313292604700,59.26960473632813,-0.6125625967979431,-3.5060834884643555,-4.5391845703125
1781604313341120800,59.31812084960937,0.597607433795929,-6.681358814239502,-0.22492532432079315
1781604313389636900,59.366636962890624,-1.2999008893966675,-12.336795806884766,1.6974085569381714
1781604313438153200,59.4151533203125,-0.7600203156471252,-9.345169067382812,0.8321040868759155
1781604313486669300,59.46366943359375,5.761318683624268,-3.3816566467285156,3.1076784133911133
1781604313535185400,59.51218530273437,1.8293129205703735,-13.886148452758789,8.815457344055176
1781604313583701500,59.560701416015625,-2.516651153564453,-14.3027982711792,3.2620155811309814
1781604313632217600,59.60921752929688,-2.865704298019409,-3.018246650695801,-5.011168956756592
1781604313680733700,59.65773364257812,-1.76051926612854,-17.076377868652344,-11.6787691116333
1781604313729249800,59.706249755859375,-7.931010723114014,-29.82294464111328,5.261219024658203
1781604313777766100,59.75476611328125,0.9951151013374329,0.745364248752594,9.189037322998047
1781604313826282200,59.8032822265625,2.630908489227295,-5.347659587860107,-0.11216355860233307
1781604313874798300,59.85179833984375,1.332203984260559,-4.191627025604248,-2.418844699859619
1781604313923314400,59.900314453125,1.552642822265625,-4.916652202606201,0.50129634141922
1781604314020347000,59.997346923828125,0.7959126234054565,-14.630016326904297,-1.5436697006225586
1781604314068863000,60.04586303710938,0.31046873331069946,-18.664913177490234,-3.5437703132629395
1781604314117379000,60.09437915039062,-1.80717933177948,-7.382755279541016,4.742574691772461
1781604314165895200,60.142895263671875,-1.3546366691589355,-12.52463150024414,2.673680305480957
1781604314214411500,60.19141162109375,-0.1983051747083664,-12.54975700378418,-3.7423746585845947
1781604314262927600,60.239927734375,-0.25064817070961,-4.082753658294678,-4.290929317474365
1781604314311443700,60.288443603515624,-1.170987606048584,-4.671388149261475,-2.7209384441375732
1781604314359959800,60.336959716796876,0.050847481936216354,-11.877971649169922,0.018544375896453857
1781604314408476000,60.38547583007813,-1.0202397108078003,-10.805388450622559,-0.40378883481025696
1781604314456992300,60.4339921875,5.97936487197876,-3.1208388805389404,2.548356056213379
1781604314505508400,60.48250830078125,2.507977247238159,-11.078768730163574,10.584053039550781
1781604314554024400,60.5310244140625,-2.394318103790283,-15.07119369506836,5.188836097717285
1781604314602540800,60.579540771484375,-4.937589645385742,-3.6104702949523926,-3.937987804412842
1781604314651057000,60.62805688476563,-0.7010970115661621,-14.714064598083496,-11.845967292785645
1781604314699573000,60.67657299804687,-7.938488006591797,-31.301111221313477,3.2853455543518066
1781604314748089000,60.725089111328124,-0.04097708687186241,-0.3520440459251404,11.018349647521973
1781604314796605200,60.773605224609376,2.6539394855499268,-5.289932727813721,-0.40289151668548584
1781604314845121500,60.82212158203125,2.305783748626709,-4.644767761230469,-3.19441819190979
1781604314893637600,60.8706376953125,0.9613165259361267,-3.801896095275879,1.8083757162094116
1781604314942153700,60.91915380859375,1.3432707786560059,-9.908679008483887,5.514857769012451
1781604314990670000,60.96767016601562,1.4108680486679077,-19.786848068237305,-1.5296118259429932
1781604315039186200,61.016186279296875,-0.0729810893535614,-16.297813415527344,-4.047459602355957
1781604315087702300,61.06470239257813,-1.0139585733413696,-7.074978351593018,1.2897313833236694
1781604315136218600,61.11321850585937,-1.794916033744812,-12.97478199005127,4.060320854187012
1781604315184734700,61.161734619140624,-0.4097708761692047,-10.088738441467285,-3.4310085773468018
1781604315233250800,61.210250732421876,0.02751746028661728,-5.36769962310791,-3.2404799461364746
