time,seconds_elapsed,z,y,x
1781604254169996000,0.14699609375,0.24327689409255981,-0.09834922850131989,0.007024944759905338
1781604254218512400,0.195512451171875,0.25297439098358154,-0.2003636509180069,-0.03497200831770897
1781604254267028700,0.24402880859375,0.2641226649284363,-0.19990549981594086,-0.18241949379444122
1781604254315545000,0.292545166015625,0.23968806862831116,-0.03130681812763214,-0.2835939824581146
1781604254364061400,0.3410615234375,0.12621992826461792,-0.08865175396203995,-0.1585194170475006
1781604254412577800,0.389577880859375,0.033139415085315704,-0.13843722641468048,-0.06131555140018463
1781604254461094100,0.43809423828125,-0.014966187067329884,-0.030466880649328232,-0.07460185885429382
1781604254509610500,0.486610595703125,0.012446369975805283,-0.1193477064371109,-0.026648975908756256
1781604254558126800,0.535126953125,0.05940660089254379,-0.2600756883621216,0.007177661173045635
1781604254606643200,0.583643310546875,-0.01824958436191082,-0.12965604662895203,-0.13179408013820648
1781604254655159800,0.632159912109375,-0.03298669680953026,-0.212733656167984,-0.19532401859760284
1781604254703676200,0.68067626953125,-0.0746782198548317,-0.20723587274551392,-0.18226677179336548
1781604254752192500,0.729192626953125,0.0717766135931015,-0.027488915249705315,-0.12156209349632263
1781604254800708900,0.777708984375,0.05520690605044365,-0.17883066833019257,-0.06330086290836334
1781604254849225200,0.82622509765625,0.09605848789215088,-0.09292780607938766,-0.2306014597415924
1781604254897741600,0.874741455078125,0.07368556410074234,-0.06765327602624893,-0.3610210716724396
1781604254946258000,0.9232578125,0.11308634281158447,-0.304974228143692,-0.31673339009284973
1781604254994774300,0.971774169921875,0.03535379841923714,-0.18402300775051117,-0.008093958720564842
1781604255043291000,1.020290771484375,0.04627300798892975,-0.38850998878479004,0.19501857459545135
1781604255091807200,1.06880712890625,-0.07536543905735016,-0.42676541209220886,0.5890263915061951
1781604255140323600,1.117323486328125,0.316809743642807,-0.21830779314041138,1.3731476068496704
1781604255188840000,1.16583984375,0.6071996092796326,0.46807512640953064,1.5588505268096924
1781604255237356300,1.214356201171875,0.18761184811592102,0.3326158821582794,-0.38591381907463074
1781604255285872600,1.26287255859375,-0.1493564397096634,-0.07528908550739288,-1.0040326118469238
1781604255334389200,1.31138916015625,-0.064598947763443,0.09338594973087311,-1.226769208908081
1781604255382905600,1.359905517578125,0.20349432528018951,-0.8732311725616455,-0.15546508133411407
1781604255431422000,1.408421875,0.20448698103427887,-0.9579886794090271,0.24663665890693665
1781604255479938300,1.456938232421875,0.30543237924575806,-0.39110618829727173,-0.4127918779850006
1781604255528455000,1.505454833984375,0.5015963315963745,0.1844811588525772,-0.5455785989761353
1781604255576971300,1.55397119140625,0.3205513060092926,0.4326449930667877,-0.25060728192329407
1781604255625487600,1.602487548828125,0.0025198173243552446,0.06643154472112656,-0.4647153913974762
1781604255674004000,1.65100390625,0.14278964698314667,-0.5677224397659302,-0.4894554018974304
1781604255722520300,1.699520263671875,-0.6858484148979187,-1.6397901773452759,-0.6978366374969482
1781604255771036700,1.74803662109375,-1.3631447553634644,-3.1880269050598145,-1.6570470333099365
1781604255819553000,1.796552978515625,-0.7914516925811768,-6.44744873046875,-2.3632068634033203
1781604255868069600,1.845069580078125,0.8499419689178467,-7.585337162017822,-3.2607197761535645
1781604255916586000,1.8935859375,3.448713541030884,-6.968440055847168,-4.36523962020874
1781604255965102300,1.942102294921875,6.542514324188232,-1.4358376264572144,-5.284056663513184
1781604256013618700,1.99061865234375,5.762592792510986,0.5298488140106201,-2.6416847705841064
1781604256062135300,2.03913525390625,4.898983001708984,1.5018110275268555,-0.22243113815784454
1781604256110651600,2.087651611328125,4.7640581130981445,4.009716510772705,0.11927134543657303
1781604256159168000,2.13616796875,4.5138325691223145,3.253007650375366,0.7882446646690369
1781604256207684400,2.184684326171875,3.8899104595184326,3.853029489517212,1.398574948310852
1781604256256201000,2.233200927734375,2.943833827972412,2.270508050918579,3.1309874057769775
1781604256304717300,2.28171728515625,2.1284055709838867,4.5737738609313965,0.7419716119766235
1781604256353233700,2.330233642578125,2.222402334213257,2.1836888790130615,0.5371028780937195
1781604256401750000,2.37875,1.5004366636276245,-0.5022835731506348,1.200196623802185
1781604256450266400,2.427266357421875,1.2357031106948853,-1.6753729581832886,2.1241295337677
1781604256498782700,2.47578271484375,-0.10980294644832611,1.229136347770691,-0.0798705667257309
1781604256547299000,2.524299072265625,-0.4871646761894226,0.16416990756988525,0.056657709181308746
1781604256595815400,2.5728154296875,-1.0837504863739014,-3.3382232189178467,-0.10270164161920547
1781604256644331800,2.621331787109375,-1.824500322341919,2.157727003097534,-1.9117777347564697
1781604256692848400,2.669848388671875,-1.6979750394821167,2.1003057956695557,-1.1103230714797974
1781604256741364700,2.71836474609375,-0.8904117941856384,0.7129555344581604,-0.16416990756988525
1781604256789881000,2.766881103515625,-1.3413827419281006,-0.06482802331447601,-0.18173226714134216
1781604256838397400,2.8153974609375,-1.0965023040771484,-0.1824958473443985,0.33979353308677673
1781604256886913800,2.863913818359375,-1.036942958831787,-1.1807252168655396,1.3603194952011108
1781604256935430100,2.91243017578125,0.1314886510372162,1.011515736579895,-0.4955640435218811
1781604256983946800,2.96094677734375,2.476522207260132,0.023976443335413933,-0.2557232677936554
1781604257032463000,3.009463134765625,2.152611017227173,-1.5443425178527832,0.9253074526786804
1781604257080979500,3.0579794921875,0.8747583627700806,0.18203771114349365,-0.0654388889670372
1781604257129495800,3.106495849609375,-0.7243329286575317,1.599549412727356,-0.9873101711273193
1781604257178012200,3.15501220703125,-1.8283946514129639,0.7611374855041504,-0.11507165431976318
1781604257226528500,3.203528564453125,-1.53510320186615,1.0083850622177124,0.07658717036247253
1781604257275044900,3.252044921875,-0.5389354228973389,0.34147340059280396,-0.09170607477426529
1781604257323561200,3.300561279296875,0.42103853821754456,-1.3113739490509033,0.4840339720249176
1781604257372077600,3.34907763671875,-1.6885830163955688,-1.08268141746521,-0.2592357397079468
1781604257420594200,3.39759423828125,-1.9219332933425903,0.31406086683273315,-1.9454516172409058
1781604257469110500,3.446110595703125,-1.8783328533172607,-0.845894992351532,-1.1769837141036987
1781604257517627000,3.494626953125,-1.5890120267868042,0.35758498311042786,-0.28809911012649536
1781604257566143200,3.543143310546875,0.18119776248931885,0.15493057668209076,0.6086503863334656
1781604257614659600,3.59165966796875,0.7777835726737976,-0.3507890999317169,0.07589995115995407
1781604257663176000,3.640176025390625,0.10835213959217072,-0.4082103967666626,0.09980003535747528
1781604257711692300,3.6886923828125,-0.2906189262866974,-0.19272783398628235,0.04917461425065994
1781604257760209000,3.737208984375,-0.19120067358016968,0.4529562294483185,-0.5036579966545105
1781604257808725200,3.785725341796875,-0.08521563559770584,0.3822486400604248,0.1340084671974182
1781604257857241600,3.83424169921875,-0.011453714221715927,-0.12072215229272842,-0.19097159802913666
1781604257905758000,3.882758056640625,0.12980876863002777,-0.1314886510372162,-0.18455752730369568
1781604257954274300,3.9312744140625,0.06643154472112656,-0.3857611119747162,-0.2032652497291565
1781604258002790700,3.979790771484375,0.0709366723895073,-0.32276567816734314,-0.11133010685443878
1781604258051307300,4.028307373046875,0.009697478264570236,-0.08628465235233307,-0.11133010685443878
1781604258099823600,4.07682373046875,0.022449281066656113,-0.09544762223958969,-0.09506583213806152
1781604258148340000,4.125340087890625,0.04787652567028999,0.019242240116000175,-0.0206166859716177
1781604258196856300,4.173856201171875,-0.04482220485806465,0.060933761298656464,-0.07498364895582199
1781604258245372700,4.22237255859375,-0.023365577682852745,-0.05971203371882439,-0.09010255336761475
1781604258293889000,4.270888916015625,-0.017562363296747208,-0.11224640160799026,-0.033826638013124466
1781604258342405400,4.3194052734375,-0.0019853105768561363,-0.20189081132411957,-0.03275762498378754
1781604258390921700,4.367921630859375,0.015958841890096664,-0.19532401859760284,-0.0985783040523529
1781604258439438300,4.416438232421875,0.0256563201546669,-0.18371757864952087,-0.0766635313630104
1781604258487954700,4.46495458984375,0.013820815831422806,-0.2211330533027649,-0.07162389904260635
1781604258536471000,4.513470947265625,0.026038112118840218,-0.17737986147403717,-0.03657552972435951
1781604258584987400,4.5619873046875,0.04329504072666168,-0.18532110750675201,0.010842849500477314
1781604258633503700,4.610503662109375,0.001679878099821508,-0.10682497918605804,0.005574141163378954
1781604258682020000,4.65902001953125,-0.002290742937475443,-0.027947064489126205,-0.03153589367866516
1781604258730536400,4.707536376953125,0.010842849500477314,0.0009926552884280682,-0.03000873140990734
1781604258779052800,4.756052734375,-0.010537417605519295,0.03436114266514778,-0.017562363296747208
1781604258827569200,4.804569091796875,-0.02932151034474373,0.08155044913291931,-0.04558578506112099
1781604258876085500,4.85308544921875,0.0013744457392022014,0.07070759683847427,-0.1089630052447319
1781604258924601900,4.901601806640625,0.01870773360133171,0.0896444097161293,-0.12179116904735565
1781604258973118200,4.9501181640625,0.04978547990322113,0.06612611562013626,-0.10651954263448715
1781604259021634600,4.998634521484375,0.0077121676877141,0.0539088174700737,-0.1669187992811203
1781604259070151000,5.04715087890625,0.011682788841426373,0.08689551800489426,-0.15836669504642487
1781604259118667300,5.095667236328125,0.08078686892986298,0.13141228258609772,-0.17974695563316345
1781604259167183600,5.14418359375,0.09705114364624023,0.1495855152606964,-0.21838416159152985
1781604259215700000,5.192699951171875,0.037491824477910995,-0.040775224566459656,-0.13988803327083588
1781604259264216300,5.24121630859375,-0.012370011769235134,-0.07689260691404343,-0.1571449637413025
1781604259312732700,5.289732666015625,-0.1003345400094986,-0.051159925758838654,-0.13675735890865326
1781604259361249000,5.3382490234375,-0.1003345400094986,0.0012980876490473747,-0.08536835014820099
1781604259409765400,5.386765380859375,-0.022067490965127945,0.10934479534626007,-0.17867794632911682
1781604259458281700,5.43528173828125,-0.014966187067329884,0.14362958073616028,-0.4601338803768158
1781604259506798000,5.483798095703125,-0.07864884287118912,0.20349432528018951,-0.3107774555683136
1781604259555314200,5.532314208984375,-0.19120067358016968,0.04993819445371628,-0.19501857459545135
1781604259603830500,5.58083056640625,-0.16081015765666962,-0.027030766010284424,-0.24022257328033447
1781604259652347000,5.629346923828125,-0.19616395235061646,0.2331976294517517,-0.13767364621162415
1781604259700863200,5.67786328125,-0.1130099818110466,0.3352120518684387,-0.08269581943750381
1781604259749379600,5.726379638671875,-0.009621120058000088,0.34468045830726624,-0.03909534588456154
1781604259797896000,5.77489599609375,0.04130972921848297,0.26702427864074707,-0.002901607658714056
1781604259846412300,5.823412353515625,0.02802342176437378,0.22708898782730103,0.020540328696370125
1781604259894928600,5.8719287109375,0.008704823441803455,0.22464552521705627,-0.0025961752980947495
1781604259943445000,5.920445068359375,0.030925029888749123,0.1406516134738922,-0.01740964688360691
1781604259991961300,5.96896142578125,0.03275762498378754,0.05199986323714256,-0.020311253145337105
1781604260040477700,6.017477783203125,0.002061668550595641,-0.03260490670800209,-0.027030766010284424
1781604260088993800,6.065993896484375,0.0025961752980947495,-0.05948295816779137,-0.03962985426187515
1781604260137510100,6.11451025390625,-0.027336198836565018,-0.034666575491428375,-0.06360629200935364
1781604260186026500,6.163026611328125,0.003283398225903511,-0.2723693251609802,0.022678354755043983
1781604260234542800,6.21154296875,-0.10735948383808136,-0.026878049597144127,-0.025809036567807198
1781604260283059200,6.26005908203125,-0.114460788667202,-0.1547778695821762,-0.041004300117492676
1781604260331575300,6.3085751953125,-0.026190826669335365,-0.2237292230129242,-0.10842850059270859
1781604260380091600,6.357091552734375,-0.09842558950185776,-0.1905898153781891,-0.07589995115995407
1781604260428608000,6.40560791015625,-0.03497200831770897,-0.3217730224132538,-0.03390299528837204
1781604260477124400,6.454124267578125,-0.023594651371240616,-0.38675376772880554,0.009621120058000088
1781604260525640700,6.502640625,-0.03413207083940506,-0.3707949221134186,0.016569707542657852
1781604260574157000,6.551156982421875,-0.01695149764418602,-0.18387030065059662,-0.027717988938093185
1781604260622673200,6.599673095703125,0.017027854919433594,-0.27458372712135315,-0.0850629210472107
1781604260671189500,6.648189453125,0.0015271619195118546,-0.04528035223484039,0.005039634648710489
1781604260719705900,6.696705810546875,0.050549060106277466,0.11713331937789917,0.03130681812763214
1781604260768222200,6.74522216796875,0.06772962957620621,0.25091269612312317,0.009926552884280682
1781604260816738600,6.793738525390625,0.09476039558649063,0.22098033130168915,0.001221729558892548
1781604260865255000,6.8422548828125,0.09040798991918564,0.3367392122745514,0.012370011769235134
1781604260913771000,6.89077099609375,0.05322159454226494,0.25610506534576416,0.040317077189683914
1781604260962287400,6.939287353515625,-0.03321577236056328,-0.03321577236056328,0.024510949850082397
1781604261010803700,6.9878037109375,-0.19967642426490784,-0.47212210297584534,0.008017600513994694
1781604261059319800,7.03631982421875,-0.1611919403076172,-0.2519817352294922,0.0025198173243552446
1781604261107836200,7.084836181640625,0.043829549103975296,0.005574141163378954,-0.027870705351233482
1781604261156352500,7.1333525390625,0.04390590637922287,0.15095995366573334,-0.04390590637922287
1781604261204868900,7.181868896484375,-0.15439607203006744,0.22991423308849335,0.0792597085237503
1781604261253385000,7.230385009765625,-0.0025961752980947495,0.23228132724761963,-0.001679878099821508
1781604261301901300,7.2789013671875,0.030695954337716103,0.383470356464386,0.0013744457392022014
1781604261350417700,7.327417724609375,0.00045814859913662076,0.4310414493083954,0.004886918235570192
1781604261398933800,7.375933837890625,0.016569707542657852,0.4857138693332672,0.03711003437638283
1781604261447450000,7.4244501953125,0.001221729558892548,0.5312996506690979,0.09789107739925385
1781604261495966500,7.472966552734375,0.022449281066656113,0.4076758921146393,0.08002328872680664
1781604261544482800,7.52148291015625,0.0256563201546669,0.2813032269477844,0.03168861195445061
1781604261592999000,7.5699990234375,0.03176496922969818,0.15989385545253754,0.025274530053138733
1781604261641515300,7.618515380859375,-0.014126247726380825,0.060093823820352554,-0.012980876490473747
1781604261690031400,7.66703125,-0.05406153202056885,-0.01779143698513508,-0.054443322122097015
1781604261738547700,7.715547607421875,-0.03504836559295654,-0.028863361105322838,-0.04535670951008797
1781604261787064000,7.76406396484375,-0.01649334840476513,0.010537417605519295,-0.04069886729121208
1781604261835580400,7.812580322265625,-0.0058795735239982605,0.0847574844956398,-0.03779725730419159
1781604261884096500,7.861096435546875,0.014660755172371864,0.05543597787618637,-0.016798781231045723
1781604261932612900,7.90961279296875,-0.0005345066892914474,0.05459604039788246,-0.02519817277789116
1781604261981129000,7.95812890625,-0.02000582218170166,0.03214675933122635,-0.036193739622831345
1781604262029645300,8.006645263671874,-0.017256930470466614,0.05192350596189499,-0.029626941308379173
1781604262078161700,8.05516162109375,0.0010690133785828948,0.017867794260382652,-0.03497200831770897
1781604262126677800,8.103677734375,-0.013668099418282509,0.00007635809743078426,-0.030390523374080658
1781604262175194000,8.152194091796876,-0.022296564653515816,-0.04253146052360535,-0.033139415085315704
1781604262223710200,8.200710205078124,-0.006566796451807022,-0.06215549260377884,-0.035964664071798325
1781604262272226600,8.2492265625,-0.029397867619991302,-0.07704532146453857,-0.043982263654470444
1781604262320743000,8.297742919921875,-0.036422811448574066,-0.09445496648550034,-0.04024071618914604
1781604262369259000,8.346259033203125,-0.02306014485657215,-0.08017600327730179,-0.05604684352874756
1781604262417775400,8.394775390625,-0.009697478264570236,-0.06895136088132858,-0.05528326332569122
1781604262466291500,8.44329150390625,-0.008170315995812416,-0.05780307948589325,-0.03741546720266342
1781604262514807800,8.491807861328125,-0.007483093533664942,-0.029932374134659767,-0.035735588520765305
1781604262563324200,8.54032421875,0.004352411720901728,-0.007254019379615784,-0.029016077518463135
1781604262611840300,8.58884033203125,0.010690134018659592,-0.002443459117785096,-0.015729768201708794
1781604262660356600,8.637356689453124,0.013362666592001915,0.004276053514331579,-0.01435532234609127
1781604262708872700,8.685872802734375,0.022220205515623093,0.01695149764418602,-0.0005345066892914474
1781604262757389000,8.73438916015625,0.018173227086663246,0.013515383005142212,0.003665188793092966
1781604262805905400,8.782905517578126,0.016035201027989388,0.019624030217528343,-0.008017600513994694
1781604262854421500,8.83142138671875,0.014049889519810677,0.004046979360282421,-0.017562363296747208
1781604262902937600,8.8799375,-0.007864884100854397,0.0066431546583771706,-0.01649334840476513
1781604262951454000,8.928453857421875,-0.00923932995647192,-0.01779143698513508,-0.02084576152265072
1781604262999970300,8.97697021484375,0.002061668550595641,-0.01107192412018776,-0.029932374134659767
1781604263048486400,9.025486328125,-0.005345067009329796,-0.0019089524867013097,-0.02893971838057041
1781604263097002500,9.07400244140625,-0.01030834298580885,-0.0009162971982732415,-0.02153298258781433
1781604263145518800,9.122518798828125,-0.0009926552884280682,-0.013362666592001915,-0.017715077847242355
1781604263194035200,9.17103515625,-0.01359174121171236,-0.011377356946468353,-0.014508038759231567
1781604263242551300,9.21955126953125,-0.004123337101191282,-0.04016435891389847,-0.005803215317428112
1781604263291067400,9.2680673828125,-0.006414080038666725,-0.043371398001909256,-0.013515383005142212
1781604263339583700,9.316583740234375,-0.009315688163042068,-0.042684175074100494,-0.021380268037319183
1781604263388100000,9.36510009765625,-0.0030543238390237093,-0.02977965772151947,-0.011300998739898205
1781604263436616200,9.4136162109375,-0.006490438245236874,-0.014049889519810677,-0.014737112447619438
1781604263485132300,9.46213232421875,-0.017715077847242355,0.001832594396546483,-0.01847865991294384
1781604263533648600,9.510648681640625,-0.016646064817905426,-0.002901607658714056,-0.019394956529140472
1781604263582164500,9.55916455078125,-0.004734201822429895,-0.0016035200096666813,-0.021838415414094925
1781604263630681000,9.60768115234375,0.005650499369949102,-0.006872228812426329,0.0001527161948615685
1781604263679197200,9.656197265625,0.01802051067352295,-0.0006872228696011007,0.009697478264570236
1781604263727713500,9.704713623046874,0.018173227086663246,0.005955931730568409,-0.0030543238390237093
1781604263776229600,9.753229736328125,-0.002290742937475443,0.013286309316754341,-0.006566796451807022
1781604263824745700,9.801745849609375,-0.022449281066656113,0.0027488914784044027,-0.030543239787220955
1781604263873262000,9.850261962890626,-0.022754713892936707,-0.017486004158854485,-0.03543015569448471
1781604263921778200,9.898778076171874,-0.01847865991294384,-0.017256930470466614,-0.027030766010284424
1781604264018810600,9.995810546875,-0.006872228812426329,0.001679878099821508,-0.020922118797898293
1781604264067326700,10.04432666015625,-0.01000291109085083,0.006872228812426329,-0.02390008419752121
1781604264115843000,10.092843017578126,-0.013286309316754341,-0.008857538923621178,-0.0243582334369421
1781604264164359200,10.141359130859374,-0.011300998739898205,-0.023976443335413933,-0.02084576152265072
1781604264212875500,10.18987548828125,-0.017562363296747208,-0.011759147047996521,-0.019700389355421066
1781604264261391600,10.2383916015625,-0.012675444595515728,-0.015347977168858051,-0.017027854919433594
1781604264309907700,10.28690771484375,-0.0009162971982732415,-0.01908952370285988,-0.012980876490473747
1781604264358424000,10.335424072265624,0.0011453714687377214,-0.03520108386874199,-0.008170315995812416
1781604264406940200,10.383940185546875,-0.0010690133785828948,-0.03481929376721382,-0.00007635809743078426
1781604264455456300,10.432456298828125,0.00045814859913662076,-0.02764163166284561,-0.00022907429956831038
1781604264503972600,10.48097265625,0.004123337101191282,-0.018325943499803543,0.009315688163042068
1781604264552488700,10.52948876953125,0.004046979360282421,-0.011300998739898205,0.0006872228696011007
1781604264601004800,10.5780048828125,0.0011453714687377214,0.011988221667706966,-0.01870773360133171
1781604264649521000,10.62652099609375,-0.0154243353754282,0.047036588191986084,-0.02214384824037552
1781604264698037200,10.675037353515625,-0.03222311660647392,0.009010255336761475,-0.01000291109085083
1781604264746553300,10.72355322265625,-0.007788525894284248,-0.02153298258781433,-0.024205517023801804
1781604264795069400,10.7720693359375,0.0032070400193333626,-0.02306014485657215,-0.014966187067329884
1781604264843585500,10.82058544921875,0.006566796451807022,-0.01908952370285988,-0.018784092739224434
1781604264892102000,10.869101806640625,0.012217295356094837,-0.008704823441803455,-0.018096869811415672
1781604264940618000,10.917617919921875,0.013209951110184193,-0.01718057133257389,-0.011759147047996521
1781604264989134000,10.966134033203126,0.0102319847792387,-0.035124726593494415,-0.0019853105768561363
1781604265037650400,11.014650390625,0.011148282326757908,-0.030085090547800064,0.003970621153712273
1781604265086166500,11.06316650390625,0.020922118797898293,-0.014737112447619438,0.005345067009329796
1781604265134682600,11.1116826171875,0.02496909722685814,0.005268708802759647,0.0019853105768561363
1781604265183198700,11.16019873046875,0.028634287416934967,-0.007177661173045635,0.012980876490473747
1781604265231715000,11.208715087890624,0.033139415085315704,-0.03504836559295654,0.0383317656815052
1781604265280231200,11.257231201171875,0.05108356848359108,-0.03176496922969818,0.04657844081521034
1781604265328759000,11.305759033203126,0.06856957077980042,0.01611155830323696,0.02871064469218254
1781604265377263400,11.354263427734375,0.06727148592472076,0.036193739622831345,-0.012446369975805283
1781604265425779700,11.40277978515625,0.041615162044763565,0.03390299528837204,-0.052076224237680435
1781604265474295800,11.4512958984375,0.004657844081521034,0.02893971838057041,-0.053756099194288254
1781604265522812000,11.49981201171875,-0.00045814859913662076,0.006566796451807022,-0.036422811448574066
1781604265571328000,11.548327880859375,0.004581485874950886,0.003970621153712273,-0.025121813639998436
1781604265619844000,11.596843994140626,0.005268708802759647,-0.004352411720901728,-0.01977674663066864
1781604265668360200,11.645360107421874,0.00038179047987796366,-0.003512472379952669,-0.019853105768561363
1781604265716876500,11.69387646484375,-0.009621120058000088,-0.004581485874950886,-0.021151192486286163
1781604265765392400,11.742392333984375,-0.010842849500477314,-0.012293653562664986,-0.023518294095993042
1781604265813908700,11.79090869140625,-0.013286309316754341,-0.008246674202382565,-0.02756527252495289
1781604265862424800,11.8394248046875,-0.019700389355421066,-0.0023671009112149477,-0.022907428443431854
1781604265910941000,11.88794091796875,-0.013897174037992954,0.0009162971982732415,-0.02412915788590908
1781604265959457000,11.93645703125,-0.01565340906381607,0.010537417605519295,-0.023136503994464874
1781604266007973000,11.98497314453125,-0.006337722297757864,0.006490438245236874,-0.019624030217528343
1781604266056489500,12.033489501953126,-0.008323032408952713,0.004505127668380737,-0.014202605932950974
1781604266105005300,12.08200537109375,-0.015577051788568497,-0.00045814859913662076,-0.017562363296747208
1781604266153521700,12.130521728515625,-0.015577051788568497,-0.009621120058000088,-0.01908952370285988
1781604266202037800,12.179037841796875,-0.017867794260382652,-0.00045814859913662076,-0.028863361105322838
1781604266250553900,12.227553955078125,-0.017256930470466614,-0.02260199747979641,-0.025503603741526604
1781604266299070000,12.276070068359376,-0.017333287745714188,-0.028634287416934967,-0.03252854943275452
1781604266347586000,12.3245859375,-0.01908952370285988,-0.027259841561317444,-0.030543239787220955
1781604266396102100,12.37310205078125,-0.008857538923621178,-0.02107483521103859,-0.022449281066656113
1781604266444618200,12.4216181640625,-0.001221729558892548,-0.009010255336761475,-0.018631376326084137
1781604266493134300,12.47013427734375,-0.01000291109085083,-0.005955931730568409,-0.015347977168858051
1781604266541650400,12.518650390625,-0.007483093533664942,-0.01030834298580885,-0.01718057133257389
1781604266590166500,12.56716650390625,-0.004657844081521034,-0.004352411720901728,-0.013668099418282509
1781604266638682600,12.6156826171875,-0.007483093533664942,-0.014049889519810677,-0.01908952370285988
1781604266687199000,12.664198974609375,-0.008323032408952713,-0.02283107116818428,-0.01695149764418602
1781604266735714800,12.71271484375,-0.005955931730568409,-0.030085090547800064,-0.017104214057326317
1781604266784231200,12.761231201171874,-0.010613775812089443,-0.021380268037319183,-0.01847865991294384
1781604266832747000,12.8097470703125,-0.01030834298580885,-0.013286309316754341,-0.021380268037319183
1781604266881263400,12.858263427734375,-0.01000291109085083,-0.003894262947142124,-0.021456625312566757
1781604266929779500,12.906779541015625,-0.011148282326757908,0.0006872228696011007,-0.014889828860759735
1781604266978295300,12.95529541015625,-0.016875140368938446,-0.005039634648710489,-0.018096869811415672
1781604267026811600,13.003811767578124,-0.007330377586185932,-0.013362666592001915,-0.010690134018659592
1781604267075327500,13.052327392578125,-0.009926552884280682,-0.007330377586185932,-0.012980876490473747
1781604267123843600,13.100843505859375,-0.014660755172371864,0.011300998739898205,-0.019624030217528343
1781604267172359700,13.149359619140625,-0.004046979360282421,0.02107483521103859,-0.019700389355421066
1781604267220875800,13.197875732421876,0.0027488914784044027,0.027488915249705315,-0.017256930470466614
1781604267269392000,13.246391845703124,-0.00007635809743078426,0.014431680552661419,-0.011530072428286076
1781604267317908000,13.294907958984375,-0.0034361144062131643,-0.005345067009329796,-0.008857538923621178
1781604267366424000,13.343424072265625,-0.00847574882209301,-0.016646064817905426,-0.015806125476956367
1781604267414940200,13.391940185546876,-0.010613775812089443,-0.009621120058000088,-0.022296564653515816
1781604267463456300,13.440456298828124,-0.008323032408952713,-0.008323032408952713,-0.020922118797898293
1781604267511972400,13.488972412109375,-0.007177661173045635,-0.00755945174023509,-0.01565340906381607
1781604267560488400,13.537488525390625,-0.008399390615522861,-0.010766491293907166,-0.015500693581998348
1781604267609004500,13.586004638671875,-0.009086613543331623,-0.00511599238961935,-0.018784092739224434
1781604267657520600,13.634520751953126,-0.005421424750238657,-0.004276053514331579,-0.015042545273900032
1781604267706036700,13.68303662109375,-0.006490438245236874,-0.0010690133785828948,-0.020387612283229828
1781604267754552800,13.731552734375,-0.011148282326757908,0.0017562361899763346,-0.025809036567807198
1781604267803068700,13.780068603515625,-0.012980876490473747,0.0001527161948615685,-0.02764163166284561
1781604267851585000,13.8285849609375,-0.012370011769235134,-0.008246674202382565,-0.02672533318400383
1781604267900100900,13.877100830078126,-0.01626427471637726,-0.011453714221715927,-0.026419902220368385
1781604267948617000,13.925616943359374,-0.01565340906381607,-0.01672242395579815,-0.030390523374080658
1781604267997133000,13.974133056640625,-0.019394956529140472,-0.009162971749901772,-0.025503603741526604
1781604268045649200,14.022649169921875,-0.011759147047996521,-0.002290742937475443,-0.023976443335413933
1781604268094165000,14.0711650390625,-0.009621120058000088,-0.0019853105768561363,-0.019242240116000175
1781604268142681000,14.11968115234375,-0.011759147047996521,-0.0009926552884280682,-0.015347977168858051
1781604268191197200,14.168197265625,-0.009697478264570236,0.005345067009329796,-0.023365577682852745
1781604268239713300,14.21671337890625,-0.007483093533664942,-0.005421424750238657,-0.016416991129517555
1781604268288229400,14.2652294921875,-0.014431680552661419,0.0066431546583771706,-0.0256563201546669
1781604268336745500,14.313745361328126,-0.009850194677710533,0.003665188793092966,-0.025121813639998436
1781604268385261600,14.362261474609374,-0.012522728182375431,0.0019089524867013097,-0.02176205813884735
1781604268433777400,14.41077734375,-0.009315688163042068,0.001832594396546483,-0.018402300775051117
1781604268482293500,14.45929345703125,-0.007941242307424545,0.008781181648373604,-0.017562363296747208
1781604268579325700,14.55632568359375,-0.01000291109085083,0.009926552884280682,-0.017256930470466614
1781604268627841800,14.604841796875,-0.0054977829568088055,0.009697478264570236,-0.009010255336761475
1781604268676357600,14.653357666015625,-0.0005345066892914474,0.011148282326757908,-0.0015271619195118546
1781604268724873700,14.701873779296875,-0.001450803829357028,0.017104214057326317,-0.005650499369949102
1781604268773389800,14.750389892578125,-0.01000291109085083,0.014660755172371864,-0.010995565913617611
1781604268821906000,14.798906005859376,-0.00946840364485979,0.008781181648373604,-0.014431680552661419
1781604268870421800,14.847421875,-0.011988221667706966,0.001679878099821508,-0.013133592903614044
1781604268918937900,14.895937744140625,-0.013744457624852657,-0.009315688163042068,-0.011148282326757908
1781604268967454000,14.944453857421875,-0.018096869811415672,0.005268708802759647,-0.017944153398275375
1781604269015970000,14.992969970703125,-0.009926552884280682,0.0035888305865228176,-0.02764163166284561
1781604269064486000,15.04148583984375,-0.010155626572668552,0.005421424750238657,-0.01672242395579815
1781604269113002000,15.090001953125,-0.011759147047996521,0.006185005884617567,-0.020387612283229828
1781604269161518000,15.13851806640625,-0.004428769461810589,-0.014737112447619438,-0.009697478264570236
1781604269210034200,15.1870341796875,-0.0077121676877141,-0.014813470654189587,-0.011759147047996521
1781604269258550000,15.235550048828125,-0.009010255336761475,-0.009010255336761475,-0.018631376326084137
1781604269307066000,15.284066162109376,-0.007483093533664942,-0.007483093533664942,-0.020540328696370125
1781604269355582200,15.332582275390624,-0.006872228812426329,-0.004428769461810589,-0.018631376326084137
1781604269404098000,15.38109814453125,-0.007024944759905338,-0.001679878099821508,-0.016646064817905426
1781604269452614100,15.4296142578125,-0.005803215317428112,-0.007101302966475487,-0.016569707542657852
1781604269501130200,15.478130126953126,-0.008552107028663158,-0.004428769461810589,-0.019013166427612305
1781604269549646000,15.52664599609375,-0.0191658828407526,0.0019853105768561363,-0.022678354755043983
1781604269598162200,15.575162109375,-0.02909243479371071,-0.02916879393160343,-0.028328854590654373
1781604269646678300,15.62367822265625,-0.03733910992741585,-0.05436696484684944,-0.044440411031246185
1781604269695194400,15.6721943359375,-0.01763872057199478,-0.06360629200935364,-0.024740023538470268
1781604269743710200,15.720710205078126,-0.01565340906381607,-0.03894263133406639,-0.03352120518684387
1781604269792226300,15.769226318359374,0,-0.02176205813884735,-0.02893971838057041
1781604269840742400,15.817742431640625,0.008628465235233307,-0.033979352563619614,-0.008399390615522861
1781604269889258200,15.86625830078125,0.003665188793092966,-0.02779434807598591,-0.023212861269712448
1781604269937774300,15.9147744140625,0.0019853105768561363,-0.028787001967430115,-0.014508038759231567
1781604269986290400,15.96329052734375,0.0032070400193333626,-0.043982263654470444,-0.03451386094093323
1781604270034806300,16.01180615234375,-0.0062613640911877155,-0.043371398001909256,-0.05482511222362518
1781604270083322400,16.060322265625,-0.01435532234609127,-0.07147117704153061,-0.047494735568761826
1781604270131838200,16.108838134765627,-0.014889828860759735,-0.07147117704153061,-0.055512335151433945
1781604270180354300,16.157354248046875,-0.0102319847792387,-0.027717988938093185,-0.03168861195445061
1781604270228870400,16.205870361328124,0.01282816007733345,-0.05528326332569122,-0.06627883017063141
1781604270277386200,16.25438623046875,0.0058795735239982605,-0.06795870512723923,-0.08170316368341446
1781604270325902300,16.30290234375,-0.017256930470466614,-0.06421715766191483,-0.08681915700435638
1781604270374418200,16.351418212890625,0.000610864779446274,-0.08032871782779694,-0.06330086290836334
1781604270422934300,16.399934326171874,-0.01259908638894558,-0.12935061752796173,-0.04505127668380737
1781604270471450000,16.4484501953125,-0.014660755172371864,-0.09453132748603821,-0.039018988609313965
1781604270519966200,16.49696630859375,0.006337722297757864,-0.029474224895238876,-0.035735588520765305
1781604270568482300,16.545482421875,0.008628465235233307,-0.011759147047996521,-0.04024071618914604
1781604270616998100,16.593998046875,-0.0030543238390237093,-0.03733910992741585,-0.01908952370285988
1781604270665514200,16.64251416015625,-0.011759147047996521,-0.03130681812763214,-0.008246674202382565
1781604270714030300,16.6910302734375,-0.014126247726380825,0.0077121676877141,-0.014049889519810677
1781604270762546200,16.739546142578124,-0.013515383005142212,-0.005650499369949102,-0.008781181648373604
1781604270811062000,16.78806201171875,-0.018631376326084137,0.02214384824037552,0.0031306820455938578
1781604270859578000,16.836578125,-0.006185005884617567,0.05673406645655632,-0.0034361144062131643
1781604270908094000,16.885093994140625,0.01802051067352295,0.11094831675291061,0.004428769461810589
1781604270956610000,16.933610107421874,0.019700389355421066,0.01611155830323696,0.0334448479115963
1781604271005126100,16.982126220703126,-0.004810560029000044,0.009773836471140385,0.021914774551987648
1781604271053642000,17.03064208984375,0.0032070400193333626,0.017867794260382652,0.000305432389723137
1781604271102158000,17.079157958984375,0.011682788841426373,-0.0025198173243552446,-0.01611155830323696
1781604271150674000,17.127673828125,0.0191658828407526,-0.07040216773748398,-0.03711003437638283
1781604271199190000,17.17618994140625,-0.03520108386874199,-0.13935352861881256,-0.07353284955024719
1781604271247705900,17.224705810546876,-0.07498364895582199,-0.18035782873630524,-0.0902552679181099
1781604271296222000,17.273221923828125,0.0011453714687377214,-0.21197007596492767,-0.05810851231217384
1781604271344738000,17.321738037109377,0.04787652567028999,-0.22647811472415924,-0.013286309316754341
1781604271393254000,17.37025390625,0.10980294644832611,-0.16760602593421936,0.05635227635502815
1781604271441769700,17.418769775390626,0.1888335794210434,-0.22266021370887756,0.18066325783729553
1781604271490285800,17.467285888671874,0.12286017835140228,-0.2660316228866577,0.3386481702327728
1781604271538801700,17.5158017578125,0.17974695563316345,-0.3223838806152344,0.5212203860282898
1781604271587317800,17.56431787109375,0.17577634751796722,-0.41004297137260437,0.45417797565460205
1781604271635833600,17.61283349609375,0.0746782198548317,-0.11423171311616898,0.18089233338832855
1781604271684349700,17.661349609375,0.13965895771980286,-0.07681624591350555,0.22708898782730103
1781604271732865500,17.709865478515624,0.1182023361325264,0.040546149015426636,0.14973822236061096
1781604271781381600,17.758381591796876,0.23907721042633057,0.007788525894284248,0.09613484144210815
1781604271829897500,17.8068974609375,0.25671592354774475,0.12644900381565094,0.1049160286784172
1781604271878413600,17.85541357421875,0.11568251997232437,0.15836669504642487,0.11514800786972046
1781604271926929400,17.903929443359374,0.12789981067180634,0.2908479869365692,0.15149445831775665
1781604271975445500,17.952445556640626,0.07269290834665298,-0.08552107214927673,0.06505709886550903
1781604272023961300,18.00096142578125,0.017867794260382652,0.05612320080399513,-0.14225514233112335
1781604272072477200,18.049477294921875,0.057955797761678696,0.5662716627120972,-0.18089233338832855
1781604272120993300,18.0979931640625,-0.20708316564559937,-0.03390299528837204,-0.2185368686914444
1781604272169509000,18.146509033203124,-0.42684176564216614,-0.22678354382514954,-0.05940660089254379
1781604272218025200,18.195025146484376,-0.16081015765666962,-0.36598435044288635,-0.45051276683807373
1781604272266541000,18.243541015625,0.25129449367523193,0.07124210149049759,-0.3578140437602997
1781604272315057000,18.292056884765625,-0.2485456019639969,0.5164861679077148,-0.5940660238265991
1781604272363573000,18.340572998046873,-0.35048365592956543,0.5337430834770203,-0.44730573892593384
1781604272412088800,18.3890888671875,-0.4427242577075958,-0.0030543238390237093,-0.500298261642456
1781604272460605000,18.43760498046875,-0.6608793139457703,-0.2044106274843216,-0.4566214084625244
1781604272509120800,18.486120849609375,-0.5051088333129883,-0.4819723069667816,-0.8138245940208435
1781604272557636900,18.534636962890627,-0.5184714794158936,-0.2315177470445633,-1.1058943271636963
1781604272606152700,18.583152587890623,-0.08681915700435638,-0.939662754535675,-0.8697187304496765
1781604272654668500,18.63166845703125,-0.49655669927597046,-1.0510692596435547,0.09636391699314117
1781604272703184600,18.6801845703125,-0.6655371785163879,-0.125074565410614,0.10575596243143082
1781604272751700500,18.728700439453124,-0.05436696484684944,-0.17913609743118286,1.2156208753585815
1781604272800216600,18.777216552734377,-0.03756818547844887,0.39683303236961365,2.604116439819336
1781604272848732400,18.825732421875,0.2833648920059204,0.7012727856636047,2.412075996398926
1781604272897248300,18.874248291015626,0.32765260338783264,-0.5485565662384033,1.0933716297149658
1781604272945764400,18.922764404296874,0.9061415195465088,0.3928624093532562,0.21059563755989075
1781604272994280200,18.9712802734375,0.9240856766700745,0.16294817626476288,0.8474985361099243
1781604273042796000,19.019796142578127,0.18547381460666656,0.8538362383842468,-0.06215549260377884
1781604273091312000,19.06831201171875,-0.33024877309799194,0.8516982197761536,-0.43027788400650024
1781604273139828000,19.116827880859375,-0.1156061589717865,0.8830813765525818,0.07788526266813278
1781604273188344000,19.165343994140624,0.516791582107544,0.3716348707675934,-0.2698495090007782
1781604273236860000,19.21385986328125,-0.247629314661026,-0.11438442766666412,0.031001387163996696
1781604273285388300,19.26238818359375,0.761366605758667,0.13454297184944153,-0.36247187852859497
1781604273333891600,19.3108916015625,0.5566505193710327,0.2537379562854767,-0.8364266157150269
1781604273382407700,19.35940771484375,-0.5070177912712097,0.42592546343803406,-0.6371319890022278
1781604273430923500,19.407923583984374,-0.9106466770172119,-0.007177661173045635,-0.5382482409477234
1781604273479439400,19.456439453125,-0.8067232966423035,-1.3090832233428955,-0.9980003237724304
1781604273527955500,19.50495556640625,-0.7215840220451355,-0.8866702318191528,-0.9472985863685608
1781604273576471300,19.55347119140625,-0.6517927050590515,-0.8109229803085327,-1.2597558498382568
1781604273624987400,19.6019873046875,-0.4696022868156433,-0.9426407217979431,-1.0560325384140015
1781604273673503200,19.650503173828124,-0.21983496844768524,-1.216613531112671,-0.2115882933139801
1781604273722019000,19.69901904296875,-0.27863070368766785,0.0824667438864708,-0.34552037715911865
1781604273770535000,19.747534912109376,-0.26710063219070435,0.15615230798721313,0.6281217336654663
1781604273819051000,19.796051025390625,0.04436405375599861,0.1758527010679245,1.8419100046157837
1781604273867566800,19.84456689453125,-0.20303617417812347,0.8080213665962219,2.682460069656372
1781604273916082700,19.893082763671874,0.3390299379825592,0.5378664135932922,1.6398664712905884
1781604273964598500,19.9415986328125,0.7829759120941162,0.464486300945282,-0.19410228729248047
1781604274013114600,19.990114501953126,1.1130720376968384,0.9627992510795593,0.3634645342826843
1781604274061630500,20.03863037109375,0.6514109373092651,1.0096831321716309,0.6225475668907166
1781604274110146600,20.087146484375,-0.2903898358345032,0.8546761870384216,-0.013439024798572063
1781604274158663200,20.1356630859375,-0.6530144214630127,0.7642682194709778,-0.4448622763156891
1781604274207178200,20.18417822265625,0.205861434340477,0.3531562089920044,-0.32620179653167725
1781604274255694000,20.232694091796876,0.1268308013677597,-0.20922118425369263,0.0844520553946495
1781604274304210200,20.281210205078125,0.47952884435653687,-0.45333802700042725,-0.022449281066656113
1781604274352726000,20.32972607421875,1.0919208526611328,0.019853105768561363,-0.9650136232376099
1781604274401241900,20.378241943359374,-0.01359174121171236,0.5699368119239807,-0.558788537979126
1781604274449757700,20.4267578125,-1.0093013048171997,0.4283689260482788,-0.8102357983589172
1781604274498273500,20.4752734375,-1.038164734840393,-0.9619593024253845,-0.7524327039718628
1781604274546789600,20.52378955078125,-0.8457422852516174,-1.2136355638504028,-0.9511927962303162
1781604274595305500,20.572305419921875,-0.8834632039070129,-1.095127820968628,-1.0092250108718872
1781604274643821300,20.6208212890625,-0.6256782412528992,-1.4420989751815796,-1.14422607421875
1781604274692337400,20.66933740234375,-0.14706569910049438,-1.3090832233428955,-0.29359689354896545
1781604274740853200,20.717853271484376,-0.20570871233940125,-0.03672824427485466,-0.24885104596614838
1781604274789369000,20.766369140625,-0.23678645491600037,0.4001927971839905,0.36422812938690186
1781604274837885000,20.814885009765625,0.06811141967773438,-0.11927134543657303,1.4091123342514038
1781604274886400800,20.86340087890625,-0.27863070368766785,0.2799287736415863,2.489121198654175
1781604274934916900,20.911916748046874,0.03932442143559456,0.6332377195358276,2.6305365562438965
1781604274983432700,20.9604326171875,0.7348703145980835,-0.25526511669158936,0.19593487679958344
1781604275031948500,21.008948486328126,1.0454950332641602,0.48296496272087097,-0.2910770773887634
1781604275080464400,21.05746435546875,0.8755219578742981,0.7748056054115295,0.7045561671257019
1781604275128980200,21.105980224609375,0.020922118797898293,0.9504292607307434,0.09361502528190613
1781604275177496300,21.154496337890624,-0.5767326951026917,1.0655772686004639,-0.5820778012275696
1781604275226012200,21.20301220703125,0.06085740402340889,1.118798851966858,-0.15057817101478577
1781604275274528000,21.251528076171876,0.7467058300971985,0.16539163887500763,-0.13706278800964355
1781604275323043800,21.3000439453125,0.3395644724369049,-0.7017309069633484,-0.2404516488313675
1781604275371559700,21.3485595703125,0.8734602928161621,-0.33895358443260193,-0.6293434500694275
1781604275420075500,21.397075439453126,0.40569058060646057,0.5282453298568726,-0.7985529899597168
1781604275468591600,21.445591552734374,-0.8260418772697449,0.855057954788208,-0.7033344507217407
1781604275517107500,21.494107421875,-1.0187697410583496,-0.35277441143989563,-0.7389172911643982
1781604275565623300,21.542623291015627,-0.8009964227676392,-0.6573668718338013,-1.124372959136963
1781604275614139100,21.59113916015625,-0.8892664313316345,-0.25526511669158936,-0.9686024785041809
1781604275662655200,21.6396552734375,-0.883768618106842,-0.9336304664611816,-1.143920660018921
1781604275711170800,21.6881708984375,-0.5637518167495728,-1.6849178075790405,-0.4626537263393402
1781604275759687000,21.73668701171875,-0.12247838824987411,-0.8880446553230286,-0.04864010959863663
1781604275808202800,21.78520263671875,-0.3943132162094116,0.453719824552536,-0.0030543238390237093
1781604275856718600,21.833718505859373,-0.17974695563316345,0.7381537556648254,1.0752747058868408
1781604275905234400,21.882234375,-0.2551124095916748,0.8220712542533875,2.3545782566070557
1781604275953750500,21.93075048828125,0.0847574844956398,1.018846035003662,2.542572021484375
1781604276002266400,21.979266357421874,0.1818849891424179,-0.13416117429733276,1.093982458114624
1781604276050782200,22.0277822265625,1.1621702909469604,0.5873464941978455,-0.41729700565338135
1781604276099298000,22.076298095703127,1.2793035507202148,0.870482325553894,0.618806004524231
1781604276147814000,22.12481396484375,0.25961753726005554,1.1530836820602417,0.3402516841888428
1781604276196329700,22.173329833984376,-0.6653081178665161,0.8909462690353394,-0.4353938698768616
1781604276244845600,22.221845458984376,-0.1614210158586502,0.8930842876434326,-0.30741769075393677
1781604276293361400,22.270361328125,0.7677043080329895,-0.0948367565870285,0.15584687888622284
1781604276341877200,22.318877197265625,0.09422589093446732,-0.4482220411300659,-0.25266894698143005
1781604276390393000,22.36739306640625,1.0462586879730225,-0.2596938908100128,-0.6675988435745239
1781604276438909000,22.415908935546874,0.39110618829727173,0.4456258714199066,-0.9640209674835205
1781604276487425000,22.464425048828126,-1.0764200687408447,0.574212908744812,-0.6959276795387268
1781604276535940900,22.51294091796875,-1.2724313735961914,-0.9197332859039307,-0.5772672295570374
1781604276584456700,22.561456787109375,-0.893542468547821,-1.5274673700332642,-1.0778708457946777
1781604276632972500,22.60997265625,-0.917747974395752,-1.188895583152771,-1.0470986366271973
1781604276681488400,22.65848828125,-0.6559923887252808,-1.8596251010894775,-1.3222931623458862
1781604276730004200,22.707004150390624,-0.19914191961288452,-1.8602359294891357,-0.31780239939689636
1781604276778520000,22.75552001953125,-0.29153522849082947,-0.22090397775173187,-0.2693150043487549
1781604276827036000,22.804035888671876,-0.3180314898490906,0.522442102432251,0.45043641328811646
1781604276875551700,22.8525517578125,0.009010255336761475,0.49197521805763245,1.6980513334274292
1781604276924067800,22.90106787109375,-0.3615556061267853,0.5242747068405151,2.7372851371765137
1781604276972583700,22.949583740234374,0.2086866796016693,0.7796161770820618,2.1639885902404785
1781604277021099500,22.998099609375,0.7631227970123291,-0.021685699000954628,0.03649916872382164
1781604277069615400,23.046615478515626,1.3242021799087524,0.918664276599884,-0.02977965772151947
1781604277118131200,23.095131103515627,0.8217658400535583,1.2611303329467773,0.8941532969474792
1781604277166647000,23.14364697265625,-0.32391104102134705,1.367802619934082,-0.1360701322555542
1781604277215163000,23.192162841796875,-0.7985529899597168,1.5822161436080933,-0.6123919486999512
1781604277263678700,23.2406787109375,0.39713847637176514,0.5826122760772705,-0.18814635276794434
1781604277312194600,23.289194580078124,0.4347066581249237,-0.20051635801792145,-0.057039499282836914
1781604277360710400,23.33771044921875,0.6522508859634399,-1.0012073516845703,-0.21891866624355316
1781604277409226200,23.386226318359373,0.7933606505393982,0.21426081657409668,-0.9540180563926697
1781604277457742000,23.4347421875,-0.14049890637397766,0.4926624298095703,-0.768467903137207
1781604277506258000,23.4832578125,-1.1088722944259644,0.13920080661773682,-0.7308996915817261
1781604277554774000,23.53177392578125,-0.9264528155326843,-1.3476440906524658,-0.7723621726036072
1781604277603289600,23.58028955078125,-0.7812960743904114,-0.975092887878418,-0.8384119272232056
1781604277651805400,23.628805419921875,-0.8529199361801147,-0.7520508766174316,-1.1875975131988525
1781604277700321300,23.6773212890625,-0.790611743927002,-1.197218656539917,-1.1912627220153809
1781604277748837000,23.725837158203124,-0.4079049527645111,-1.633299708366394,-0.33948808908462524
1781604277797353200,23.774353271484376,-0.26824599504470825,-0.2750418782234192,-0.20189081132411957
1781604277845869000,23.822869140625,-0.3214675784111023,0.22663083672523499,0.5376373529434204
1781604277894385000,23.871385009765625,0.057268574833869934,0.17424917221069336,1.7359249591827393
1781604277942900700,23.919900634765625,-0.19639302790164948,0.40149086713790894,2.5880050659179688
1781604277991416600,23.96841650390625,0.41470083594322205,0.6336958408355713,1.8588615655899048
1781604278039932400,24.016932373046874,0.7144827246665955,-0.07864884287118912,-0.04528035223484039
1781604278088448300,24.0654482421875,1.0293071269989014,1.077412724494934,0.11148282140493393
1781604278136964000,24.113964111328126,0.6351466774940491,1.1780527830123901,0.6940187215805054
1781604278185480000,24.16247998046875,-0.27175846695899963,1.2485312223434448,-0.09300415962934494
1781604278233995800,24.210995849609375,-0.6314051151275635,1.0864993333816528,-0.4535670876502991
1781604278282511600,24.25951171875,0.2997818887233734,0.19165882468223572,-0.12698352336883545
1781604278331027500,24.30802734375,0.23251040279865265,-0.07284562289714813,0.04039343446493149
1781604278379543300,24.356543212890625,0.25129449367523193,-0.8839213252067566,-0.15347976982593536
1781604278428059100,24.40505908203125,0.8177188634872437,0.012675444595515728,-1.041066288948059
1781604278476575000,24.453574951171873,0.13790272176265717,0.38293585181236267,-0.7688496708869934
1781604278525090800,24.5020908203125,-0.8925498127937317,0.5200750231742859,-0.8019127249717712
1781604278573606700,24.550606689453126,-1.065806269645691,-0.99257892370224,-0.7061597108840942
1781604278622122500,24.59912255859375,-0.7063124179840088,-1.4488948583602905,-1.053207278251648
1781604278670638300,24.647638427734375,-0.8379537463188171,-1.0199151039123535,-1.1462113857269287
1781604278719154200,24.696154296875,-0.8170316219329834,-1.5027273893356323,-1.1379647254943848
1781604278767670000,24.744669921875,-0.2121991515159607,-1.563584804534912,-0.010537417605519295
1781604278816185900,24.793185791015624,-0.3150535225868225,-0.015042545273900032,-0.4434114694595337
1781604278864701700,24.84170166015625,-0.2225838601589203,0.6340012550354004,0.7148644924163818
1781604278913217500,24.890217529296876,-0.012675444595515728,0.256334125995636,1.8886412382125854
1781604278961733400,24.9387333984375,-0.003512472379952669,0.42164942622184753,2.6765804290771484
1781604279010249200,24.987249267578125,-0.05497783049941063,0.2925278842449188,1.8499276638031006
1781604279058765000,25.03576513671875,0.9942587614059448,-0.15699224174022675,-0.19333870708942413
1781604279107281000,25.084281005859374,1.3537527322769165,0.7883973717689514,0.04283689334988594
1781604279155796700,25.132796630859374,0.5154171586036682,1.3496294021606445,0.6615665555000305
1781604279204312600,25.1813125,-0.49625128507614136,1.1861467361450195,-0.1455385386943817
1781604279252828400,25.229828369140623,-0.640720784664154,1.2032508850097656,-0.44157886505126953
1781604279301344300,25.27834423828125,0.6826413869857788,0.22556181252002716,-0.1496618688106537
1781604279349860000,25.326860107421876,0.050319984555244446,-0.1453094631433487,-0.1498909443616867
1781604279398376000,25.3753759765625,0.6286562085151672,-0.7014254927635193,-0.21151192486286163
1781604279446891800,25.423891845703125,0.5302306413650513,0.47517645359039307,-1.170798659324646
1781604279495407600,25.47240771484375,-0.35048365592956543,0.7037925720214844,-0.7499892115592957
1781604279543923500,25.52092333984375,-1.1834741830825806,0.09758564829826355,-0.8901826739311218
1781604279592439300,25.569439208984374,-0.9900590777397156,-1.151098370552063,-0.8528435826301575
1781604279640955100,25.617955078125,-0.7916043996810913,-1.1189515590667725,-1.1800380945205688
1781604279689471000,25.666470947265626,-0.8052725195884705,-1.0441206693649292,-1.0377064943313599
1781604279737986800,25.71498681640625,-0.4757109582424164,-1.6546800136566162,-1.1680498123168945
1781604279786502700,25.763502685546875,-0.34032803773880005,-1.5696170330047607,0.1049160286784172
1781604279835018500,25.8120185546875,-0.04589121788740158,0.1493564397096634,-0.3972148299217224
1781604279883534300,25.860534423828124,0.16416990756988525,0.48853909969329834,1.3195443153381348
1781604279932050200,25.90905029296875,-0.007788525894284248,-0.1360701322555542,2.2970807552337646
1781604279980565800,25.957565673828125,0.28641921281814575,0.634230375289917,2.614806652069092
1781604280029081600,26.00608154296875,0.07765618711709976,-0.005955931730568409,1.1017709970474243
1781604280077597400,26.054597412109374,1.2439497709274292,0.3280344009399414,-0.20387612283229828
1781604280126113300,26.10311328125,0.8732311725616455,0.883768618106842,0.7099775671958923
1781604280174629000,26.151629150390626,0.09162971377372742,1.0828341245651245,0.3950004279613495
1781604280223145000,26.20014501953125,-0.647516667842865,1.2411245107650757,-0.5216021537780762
1781604280271660800,26.248660888671875,-0.6005564332008362,0.8959859013557434,-0.24579671025276184
1781604280320176600,26.2971767578125,0.7728966474533081,0.20418155193328857,0.07635809481143951
1781604280368692500,26.3456923828125,0.14813470840454102,-0.6622537970542908,-0.07498364895582199
1781604280417208300,26.394208251953124,0.9792925715446472,-0.2997818887233734,-0.6246855854988098
1781604280465724200,26.44272412109375,0.36018115282058716,0.39591673016548157,-1.0013600587844849
1781604280514240000,26.491239990234376,-0.6101775765419006,0.7273872494697571,-0.6327031850814819
1781604280562755800,26.539755859375,-1.2747220993041992,-0.28588470816612244,-0.6785944104194641
1781604280611271700,26.588271728515625,-0.8400917649269104,-0.9405027031898499,-0.9359975457191467
1781604280659787500,26.63678759765625,-0.48243045806884766,-0.6116283535957336,-1.2746456861495972
1781604280708303400,26.685303466796874,-0.7374665141105652,-1.1845431327819824,-1.6394083499908447
1781604280756819200,26.733819091796875,-0.18577924370765686,-1.5422807931900024,-0.49273881316185
1781604280805335000,26.7823349609375,-0.083306685090065,-0.6897426843643188,-0.18180863559246063
1781604280853851000,26.830850830078123,-0.8116865754127502,0.5404626131057739,0.33490660786628723
1781604280902366700,26.87936669921875,-0.2862665057182312,0.3882809281349182,1.3555853366851807
1781604280950882300,26.92788232421875,0.02779434807598591,0.5728384256362915,2.6048800945281982
1781604280999398100,26.976398193359376,-0.04909825697541237,0.7802270650863647,2.681314706802368
1781604281047914000,27.0249140625,0.6424006819725037,-0.12324196845293045,0.12996147572994232
1781604281096429800,27.073429931640625,1.4230095148086548,0.5041161775588989,-0.150196373462677
1781604281144945700,27.121945556640625,0.8931606411933899,1.169653296470642,0.975703775882721
1781604281193461500,27.17046142578125,-0.1735619604587555,1.4637846946716309,0.09117157012224197
1781604281241977300,27.218977294921874,-0.7516691088676453,1.0947459936141968,-0.4633409380912781
1781604281290493000,27.267492919921875,0.38560840487480164,0.37659814953804016,0.03711003437638283
1781604281339008800,27.3160087890625,-0.015958841890096664,-0.039248060435056686,0.06330086290836334
1781604281387524600,27.364524658203123,0.7973312735557556,-0.8215367794036865,-0.3421606421470642
1781604281436040400,27.41304052734375,0.8528435826301575,0.4324159026145935,-1.2097413539886475
1781604281484556300,27.461556396484376,-0.21166464686393738,0.7744238376617432,-0.7504473924636841
1781604281533072100,27.510072021484376,-1.3015238046646118,0.4068359434604645,-0.9747111201286316
1781604281581588000,27.558587890625,-0.8494074940681458,-0.8204677700996399,-0.7431169748306274
1781604281630103800,27.607103759765625,-0.8914044499397278,-0.5778780579566956,-1.1692715883255005
1781604281678619400,27.655619384765625,-0.9523382186889648,-1.1437679529190063,-1.3364194631576538
1781604281727135200,27.70413525390625,-0.6327795386314392,-2.1500914096832275,-0.9311106204986572
1781604281775651000,27.752651123046874,-0.24724751710891724,-1.2215768098831177,0.20448698103427887
1781604281824167000,27.8011669921875,-0.5603920817375183,0.20387612283229828,0.051389001309871674
1781604281872682800,27.849682861328127,0.014202605932950974,0.10644318908452988,1.3951387405395508
1781604281921198600,27.898198486328123,-0.24785839021205902,0.3601047992706299,2.5667011737823486
1781604281969714400,27.94671435546875,-0.2592357397079468,0.9587522745132446,2.8177664279937744
1781604282018230300,27.995230224609376,0.7114284038543701,0.003283398225903511,0.16539163887500763
1781604282066745900,28.043745849609376,1.4257583618164062,-0.06039925664663315,-0.16737695038318634
1781604282115261700,28.09226171875,0.9225585460662842,1.0585522651672363,0.6350703239440918
1781604282163777500,28.140777587890625,-0.10590868443250656,1.6611703634262085,0.1487455666065216
1781604282212293400,28.18929345703125,-0.8137482404708862,1.5975641012191772,-0.38041603565216064
1781604282260809200,28.237809326171874,0.3656025826931,0.8650608658790588,-0.13179408013820648
1781604282309325000,28.286324951171874,0.5542070865631104,-0.01740964688360691,-0.24090979993343353
1781604282357840600,28.334840576171874,1.029459834098816,-0.8498656153678894,-0.21426081657409668
1781604282406356500,28.3833564453125,0.7389936447143555,0.20051635801792145,-1.2134828567504883
1781604282454872300,28.431872314453123,-0.08865175396203995,1.1570543050765991,-1.0319796800613403
1781604282503388200,28.48038818359375,-1.5474731922149658,0.5758927464485168,-0.8021417856216431
1781604282551904000,28.528904052734376,-1.0584759712219238,-0.7487674951553345,-0.7753401398658752
1781604282600419800,28.577419921875,-0.950581967830658,-0.43233954906463623,-1.0428988933563232
1781604282648935700,28.625935791015625,-1.021289587020874,-0.7512109875679016,-1.4301871061325073
1781604282697451300,28.674451171875,-0.8067232966423035,-1.824271321296692,-1.251509189605713
1781604282745967000,28.722967041015625,-0.2487746775150299,-1.8211406469345093,0.36308276653289795
1781604282794483000,28.77148291015625,-0.3404807448387146,0.2144898921251297,-0.18310672044754028
1781604282842998800,28.819998779296874,-0.13820815086364746,0.9924262166023254,2.141921043395996
1781604282891514600,28.8685146484375,0.027259841561317444,0.7419716119766235,2.8238751888275146
1781604282940030500,28.917030517578127,0.09934188425540924,0.02214384824037552,2.399782180786133
1781604282988546000,28.965546142578123,0.32246023416519165,0.13942988216876984,0.3422369956970215
1781604283037062000,29.014061767578124,1.5204424858093262,0.7835104465484619,-0.5606211423873901
1781604283085577700,29.06257763671875,0.964784562587738,1.2798380851745605,0.7286853194236755
1781604283134093600,29.111093505859376,-0.19769111275672913,1.808923363685608,0.05818486958742142
1781604283182609200,29.159609130859376,-1.0374010801315308,1.5024982690811157,-0.25641047954559326
1781604283231125000,29.208125,0.8302416205406189,0.1833357959985733,0.03321577236056328
1781604283279640800,29.256640869140625,0.12774710357189178,-0.35727953910827637,0.12385283410549164
1781604283328156700,29.30515673828125,1.148425817489624,-0.9532544612884521,-0.34498587250709534
1781604283376672300,29.35367236328125,0.6739365458488464,0.13507747650146484,-1.179121732711792
1781604283425188000,29.40218798828125,-0.675616443157196,1.1617120504379272,-0.9086613655090332
1781604283473704000,29.450703857421875,-1.4146101474761963,-0.031612250953912735,-0.7693078517913818
1781604283522219800,29.4992197265625,-0.85918128490448,-1.1778236627578735,-0.9891427755355835
1781604283570735400,29.5477353515625,-0.9509637355804443,-0.9723440408706665,-1.1481966972351074
1781604283619251200,29.596251220703124,-1.1117738485336304,-1.6089414358139038,-1.376049280166626
1781604283667767000,29.64476708984375,-0.6160571575164795,-2.135812282562256,-0.6097957491874695
1781604283716283000,29.693282958984376,-0.15447242558002472,-0.755181610584259,-0.04176788032054901
1781604283764798500,29.741798583984377,-0.20601414144039154,0.5823068618774414,0.6088794469833374
1781604283813314300,29.790314208984373,-0.013668099418282509,0.8885791897773743,2.4013094902038574
1781604283861830100,29.838830078125,-0.03405570983886719,0.6107120513916016,2.8570146560668945
1781604283910346000,29.887345947265626,-0.22594361007213593,0.12767073512077332,1.8137339353561401
1781604283958861800,29.93586181640625,1.2662463188171387,-0.03138317912817001,-0.3678169548511505
1781604284007377400,29.98437744140625,1.4093414545059204,0.9925025701522827,0.07589995115995407
1781604284055893200,30.032893310546875,0.5343539714813232,1.5806889533996582,0.6365211009979248
1781604284104409000,30.0814091796875,-0.6065123677253723,1.1547634601593018,-0.3153589367866516
1781604284152924700,30.129924560546876,-0.32452189922332764,0.9812778830528259,-0.20967933535575867
1781604284201440500,30.1784404296875,1.067104458808899,0.7515164017677307,-0.08223766833543777
1781604284249956400,30.226956298828124,0.7951932549476624,-1.1452187299728394,-0.22556181252002716
1781604284298472000,30.275471923828125,0.942335307598114,0.1101083755493164,-0.9596685767173767
1781604284346987800,30.32398779296875,0.1914297491312027,0.6997455954551697,-1.1268928050994873
1781604284395503600,30.372503662109374,-1.4466041326522827,0.708145022392273,-0.736244797706604
1781604284444019200,30.421019287109374,-1.6407064199447632,-0.9629519581794739,-0.53931725025177
1781604284492535000,30.46953515625,-1.1029163599014282,-1.0900118350982666,-1.1690424680709839
1781604284541051000,30.51805078125,-1.0782526731491089,-0.9917389750480652,-1.1965314149856567
1781604284589566700,30.566566650390627,-0.97600919008255,-2.053727388381958,-1.6087887287139893
1781604284638082300,30.615082275390623,-0.23472478985786438,-2.249356746673584,0.4067595899105072
1781604284686598100,30.66359814453125,-0.4805978536605835,0.08811724185943604,-0.44386962056159973
1781604284783629600,30.760629638671876,-0.11262819170951843,0.6302597522735596,2.3313653469085693
1781604284832145400,30.8091455078125,-0.021609341725707054,1.0041090250015259,2.8019604682922363
1781604284880661000,30.857660888671877,-0.09506583213806152,0.10346522182226181,1.6024510860443115
1781604284929176800,30.9061767578125,1.4970768690109253,0.19219332933425903,-0.6122392416000366
1781604284977692700,30.954692626953126,1.3009892702102661,1.119180679321289,0.3657552897930145
1781604285026208300,31.003208251953126,0.38385215401649475,1.5551090240478516,0.6985238790512085
1781604285074724000,31.05172412109375,-0.7044034600257874,1.792353630065918,-0.35384342074394226
1781604285123240000,31.100239990234375,-0.05261072888970375,1.4903573989868164,-0.13973531126976013
1781604285171755500,31.148755615234375,0.8824705481529236,-0.09071341902017593,-0.1455385386943817
1781604285220271400,31.197271240234375,0.7321978211402893,-1.46951162815094,-0.6021599769592285
1781604285268787000,31.245786865234376,1.0787107944488525,-0.4010327160358429,-1.2026400566101074
1781604285317302800,31.294302734375,-0.15729768574237823,0.7139481902122498,-1.1123847961425781
1781604285365818600,31.342818603515624,-1.7148501873016357,0.45539969205856323,-0.8117629289627075
1781604285414334200,31.391334228515625,-1.3180171251296997,-1.3336704969406128,-1.081536054611206
1781604285462850000,31.43985009765625,-0.9986112117767334,-1.1759146451950073,-1.1824815273284912
1781604285511366000,31.488365966796874,-1.1242202520370483,-1.3132829666137695,-1.327332854270935
1781604285559881500,31.536881591796874,-0.5655080676078796,-2.497978687286377,-1.2144755125045776
1781604285608397300,31.585397216796874,-0.09056070446968079,-2.0265438556671143,0.6346884965896606
1781604285656913000,31.633912841796874,-0.29993459582328796,0.35537058115005493,-0.2548833191394806
1781604285705428700,31.6824287109375,-0.4430296719074249,1.1568251848220825,1.8978041410446167
1781604285753944300,31.7309443359375,0.013362666592001915,0.8522327542304993,2.716210126876831
1781604285802460200,31.779460205078124,0.05024362727999687,0.718758761882782,2.6216025352478027
1781604285850975700,31.827975830078124,0.2643517255783081,0.4725802540779114,0.4309650957584381
1781604285899491600,31.87649169921875,1.697135090827942,1.160719394683838,-0.7554870247840881
1781604285948007400,31.92500732421875,1.1419353485107422,1.784030556678772,0.8535308241844177
1781604285996523000,31.97352294921875,-0.09903645515441895,2.106032609939575,0.301003634929657
1781604286045038800,32.02203881835938,-1.0470986366271973,1.7880011796951294,-0.14889828860759735
1781604286093554400,32.07055444335938,0.3721693754196167,0.5335903763771057,0.0703258067369461
1781604286142070300,32.1190703125,0.347123920917511,-0.3903425931930542,-0.07895427197217941
1781604286190585900,32.1675859375,1.4867684841156006,-1.3690242767333984,-0.5264127254486084
1781604286239101700,32.21610180664062,0.8206204771995544,0.2603811025619507,-1.2884665727615356
1781604286287617500,32.26461743164062,-0.42539095878601074,0.9020181894302368,-0.8649081587791443
1781604286336133000,32.31313305664062,-1.8840596675872803,-0.2620609998703003,-0.6543125510215759
1781604286384649000,32.36164892578125,-1.2099703550338745,-1.700418472290039,-0.8097012639045715
1781604286433164500,32.41016455078125,-1.0440442562103271,-0.8947641849517822,-1.0364084243774414
1781604286481680400,32.458680419921876,-1.0090723037719727,-1.1934770345687866,-1.5900046825408936
1781604286530196000,32.507196044921876,-0.32299473881721497,-2.031278133392334,-1.4824161529541016
1781604286578711800,32.5557119140625,-0.07215840369462967,-1.5349504947662354,0.47326749563217163
1781604286627227400,32.60422729492188,-0.4098902642726898,0.41302093863487244,-0.13591741025447845
1781604286675743200,32.6527431640625,-0.432110458612442,0.5720748901367188,1.8403065204620361
1781604286724258800,32.7012587890625,-0.2467893660068512,0.6126973628997803,2.7094907760620117
1781604286772774700,32.74977465820312,0.06650790572166443,0.6853139400482178,2.497673273086548
1781604286821290200,32.79829028320312,0.11026109009981155,-0.047723811119794846,0.6934842467308044
1781604286869806000,32.84680615234375,1.5770237445831299,1.081307053565979,-0.7472403645515442
1781604286918321700,32.89532177734375,1.2374593019485474,1.6133702993392944,0.5787180066108704
1781604286966837500,32.94383740234375,0.14004075527191162,1.7683007717132568,0.19562944769859314
1781604287015353000,32.99235302734375,-1.0633628368377686,1.528383731842041,-0.18471023440361023
1781604287063869000,33.040868896484376,-0.012140937149524689,1.08100163936615,0.17753258347511292
1781604287112384500,33.08938452148438,0.9799798130989075,-0.07307469844818115,0.017486004158854485
1781604287160900400,33.137900390625,0.4990765154361725,-1.3406955003738403,-0.37491825222969055
1781604287209416000,33.186416015625,1.2235621213912964,0.09605848789215088,-1.0394628047943115
1781604287257931500,33.234931640625,0.10422880202531815,0.5664243698120117,-0.9582940936088562
1781604287306447400,33.283447265625,-1.5736640691757202,0.6058251261711121,-0.6462949514389038
1781604287354963000,33.331962890625,-1.4603486061096191,-1.1690424680709839,-0.6604975461959839
1781604287403478800,33.38047875976562,-0.9149227142333984,-1.386052131652832,-1.2968659400939941
1781604287451994400,33.42899438476562,-1.106123447418213,-1.3657408952713013,-1.3024400472640991
1781604287500510200,33.47751025390625,-0.6624065041542053,-2.6040401458740234,-1.521206021308899
1781604287549025800,33.52602587890625,0.07315105944871902,-2.395429849624634,0.4845684766769409
1781604287597541400,33.574541259765624,-0.432110458612442,0.187382772564888,-0.5523744821548462
1781604287646057200,33.62305712890625,-0.43974629044532776,1.1559088230133057,1.5322015285491943
1781604287694573000,33.67157299804688,-0.3652207851409912,1.0926843881607056,2.5083634853363037
1781604287743088600,33.72008862304688,0.09880737960338593,1.22638738155365,2.5558581352233887
1781604287791604200,33.76860424804688,-0.09941824525594711,0.1888335794210434,1.4136937856674194
1781604287840120000,33.8171201171875,1.5164718627929688,1.314504623413086,-1.0108284950256348
1781604287888635600,33.8656357421875,1.346498727798462,1.5473204851150513,0.4849502742290497
1781604287937151500,33.9141513671875,0.3738492429256439,1.8908555507659912,0.5807033181190491
1781604287985667000,33.9626669921875,-0.902400016784668,1.4566071033477783,-0.30657777190208435
1781604288034182700,34.0111826171875,-0.29245150089263916,0.901789128780365,-0.01565340906381607
1781604288082698500,34.059698486328124,1.0906990766525269,0.03130681812763214,0.26679518818855286
1781604288131214000,34.108214111328124,0.4338667094707489,-1.2824342250823975,-0.3833940029144287
1781604288179730000,34.15672998046875,1.193095326423645,0.02084576152265072,-1.1307107210159302
1781604288228245500,34.20524560546875,0.2742019295692444,0.5299251675605774,-1.0544289350509644
1781604288276761000,34.253760986328125,-1.7148501873016357,0.4635699987411499,-0.7687733173370361
1781604288325277000,34.30227685546875,-1.5249475240707397,-1.5557198524475098,-0.7155517339706421
1781604288373792500,34.35079248046875,-1.0166317224502563,-1.8417572975158691,-1.2573124170303345
1781604288422308000,34.39930810546875,-1.1463640928268433,-1.4020110368728638,-1.1192569732666016
1781604288470824000,34.44782397460938,-0.7509055137634277,-1.9939390420913696,-1.6301690340042114
1781604288519339500,34.49633959960938,0.05001455545425415,-1.9174281358718872,0.4531853199005127
1781604288567855400,34.54485546875,-0.2626718580722809,0.3591884970664978,-0.43287405371665955
1781604288616371000,34.59337084960937,-0.11133010685443878,0.7848085165023804,1.6384921073913574
1781604288664886500,34.64188647460937,-0.21975859999656677,0.8380300998687744,2.5717406272888184
1781604288713402000,34.69040209960937,0.16523891687393188,0.9560033679008484,2.6174027919769287
1781604288761918000,34.73891796875,0.24434591829776764,0.28588470816612244,0.8728494048118591
1781604288810433500,34.78743359375,1.3547453880310059,1.08978271484375,-0.7243329286575317
1781604288858949400,34.835949462890625,1.11345374584198,1.7310380935668945,0.5002219080924988
1781604288907465000,34.88446484375,0.05352702736854553,1.9352959394454956,0.5114465355873108
1781604288955980500,34.93298046875,-0.9756274223327637,1.577481985092163,-0.26648977398872375
1781604289004496400,34.981496337890626,0.3917170464992523,0.5187768936157227,0.13828451931476593
1781604289053012000,35.030011962890626,0.5559632778167725,-0.21265730261802673,0.12759438157081604
1781604289101527600,35.078527587890626,1.2138646841049194,-1.5399900674819946,-0.3526217043399811
1781604289150043100,35.12704321289063,0.6533198952674866,0.2231183648109436,-1.3552035093307495
1781604289198559000,35.17555908203125,-0.4021017551422119,0.7989347577095032,-0.9106466770172119
1781604289247074600,35.22407446289063,-1.7899101972579956,-0.383470356464386,-0.6959276795387268
1781604289295590100,35.27259008789063,-1.1624757051467896,-1.778456449508667,-0.6698132157325745
1781604289344106000,35.32110595703125,-0.8788816928863525,-0.9471458196640015,-0.9286671876907349
1781604289392621600,35.36962158203125,-1.0118211507797241,-0.9539417028427124,-1.5473204851150513
1781604289441137200,35.41813720703125,-0.5319104790687561,-1.5964187383651733,-1.4500402212142944
1781604289489653000,35.46665307617187,-0.170965775847435,-1.4262166023254395,0.2136499583721161
1781604289538168600,35.51516845703125,-0.3324631452560425,0.33628106117248535,-0.14782927930355072
1781604289586684200,35.56368408203125,-0.19753839075565338,0.6982948184013367,1.658497929573059
1781604289635200000,35.612199951171874,-0.09453132748603821,0.5563451051712036,2.6706244945526123
1781604289732231200,35.709231201171875,0.3862192630767822,-0.04734202101826668,0.5521454215049744
1781604289780747000,35.7577470703125,1.6635375022888184,0.9598212838172913,-0.755181610584259
1781604289829262600,35.8062626953125,1.1364375352859497,1.454087257385254,0.6689732670783997
1781604289877778200,35.854778076171876,-0.15806126594543457,2.0733513832092285,0.2961167097091675
1781604289926293800,35.903293701171876,-1.0051016807556152,1.53983736038208,-0.12851068377494812
1781604289974809600,35.9518095703125,0.7147117853164673,0.3804923892021179,0.13011419773101807
1781604290023325200,36.0003251953125,0.28183773159980774,-0.0023671009112149477,-0.24404047429561615
1781604290071840800,36.0488408203125,0.5561923980712891,-1.465311884880066,-0.40026915073394775
1781604290120356400,36.0973564453125,0.9534072279930115,0.10461059212684631,-1.2160791158676147
1781604290168872200,36.1458720703125,-0.1464548259973526,0.5049561262130737,-1.0122792720794678
1781604290217387800,36.1943876953125,-1.820529818534851,0.42653632164001465,-0.7396808862686157
1781604290265903400,36.2429033203125,-1.2667808532714844,-1.2933534383773804,-0.8907172083854675
1781604290314419000,36.2914189453125,-0.9549343585968018,-1.4664572477340698,-1.437822937965393
1781604290362934500,36.3399345703125,-0.9904409050941467,-1.611079454421997,-1.4572179317474365
1781604290411450400,36.38845043945312,-0.6927206516265869,-2.3684754371643066,-1.0027345418930054
1781604290459966000,36.436966064453124,-0.20509785413742065,-1.3516910076141357,0.46715885400772095
1781604290508481500,36.4854814453125,-0.31848961114883423,0.36079201102256775,-0.15928299725055695
1781604290556997000,36.5339970703125,-0.26946771144866943,0.6806560754776001,2.149709463119507
1781604290605513000,36.582512939453125,-0.4176788032054901,0.884379506111145,2.5880813598632812
1781604290654028500,36.631028564453125,-0.004581485874950886,0.7531198859214783,2.4980552196502686
1781604290702544100,36.679544189453125,0.7930551767349243,-0.04589121788740158,0.044669486582279205
1781604290751059700,36.728059814453125,1.5050944089889526,1.2038617134094238,-0.518318772315979
1781604290799575600,36.776575439453126,0.9057597517967224,1.8407646417617798,0.8950695991516113
1781604290848091100,36.825091064453126,-0.28092142939567566,1.8303799629211426,0.4387536346912384
1781604290896606700,36.873606689453126,-0.9009491801261902,1.3652064800262451,-0.330706924200058
1781604290945122300,36.92212231445313,0.8147408962249756,0.29306238889694214,-0.1207985132932663
1781604290993638000,36.97063793945313,0.38408124446868896,-0.9035453796386719,0.05612320080399513
1781604291042153700,37.01915380859375,1.172402262687683,-0.9860884547233582,-0.8103121519088745
1781604291090669300,37.06766943359375,0.5989528894424438,0.18066325783729553,-1.315726399421692
1781604291139185000,37.11618481445313,-0.8932369947433472,0.9098067283630371,-0.879339873790741
1781604291187700500,37.16470043945313,-1.845575213432312,-0.4854084253311157,-0.7904590368270874
1781604291236216000,37.21321606445313,-0.808937668800354,-1.4196497201919556,-0.9555452466011047
1781604291284732000,37.26173193359375,-0.9073632955551147,-1.1799616813659668,-1.1766782999038696
1781604291333247500,37.31024755859375,-0.7311288118362427,-1.9846233129501343,-1.7153083086013794
1781604291381763000,37.35876318359375,-0.29703301191329956,-2.5269949436187744,0.11896591633558273
1781604291430278700,37.40727856445312,-0.347123920917511,-0.1380554437637329,-0.41462448239326477
1781604291478794200,37.45579418945312,-0.2617555558681488,0.6370556354522705,1.0132719278335571
1781604291527310000,37.50431005859375,-0.1922696828842163,0.8219949007034302,2.464381217956543
1781604291575825700,37.55282568359375,0.15790854394435883,1.0669517517089844,2.602665662765503
1781604291624341200,37.60134130859375,-0.06895136088132858,0.1482110619544983,1.8607704639434814
1781604291672856800,37.64985693359375,1.2750275135040283,0.4010327160358429,-0.7023417949676514
1781604291721372400,37.698372314453124,1.2774709463119507,1.234939455986023,0.23915356397628784
1781604291769888300,37.74688818359375,0.44295331835746765,2.0200533866882324,0.7801506519317627
1781604291818403800,37.79540380859375,-0.8594867587089539,1.8640538454055786,-0.2603811025619507
1781604291866919400,37.84391943359375,-0.24236060678958893,1.1358267068862915,-0.2331976294517517
1781604291915435000,37.89243505859375,0.8300125002861023,0.10583232343196869,0.2548069655895233
1781604291963950600,37.94095068359375,0.9131664633750916,-1.473940372467041,-0.16554436087608337
1781604292012466200,37.989466064453126,0.8094722032546997,-0.3877464234828949,-1.077107310295105
1781604292060982000,38.03798193359375,0.06101011857390404,1.0654245615005493,-0.9124029278755188
1781604292109497600,38.08649755859375,-1.5458697080612183,0.6701186895370483,-0.7221949100494385
1781604292158013200,38.13501318359375,-1.1786636114120483,-1.34947669506073,-0.5693259835243225
1781604292206528800,38.18352880859375,-0.7689260244369507,-1.3500111103057861,-0.9731839299201965
1781604292255044400,38.23204443359375,-0.8770490884780884,-1.2638028860092163,-1.2609776258468628
1781604292303560000,38.28055981445313,-0.6388118267059326,-2.0966405868530273,-1.6121485233306885
1781604292352075800,38.32907568359375,-0.30344706773757935,-2.1000003814697266,0.13660463690757751
1781604292400591400,38.37759130859375,-0.41355544328689575,0.09521854668855667,-0.6330850124359131
1781604292449107000,38.42610693359375,-0.38652467727661133,0.9702823162078857,1.1466695070266724
1781604292497622500,38.47462255859375,-0.18402300775051117,0.8418480157852173,2.32464599609375
1781604292546138000,38.52313818359375,0.10186170041561127,1.0071632862091064,2.5841870307922363
1781604292594653700,38.57165380859375,-0.08414662629365921,0.14141519367694855,1.5318198204040527
1781604292643169500,38.62016943359375,1.3410009145736694,0.6077340841293335,-0.6462949514389038
1781604292691684900,38.66868481445312,1.2536472082138062,1.0948224067687988,0.3119228184223175
1781604292740200400,38.71720043945312,0.3938550651073456,1.870391607284546,0.6892845630645752
1781604292788716300,38.76571630859375,-0.8359684348106384,1.508759617805481,-0.23686282336711884
1781604292837231900,38.81423193359375,-0.1689804643392563,0.9078214168548584,-0.23884813487529755
1781604292885747500,38.86274755859375,0.797713041305542,-0.064598947763443,0.17188207805156708
1781604292934263000,38.911262939453124,0.6171261668205261,-1.2116502523422241,-0.20288346707820892
1781604292982778600,38.959778564453124,0.888502836227417,-0.4143190383911133,-1.0787872076034546
1781604293031294200,39.008294189453125,0.1406516134738922,0.47868892550468445,-0.8990402221679688
1781604293079810000,39.05681005859375,-1.4602723121643066,0.625067412853241,-0.8564324378967285
1781604293128325600,39.10532568359375,-1.3878084421157837,-1.2105813026428223,-0.5720748901367188
1781604293176841200,39.15384130859375,-0.749531090259552,-1.3434443473815918,-1.2470804452896118
1781604293225356800,39.202356689453126,-0.9088140726089478,-1.3219877481460571,-1.3360376358032227
1781604293273872400,39.250872314453126,-0.6815723776817322,-2.1467316150665283,-1.557552456855774
1781604293322388000,39.299387939453126,-0.18409937620162964,-1.9178863763809204,0.47815442085266113
1781604293370903600,39.34790356445313,-0.3565923273563385,0.14698933064937592,-0.554665207862854
1781604293419419100,39.39641918945313,-0.28932082653045654,0.7222712635993958,1.1334595680236816
1781604293467934700,39.44493481445313,-0.07559451460838318,0.4912116527557373,2.157116174697876
1781604293516450600,39.49345043945313,-0.07215840369462967,1.0525963306427002,2.783099889755249
1781604293564966100,39.54196606445313,-0.014126247726380825,0.5502364635467529,1.5933644771575928
1781604293613481700,39.59048168945313,1.4769946336746216,0.047494735568761826,-0.5985711216926575
1781604293661997300,39.63899731445313,1.2176061868667603,1.2285254001617432,0.30367615818977356
1781604293710513000,39.68751293945313,0.3191768527030945,1.7221804857254028,0.8449786901473999
1781604293759028500,39.73602856445312,-0.8045089244842529,1.3742930889129639,-0.3035998046398163
1781604293807544000,39.7845439453125,-0.1766926348209381,1.0661118030548096,-0.41149377822875977
1781604293856059600,39.8330595703125,0.6645445227622986,0.3271944522857666,0.3344484567642212
1781604293904575200,39.8815751953125,0.20341797173023224,-0.9781472086906433,-0.3360520005226135
1781604293953091000,39.93009106445312,1.2827396392822266,-0.1876882016658783,-0.9553161859512329
1781604294001606700,39.97860668945312,0.22556181252002716,0.5891790986061096,-1.0147227048873901
1781604294050134300,40.02713427734375,-1.4718786478042603,0.7912226319313049,-0.7373901605606079
1781604294098637800,40.075637939453124,-1.359174132347107,-1.1410953998565674,-0.7696132659912109
1781604294147153400,40.1241533203125,-0.905912458896637,-1.708741545677185,-1.3563488721847534
1781604294195669000,40.1726689453125,-1.0291544198989868,-1.7427972555160522,-1.4181225299835205
1781604294244184600,40.2211845703125,-0.531605064868927,-2.5077526569366455,-1.4147628545761108
1781604294292700200,40.2697001953125,-0.23548837006092072,-1.743255376815796,0.38324129581451416
1781604294341215700,40.3182158203125,-0.31093016266822815,0.2211330533027649,-0.41851872205734253
1781604294389731600,40.366731689453125,-0.031230462715029716,0.8335250020027161,1.3449715375900269
1781604294438247200,40.4152470703125,-0.2582430839538574,0.7701478004455566,2.3684754371643066
1781604294486762800,40.4637626953125,0.3782016634941101,0.9039271473884583,2.6198463439941406
1781604294535278300,40.5122783203125,-0.0642935186624527,0.13698641955852509,1.292360782623291
1781604294583794000,40.5607939453125,1.1913390159606934,1.074434757232666,-0.6890554428100586
1781604294632309500,40.6093095703125,1.1858412027359009,1.5875612497329712,0.4497492015361786
1781604294680825000,40.6578251953125,0.16737695038318634,1.9580507278442383,0.606970489025116
1781604294729340700,40.706340576171876,-0.7599921226501465,1.5191442966461182,-0.2692386507987976
1781604294777856500,40.7548564453125,-0.059864748269319534,0.7661771774291992,-0.12660172581672668
1781604294826371800,40.803371826171876,0.6148353815078735,-0.3649153411388397,0.36025750637054443
1781604294874887400,40.851887451171876,-0.1432477980852127,-0.7925970554351807,-0.2804632782936096
1781604294923403300,40.9004033203125,1.2874739170074463,-0.23747368156909943,-0.9992983937263489
1781604294971918800,40.9489189453125,0.3822486400604248,0.33979353308677673,-1.160719394683838
1781604295020434400,40.99743432617188,-1.270216941833496,0.7754164934158325,-0.8294016718864441
1781604295068950000,41.04594995117188,-1.4799726009368896,-0.9504292607307434,-0.7063124179840088
1781604295117465600,41.09446557617188,-0.8466585874557495,-1.7474550008773804,-1.2218822240829468
1781604295165981200,41.14298120117188,-0.9558506608009338,-1.479285478591919,-1.1605666875839233
1781604295214496800,41.19149682617188,-0.702799916267395,-2.234467029571533,-1.512959361076355
1781604295263012400,41.24001245117187,-0.19349141418933868,-1.87222421169281,0.2666424810886383
1781604295311528000,41.28852783203125,-0.22930335998535156,0.2945895493030548,-0.40897396206855774
1781604295360043500,41.33704345703125,-0.12140937149524689,1.2634974718093872,1.1531599760055542
1781604295408559000,41.38555908203125,-0.22098033130168915,1.0325905084609985,2.3282346725463867
1781604295457075000,41.43407495117187,0.4655553102493286,0.8342885971069336,2.350149631500244
1781604295505590500,41.48259057617187,-0.33887723088264465,0.12751802802085876,1.7238603830337524
1781604295554106000,41.53110620117187,1.2316560745239258,0.6314814686775208,-0.7185297012329102
1781604295602621700,41.57962158203125,1.258686900138855,1.2246311902999878,0.2854265570640564
1781604295651137300,41.62813720703125,0.3324631452560425,1.6780455112457275,0.6806560754776001
1781604295699652900,41.67665283203125,-0.7197514176368713,1.5000548362731934,-0.20387612283229828
1781604295748168400,41.72516845703125,-0.41042476892471313,1.1504111289978027,-0.1446985900402069
1781604295796684000,41.77368408203125,1.1010074615478516,-0.1738673895597458,0.16355904936790466
1781604295845199600,41.82219970703125,0.1758527010679245,-1.2041672468185425,-0.3001636862754822
1781604295893715200,41.87071508789062,1.1181880235671997,-0.6449204683303833,-0.8646790981292725
1781604295942230800,41.919230712890624,0.43401941657066345,0.40378162264823914,-1.3025164604187012
1781604295990746400,41.967746337890624,-1.2789981365203857,1.0679444074630737,-0.7799215912818909
1781604296039262200,42.01626220703125,-1.6354377269744873,-0.6925679445266724,-0.7040216326713562
1781604296087777500,42.064777587890624,-0.7729730010032654,-1.4888302087783813,-1.1563670635223389
1781604296136293400,42.11329345703125,-0.8863648176193237,-1.414991855621338,-1.1112394332885742
1781604296184809000,42.16180908203125,-0.7988584041595459,-2.22385311126709,-1.5731295347213745
1781604296233324500,42.210324462890625,-0.37270388007164,-2.3425137996673584,0.38614290952682495
1781604296281840000,42.258840087890626,-0.23541201651096344,-0.01893680728971958,-0.5838339924812317
1781604296330355700,42.307355712890626,-0.18661919236183167,0.766406238079071,1.182176113128662
1781604296378871300,42.355871337890626,-0.14637847244739532,0.905912458896637,2.3300673961639404
1781604296427387000,42.40438696289063,0.041615162044763565,1.0275509357452393,2.767751932144165
1781604296475902500,42.45290234375,-0.12492185086011887,0.6430879235267639,1.6258165836334229
1781604296524418000,42.50141796875,1.4476732015609741,0.9198096394538879,-0.7493783831596375
1781604296572933600,42.54993359375,1.3241257667541504,1.4705805778503418,0.35727953910827637
1781604296621449200,42.59844921875,0.3513999581336975,1.7859395742416382,0.8635337352752686
1781604296669965000,42.64696508789063,-0.8874338269233704,1.6453642845153809,-0.2240346521139145
1781604296718480400,42.69548046875,-0.23357942700386047,1.051985502243042,-0.029474224895238876
1781604296766996000,42.74399584960938,1.206916093826294,0.2603047490119934,-0.19104796648025513
1781604296815511800,42.79251171875,0.5468766689300537,-1.6099340915679932,-0.2968802750110626
1781604296864027400,42.84102734375,1.0370956659317017,-0.5654317140579224,-1.156977891921997
1781604296912542700,42.88954272460938,0.13851359486579895,0.6840158104896545,-1.0997092723846436
1781604296961058600,42.93805859375,-1.4729477167129517,0.7490729093551636,-0.7754164934158325
1781604297009574100,42.98657421875,-1.3938406705856323,-1.225318431854248,-0.5994110703468323
1781604297058089700,43.03508984375,-0.902400016784668,-1.2374593019485474,-1.0037271976470947
1781604297106605300,43.08360522460937,-0.9075160026550293,-0.9964731931686401,-1.0911571979522705
1781604297155121000,43.13212084960937,-0.6789761781692505,-1.8007529973983765,-1.6748385429382324
1781604297203636500,43.18063647460937,-0.21540619432926178,-2.1516947746276855,0.1992182731628418
1781604297252152000,43.22915209960937,-0.2548833191394806,0.0703258067369461,-0.5516872406005859
1781604297300667600,43.27766772460937,-0.31383177638053894,0.6879100799560547,0.9009491801261902
1781604297349183200,43.32618334960937,-0.13683371245861053,0.9081268310546875,2.1384849548339844
1781604297397698800,43.37469873046875,-0.01511890348047018,1.2424225807189941,2.825096845626831
1781604297446214400,43.42321435546875,-0.060322895646095276,0.27175846695899963,1.7597486972808838
1781604297494730000,43.47172998046875,1.2368484735488892,0.39996370673179626,-0.5456549525260925
1781604297543245600,43.52024560546875,1.3250420093536377,1.20577073097229,0.1813504844903946
1781604297591761400,43.568761474609374,0.5128209590911865,1.6413936614990234,0.7113520503044128
1781604297640276700,43.61727685546875,-0.6870701313018799,1.166369915008545,-0.15271618962287903
1781604297688792300,43.66579223632812,-0.5814669132232666,0.8718567490577698,-0.19349141418933868
1781604297737308200,43.71430810546875,1.07558012008667,-0.0902552679181099,0.11255183815956116
1781604297785823500,43.762823486328124,0.29474225640296936,-0.9182825088500977,-0.2412915825843811
1781604297834339300,43.81133935546875,0.8994220495223999,-0.5746710300445557,-0.7254782915115356
1781604297882855000,43.85985498046875,0.5193877816200256,0.060704685747623444,-1.2351685762405396
1781604297931370200,43.908370361328124,-0.959134042263031,0.8168789148330688,-1.033964991569519
1781604297979886000,43.956885986328125,-1.7139338254928589,-0.5438223481178284,-0.6232348084449768
1781604298028401700,44.005401611328125,-0.9540180563926697,-1.3180934190750122,-0.95149827003479
1781604298076917000,44.0539169921875,-0.8501710295677185,-1.0547343492507935,-1.0375537872314453
1781604298125432800,44.102432861328126,-0.8400917649269104,-1.6227623224258423,-1.645975112915039
1781604298173948400,44.150948486328126,-0.23228132724761963,-2.109774351119995,-0.050549060106277466
1781604298222463700,44.199463623046874,-0.21716243028640747,-0.3136027157306671,-0.2407570779323578
1781604298270979600,44.2479794921875,-0.43004879355430603,0.7451786994934082,0.47067132592201233
1781604298319495200,44.2964951171875,-0.20838125050067902,0.7391464114189148,2.045633316040039
1781604298368010800,44.3450107421875,-0.1617264449596405,0.9076687097549438,2.589913845062256
1781604298416526300,44.3935263671875,-0.2599993348121643,0.33948808908462524,2.4469716548919678
1781604298465042000,44.4420419921875,0.9786053895950317,0.145843967795372,-0.29856017231941223
1781604298513557200,44.49055712890625,1.503490924835205,0.6181951761245728,-0.33567020297050476
1781604298562073000,44.539072998046876,0.7559451460838318,1.4730240106582642,0.9321796298027039
1781604298610588700,44.58758862304688,-0.19700388610363007,1.5825215578079224,0.12217295914888382
1781604298659104300,44.63610424804688,-0.7804561257362366,1.5243366956710815,-0.3196350038051605
1781604298707619800,44.68461987304688,0.6794343590736389,0.3869064748287201,-0.04917461425065994
1781604298756135400,44.73313549804688,0.2822195291519165,-1.0579414367675781,-0.15034909546375275
1781604298804651000,44.78165112304688,1.0244965553283691,-1.152549147605896,-0.5697841048240662
1781604298853166600,44.83016650390625,0.5969675779342651,0.07567087560892105,-1.0031163692474365
1781604298901682200,44.87868212890625,-0.7023417949676514,1.1748456954956055,-0.8879683017730713
1781604298950197800,44.92719775390625,-1.4811179637908936,-0.01107192412018776,-0.8249728679656982
1781604298998713300,44.97571337890625,-0.7890082001686096,-1.4078905582427979,-1.191873550415039
1781604299047229000,45.02422900390625,-0.7283035516738892,-0.9612720608711243,-1.1583523750305176
1781604299095744500,45.07274462890625,-0.850934624671936,-1.5391501188278198,-1.53983736038208
1781604299144260000,45.12126000976563,-0.4224129915237427,-1.8853577375411987,-0.6799688339233398
1781604299192775700,45.16977563476563,-0.13858994841575623,-0.6681333780288696,0.1153007298707962
1781604299241291300,45.21829125976563,-0.23655737936496735,0.47235119342803955,0.05940660089254379
1781604299289806800,45.26680688476562,-0.15958842635154724,0.6719512343406677,1.6936225891113281
1781604299338322400,45.31532250976562,-0.09392046183347702,0.8046616315841675,2.48423433303833
1781604299386838000,45.36383813476562,0.028863361105322838,0.808937668800354,2.5715880393981934
1781604299435353600,45.412353515625,0.44761115312576294,-0.35010188817977905,0.31383177638053894
1781604299483869200,45.460869140625,1.2502875328063965,0.4105011224746704,-0.15378521382808685
1781604299532384800,45.509384765625,0.8116865754127502,1.3304635286331177,0.6520217657089233
1781604299580900400,45.557900390625,0.1311832070350647,1.1998910903930664,0.34658941626548767
1781604299629416000,45.606416015625,-0.7169261574745178,1.1192569732666016,-0.3477347791194916
1781604299677931500,45.654931640625,0.010537417605519295,0.7628173828125,0.056810423731803894
1781604299726447000,45.70344702148437,0.6301833987236023,-0.06979130208492279,0.11606431007385254
1781604299774962700,45.75196264648437,0.34170249104499817,-0.9054543375968933,-0.18463388085365295
1781604299823478300,45.80047827148437,0.6192641854286194,-0.044211339205503464,-0.8834632039070129
1781604299871994000,45.848994140625,0.0487164668738842,0.10835213959217072,-0.9469931125640869
1781604299920509400,45.89750952148437,-1.2815942764282227,0.29535311460494995,-1.0191515684127808
1781604299969025000,45.94602490234375,-0.8856012225151062,-0.7484620809555054,-0.8062651753425598
1781604300017540900,45.994540771484374,-0.6181188225746155,-0.806876003742218,-1.2594504356384277
1781604300066056200,46.04305615234375,-1.2933534383773804,-0.577725350856781,-1.34237539768219
1781604300114572000,46.091572021484374,-0.39018988609313965,-1.08573579788208,-1.1895828247070312
1781604300163087600,46.140087646484375,-0.5150353908538818,-1.3075560331344604,0.212504580616951
1781604300211603000,46.18860302734375,-0.13744457066059113,-0.2900080680847168,-0.6333140730857849
1781604300260118800,46.237118896484375,-0.10766492038965225,0.16035200655460358,1.0456477403640747
1781604300308634400,46.28563427734375,-0.23503021895885468,0.41378453373908997,1.9891284704208374
1781604300357150000,46.33414990234375,0.2819904685020447,0.8984293937683105,2.750800371170044
1781604300405665500,46.38266552734375,0.018631376326084137,-0.041615162044763565,1.3014473915100098
1781604300454181000,46.43118115234375,0.75571608543396,0.30917394161224365,-0.060933761298656464
1781604300502696700,46.47969677734375,0.9948696494102478,0.879339873790741,0.40775224566459656
1781604300551212300,46.52821240234375,0.6156753301620483,1.110552191734314,0.11728604137897491
1781604300599727900,46.576727783203125,0.08529199659824371,1.2129483222961426,-0.9967786073684692
1781604300648243500,46.625243408203126,0.8119919896125793,0.6876810193061829,-0.7792344093322754
1781604300696759000,46.673759033203126,2.120464324951172,-0.5270999670028687,-0.9238566160202026
1781604300745274600,46.722274658203126,1.4370594024658203,-0.9237039089202881,-0.31635159254074097
1781604300793790200,46.77079028320313,2.092211961746216,-0.7090612649917603,-0.9688315391540527
1781604300842305800,46.81930590820313,2.792491912841797,-0.4895317554473877,-1.0075451135635376
1781604300890821400,46.8678212890625,3.3996152877807617,-0.2153298407793045,-0.911562979221344
1781604300939337000,46.9163369140625,3.029278516769409,-2.543717384338379,0.3497200906276703
1781604300987852500,46.9648525390625,2.0644938945770264,-1.0852012634277344,0.38812822103500366
1781604301036368100,47.0133681640625,0.6611847877502441,-1.7837251424789429,-1.5938225984573364
1781604301084883700,47.0618837890625,-2.263712167739868,-2.8573200702667236,-3.768348455429077
1781604301133399300,47.1103994140625,-4.484129428863525,-2.008981466293335,-4.975340843200684
1781604301181915000,47.15891479492188,-4.711523532867432,-2.489884853363037,-3.4997971057891846
1781604301230430500,47.20743041992188,-2.807687282562256,-1.1180353164672852,-0.7828232049942017
1781604301278946000,47.25594604492188,-1.530063509941101,0.5206858515739441,0.9359975457191467
1781604301327461600,47.30446166992188,-0.6638572812080383,-0.19036073982715607,2.2866196632385254
1781604301375977200,47.35297729492188,-0.14149154722690582,-0.06979130208492279,1.5083014965057373
1781604301424492800,47.40149291992188,-0.2695440948009491,-1.0835213661193848,1.2242493629455566
1781604301473008400,47.45000830078125,0.07895427197217941,-1.2067633867263794,0.7812197208404541
1781604301521524000,47.49852392578125,0.026190826669335365,-0.7379246354103088,0.1547778695821762
1781604301570039600,47.54703955078125,0.5351175665855408,-0.6987529397010803,-1.4728713035583496
1781604301618555100,47.59555517578125,0.32452189922332764,-1.482110619544983,-0.2643517255783081
1781604301667070700,47.64407080078125,0.4992292523384094,-0.9196569323539734,-0.5138136148452759
1781604301715586300,47.69258642578125,0.4159225523471832,-0.8889609575271606,-0.8938478827476501
1781604301764102000,47.74110180664063,-0.2545779049396515,-0.6430115103721619,-0.47204574942588806
1781604301812617500,47.78961743164062,0.4338667094707489,0.04718930274248123,0.8388700485229492
1781604301861133000,47.83813305664062,1.528612732887268,0.11285726726055145,1.879249095916748
1781604301909649000,47.88664892578125,1.773111343383789,0.251752644777298,1.2233331203460693
1781604301958164200,47.93516430664062,1.3797144889831543,0.28641921281814575,-1.6013820171356201
1781604302006679800,47.9836796875,0.1954767256975174,-0.07834340631961823,-0.8758273720741272
1781604302055195600,48.03219555664062,-0.31520622968673706,0.5923861265182495,0.28382304310798645
1781604302103711200,48.08071118164062,-0.05352702736854553,2.157727003097534,-0.22067490220069885
1781604302152226800,48.129226806640624,-1.1414008140563965,0.05451968312263489,-0.7281508445739746
1781604302200742400,48.177742431640624,-2.098167896270752,-0.622394859790802,-0.5898662805557251
1781604302249258000,48.226258056640624,0.2749654948711395,0.12140937149524689,-0.5193877816200256
1781604302297773600,48.274773681640625,1.9075015783309937,0.19471314549446106,-0.5787943601608276
1781604302346289200,48.3232890625,-0.36285367608070374,0.3272708058357239,0.08086322247982025
1781604302394804700,48.3718046875,-0.5205331444740295,0.16974404454231262,0.1758527010679245
1781604302443320300,48.4203203125,-0.3508654534816742,0.2283107042312622,-0.12698352336883545
1781604302491836000,48.4688359375,-0.6520217657089233,-0.2744309902191162,-0.2977202236652374
1781604302540351500,48.5173515625,-0.543440580368042,0.11866047978401184,-0.7777835726737976
1781604302588867000,48.5658671875,-0.1253799945116043,-0.2631300091743469,-0.18700097501277924
1781604302637382700,48.614382568359375,0.24083344638347626,0.8016073107719421,-0.2660316228866577
1781604302685898200,48.662898193359375,1.9045236110687256,0.35506516695022583,-0.838259220123291
1781604302734413800,48.711413818359375,0.4992292523384094,-0.8039743900299072,0.3090975880622864
1781604302782929400,48.759929443359376,-0.21616977453231812,-0.07345648854970932,0.3987419903278351
1781604302831445000,48.808445068359376,-0.17256930470466614,-0.7470875978469849,-0.3503309488296509
1781604302879960600,48.856960693359376,0.74540776014328,0.18890993297100067,1.3617702722549438
1781604302928476200,48.90547607421875,0.13965895771980286,-1.0657299757003784,0.8460476994514465
1781604302976992000,48.95399194335938,1.5502220392227173,-0.28351762890815735,-0.6613374948501587
1781604303025507300,49.00250732421875,0.7248674035072327,-0.6018545031547546,0.29359689354896545
1781604303074023200,49.05102319335938,-1.6863685846328735,0.070631243288517,-0.20922118425369263
1781604303122538800,49.09953881835938,-1.9833252429962158,-1.113759160041809,-0.20616686344146729
1781604303171054300,49.14805444335938,0.5166388750076294,-0.20509785413742065,1.174692988395691
1781604303219570000,49.19656982421875,2.444375514984131,-0.34498587250709534,1.503490924835205
1781604303268085500,49.24508544921875,3.5923430919647217,-0.9845613241195679,1.8169409036636353
1781604303316601000,49.29360107421875,2.6862778663635254,1.5603777170181274,0.002672533504664898
1781604303365116700,49.34211669921875,2.2007930278778076,2.835787057876587,-0.5300779342651367
1781604303413632300,49.39063232421875,1.3732240200042725,0.8477275967597961,0.35414886474609375
1781604303462147800,49.43914794921875,-0.4289797842502594,0.9237802624702454,-0.1565341055393219
1781604303510663700,49.48766357421875,-1.614668369293213,0.8468112945556641,-0.6624828577041626
1781604303559179300,49.53617919921875,-1.05496346950531,1.0143409967422485,-0.21212279796600342
1781604303607694800,49.58469482421875,-0.49052441120147705,-0.036804601550102234,-0.318871408700943
1781604303656210400,49.63321044921875,0.0896444097161293,0.050549060106277466,-0.648127555847168
1781604303704726000,49.68172607421875,-0.8956804871559143,-0.7186060547828674,-0.8998038172721863
1781604303753241600,49.73024169921875,-2.0672428607940674,0.12209659814834595,0.021685699000954628
1781604303801757400,49.77875732421875,-2.871598958969116,-0.3110828995704651,0.13423752784729004
1781604303850273000,49.82727294921875,-4.541703224182129,-1.3372594118118286,0.49854201078414917
1781604303898788600,49.87578857421875,-3.597153663635254,-1.8766529560089111,1.392848014831543
1781604303947304200,49.92430419921875,-3.1964263916015625,-2.291048288345337,0.43684467673301697
1781604303995819800,49.97281982421875,-2.366032123565674,-0.4621191918849945,-1.1571305990219116
1781604304044335600,50.021335693359376,-0.12522727251052856,0.29443681240081787,-0.02756527252495289
1781604304092851200,50.069851318359376,-0.24121522903442383,-0.4815141558647156,1.2980875968933105
1781604304141366800,50.11836669921875,0.42600181698799133,0.3633118271827698,0.27488914132118225
1781604304189882600,50.16688256835938,0.9513455629348755,-0.12118030339479446,-0.9264528155326843
1781604304238398200,50.21539819335938,0.43111783266067505,-0.517707884311676,-0.44906195998191833
1781604304286913800,50.26391381835938,-1.5864921808242798,0.37988153100013733,-0.40149086713790894
1781604304335429600,50.3124296875,-1.1491893529891968,-0.4085158109664917,-1.1533890962600708
1781604304383945200,50.3609453125,0.07903063297271729,-0.8990402221679688,-0.5537489056587219
1781604304432460800,50.40946069335938,1.256014347076416,-0.36506807804107666,-0.8983530402183533
1781604304480976400,50.45797631835938,1.0176243782043457,0.48357582092285156,-0.88285231590271
1781604304529492200,50.5064921875,0.8623883724212646,1.0309107303619385,-0.8936951756477356
1781604304578007800,50.5550078125,0.8120683431625366,0.9075160026550293,-1.2557852268218994
1781604304626523600,50.603523681640624,1.205999732017517,2.366184711456299,-1.0511455535888672
1781604304675039200,50.652039306640624,-0.023518294095993042,1.9061272144317627,0.20357069373130798
1781604304723554800,50.700554931640625,0.03543015569448471,0.053145237267017365,-0.06673697382211685
1781604304772070700,50.749070556640625,0.20822852849960327,-0.7541125416755676,0.5038870573043823
1781604304820586200,50.797586181640625,0.025503603741526604,-0.8718567490577698,2.408181667327881
1781604304869102000,50.84610205078125,-0.42050403356552124,-0.49984011054039,2.330143690109253
1781604304917617700,50.89461767578125,-0.22930335998535156,0.021609341725707054,2.0628902912139893
1781604304966133200,50.94313330078125,-1.3875030279159546,-0.9818124175071716,-1.1246020793914795
1781604305014649000,50.99164916992188,-0.9247729182243347,-0.1628718227148056,-0.14317142963409424
1781604305063165000,51.0401650390625,-0.2874882221221924,-1.1177297830581665,0.34208428859710693
1781604305111680500,51.08868041992187,0.32383468747138977,-0.9403499960899353,-0.3439168632030487
1781604305160196000,51.13719604492187,0.19792018830776215,-0.7457895278930664,-0.2393062710762024
1781604305208712000,51.1857119140625,-0.6290380358695984,-0.49021899700164795,0.5994110703468323
1781604305257227500,51.2342275390625,-0.8057306408882141,0.40889760851860046,0.3580431044101715
1781604305305743400,51.282743408203125,-0.5241219997406006,0.5105302333831787,-0.906828761100769
1781604305354259200,51.33125927734375,0.1320231556892395,-0.5235874652862549,-0.7805324792861938
1781604305402774800,51.37977490234375,0.9033163189888,0.005650499369949102,-0.9265291690826416
1781604305451290600,51.42829052734375,0.9573014378547668,0.7602975964546204,-0.597273051738739
1781604305499806200,51.47680615234375,0.523052990436554,0.8764382600784302,-0.9280562996864319
1781604305548322000,51.52532202148438,0.7715222239494324,0.8332959413528442,-1.3810125589370728
1781604305596838000,51.573837890625,1.089553713798523,1.4074324369430542,-1.6397137641906738
1781604305645353500,51.622353515625,0.5786416530609131,1.3700169324874878,-0.7423534393310547
1781604305693869300,51.67086938476562,-0.17310380935668945,0.5083922147750854,0.3298669755458832
1781604305742385200,51.71938525390625,0.20861032605171204,-0.10919208079576492,-0.09689842909574509
1781604305790901000,51.76790087890625,-0.008857538923621178,-0.5994110703468323,1.8894047737121582
1781604305839416600,51.81641650390625,-0.07498364895582199,-1.3489421606063843,2.556469202041626
1781604305887932400,51.86493237304688,-0.21021384000778198,-0.39767298102378845,2.5930445194244385
1781604305936448300,51.9134482421875,-0.8981239199638367,-0.38652467727661133,-0.11133010685443878
1781604305984963800,51.9619638671875,-1.080161690711975,-0.630946934223175,-0.5624537467956543
1781604306033479700,52.01047973632812,-0.5765036344528198,-1.3032037019729614,0.20318889617919922
1781604306081995500,52.05899560546875,0.20082180202007294,-1.4970768690109253,-0.09651663154363632
1781604306130511400,52.107511474609375,0.4577668011188507,-1.234710454940796,-0.40202537178993225
1781604306179027000,52.15602685546875,-0.6241511106491089,-0.3422369956970215,0.5293906927108765
1781604306227542800,52.204542724609375,-0.2482401728630066,-0.26564982533454895,0.3969093859195709
1781604306276058600,52.25305859375,-1.119104266166687,0.9263001084327698,-0.4214203357696533
1781604306324574500,52.30157446289063,-0.434783011674881,-0.2903898358345032,-0.9188933372497559
1781604306373090300,52.35009033203125,0.9841794967651367,-0.5388590693473816,-0.9235512018203735
1781604306421606100,52.39860620117187,1.4330123662948608,0.6110175251960754,-1.2563961744308472
1781604306470121700,52.44712182617187,1.1091777086257935,1.6714023351669312,-1.0780236721038818
1781604306518637600,52.49563745117187,0.6298015713691711,1.3878084421157837,-1.360395908355713
1781604306567153400,52.5441533203125,0.8888082504272461,2.308458089828491,-1.3462696075439453
1781604306615669200,52.592669189453126,0.07834340631961823,2.106719970703125,0.30428701639175415
1781604306664185000,52.64118505859375,0.05948295816779137,0.854218065738678,0.25786128640174866
1781604306712701000,52.68970092773438,0.4878518879413605,-0.41531169414520264,0.024663666263222694
1781604306761216800,52.738216796875,0.45242172479629517,-1.2847249507904053,1.9296455383300781
1781604306809732600,52.786732666015624,0.09422589093446732,-1.489364743232727,2.529132843017578
1781604306858248400,52.83524853515625,-0.031001387163996696,-0.9174425601959229,2.5584545135498047
1781604306906764300,52.883764404296876,-1.308930516242981,-1.0214422941207886,-0.39507678151130676
1781604306955280100,52.93228002929688,-1.1823288202285767,-0.6443859934806824,-0.9550870656967163
1781604307003796000,52.9807958984375,-0.7105884552001953,-1.8196134567260742,0.5681042671203613
1781604307052311800,53.02931176757812,0.38850998878479004,-1.6615521907806396,-0.10445787757635117
1781604307100827600,53.07782763671875,0.5713112950325012,-1.6439135074615479,-0.29329144954681396
1781604307149343500,53.126343505859374,-0.6449204683303833,-0.6268999576568604,0.27695080637931824
1781604307197859300,53.174859375,-0.1418733447790146,-0.11659881472587585,0.2687041461467743
1781604307246375400,53.22337548828125,-0.6918807029724121,0.9224821925163269,-0.3410152494907379
1781604307294891300,53.27189135742187,-0.9049961566925049,-0.48846274614334106,-1.081536054611206
1781604307343408400,53.32040844726563,0.6827177405357361,-0.9425643682479858,-0.6774490475654602
1781604307391923000,53.3689228515625,1.5041017532348633,0.07941242307424545,-0.7973312735557556
1781604307488954600,53.46595458984375,0.7779362797737122,2.039219379425049,-1.5657991170883179
1781604307537470500,53.51447045898438,1.1279618740081787,2.6326744556427,-1.307403326034546
1781604307585986600,53.56298657226562,0.09414953738451004,2.55761456489563,0.18012875318527222
1781604307634502400,53.61150244140625,0.034666575491428375,0.9266055226325989,0.11720968037843704
1781604307683018200,53.660018310546874,0.6846266984939575,-0.7664825916290283,0.0010690133785828948
1781604307731534000,53.7085341796875,0.4292852282524109,-1.1246020793914795,1.9924118518829346
1781604307780050000,53.7570498046875,-0.25121814012527466,-0.9148463606834412,2.465526580810547
1781604307828566000,53.80556591796875,0.051847148686647415,-0.5303069949150085,2.5773911476135254
1781604307877081900,53.85408178710937,-1.2049307823181152,-1.3629920482635498,-0.42134398221969604
1781604307925598000,53.902597900390624,-1.2315033674240112,-0.5081631541252136,-1.088637351989746
1781604307974113800,53.95111376953125,-0.5443568825721741,-1.7708206176757812,0.5544361472129822
1781604308022629600,53.99962963867188,0.5319104790687561,-2.144822597503662,-0.00007635809743078426
1781604308071145500,54.0481455078125,0.3606393039226532,-1.4268274307250977,-0.21197007596492767
1781604308119661600,54.09666162109375,-0.7735838890075684,-0.4364628791809082,0.5178605914115906
1781604308168177400,54.145177490234374,-0.21258094906806946,0.2135736048221588,0.43776097893714905
1781604308216693200,54.193693359375,-1.0393863916397095,0.693026065826416,-0.4656316637992859
1781604308265209300,54.24220922851563,-0.6149880886077881,-0.43753188848495483,-0.8048906922340393
1781604308313725200,54.29072509765625,0.9508873820304871,-0.8958331942558289,-0.9886846542358398
1781604308362241300,54.3392412109375,1.574504017829895,0.6058251261711121,-0.9907463192939758
1781604308410757000,54.387757080078124,1.0585522651672363,2.018831729888916,-0.864220917224884
1781604308459273200,54.436273193359376,0.8177952170372009,2.070831537246704,-1.4212533235549927
1781604308507789000,54.4847890625,1.061453938484192,2.791957378387451,-1.363602876663208
1781604308556305200,54.53330517578125,0.08170316368341446,2.7252204418182373,0.13729186356067657
1781604308604821000,54.581821044921874,-0.09392046183347702,0.9315688014030457,0.05238165333867073
1781604308653336800,54.6303369140625,0.6241511106491089,-0.7945823669433594,0.022296564653515816
1781604308701853000,54.67885302734375,0.4148535430431366,-1.2046253681182861,1.8571816682815552
1781604308750368800,54.72736865234375,-0.11224640160799026,-0.8452841639518738,2.596022605895996
1781604308798884900,54.775884765625,0.08254310488700867,-0.8042798638343811,2.4762930870056152
1781604308847401000,54.82440087890625,-1.1575124263763428,-1.2401318550109863,-0.18898628652095795
1781604308895916800,54.872916748046876,-1.2218059301376343,-0.7805324792861938,-1.184772253036499
1781604308944432600,54.9214326171875,-0.7884737253189087,-1.9724823236465454,0.561766505241394
1781604308992948700,54.96994873046875,0.2860374450683594,-2.0005056858062744,-0.05299251899123192
1781604309041464800,55.01846484375,0.6056724190711975,-1.6485713720321655,-0.17394374310970306
1781604309089980700,55.066980712890626,-0.5240456461906433,-0.22464552521705627,0.641866147518158
1781604309138496800,55.11549682617188,-0.30657777190208435,0.04192059487104416,0.1003345400094986
1781604309187012900,55.16401293945312,-0.8906408548355103,0.8651372194290161,-0.2813795804977417
1781604309235528700,55.21252880859375,-1.1013128757476807,-0.8148172497749329,-0.8839976787567139
1781604309284044800,55.261044921875,0.5601630210876465,-0.7522799968719482,-0.505872368812561
1781604309332560600,55.309560546875,1.4699697494506836,-0.03436114266514778,-0.9414953589439392
1781604309381076700,55.35807666015625,1.3350449800491333,1.641546368598938,-0.8996511101722717
1781604309429592800,55.4065927734375,1.1042908430099487,1.7639484405517578,-1.1116211414337158
1781604309478108700,55.455108642578125,0.8901826739311218,2.4834706783294678,-1.4425572156906128
1781604309526624800,55.50362475585938,0.21914774179458618,2.5475351810455322,-0.9152281284332275
1781604309575140900,55.55214086914062,-0.00045814859913662076,1.6824743747711182,0.619722306728363
1781604309623656700,55.60065673828125,0.7261655330657959,-0.12904518842697144,-0.21265730261802673
1781604309672172800,55.6491728515625,0.7593812942504883,-1.3096940517425537,0.97600919008255
1781604309720689000,55.69768896484375,0.31932955980300903,-0.5787943601608276,2.3797764778137207
1781604309769204700,55.74620483398437,-0.11568251997232437,-0.815122663974762,2.378249406814575
1781604309817720800,55.794720947265624,-0.25465425848960876,-0.8682679533958435,1.8318307399749756
1781604309866237000,55.84323681640625,-1.5736640691757202,-0.771064043045044,-1.4176644086837769
1781604309914752800,55.89175268554688,-1.143997073173523,-0.5480220913887024,0.051847148686647415
1781604309963268900,55.94026879882812,-0.22319471836090088,-1.7068325281143188,0.5716167092323303
1781604310011785000,55.988784912109374,0.49884745478630066,-1.5138756036758423,-0.3225366175174713
1781604310060301000,56.037301025390626,0.049632761627435684,-1.2609776258468628,0.031612250953912735
1781604310108817000,56.08581689453125,-0.7689260244369507,-0.40233081579208374,0.07903063297271729
1781604310157333000,56.1343330078125,-0.44501498341560364,1.4455351829528809,-0.12125665694475174
1781604310205849000,56.18284912109375,-1.0667989253997803,0.4304305911064148,-0.9126319885253906
1781604310254365200,56.231365234375,-0.1340848207473755,-0.8548288941383362,-0.7319687008857727
1781604310302881300,56.27988134765625,1.39445161819458,-1.180343508720398,-0.8296307325363159
1781604310351397000,56.32839721679687,1.540753722190857,0.9425643682479858,-0.780837893486023
1781604310399913200,56.376913330078125,0.8262709975242615,1.8981095552444458,-0.959134042263031
1781604310448429300,56.42542919921875,0.7451786994934082,1.8610758781433105,-1.614973783493042
1781604310496945400,56.4739453125,1.0834450721740723,2.610759735107422,-1.290910005569458
1781604310545461500,56.52246142578125,0.007254019379615784,2.364046812057495,0.6270527243614197
1781604310593977600,56.5709775390625,0.16325360536575317,0.3203222155570984,-0.1562286615371704
1781604310642493700,56.61949365234375,0.4009563624858856,-0.6065887212753296,0.4427242577075958
1781604310691009500,56.66800952148437,0.2790888547897339,-0.7134900689125061,2.3297619819641113
1781604310739525600,56.716525634765624,0.07131846249103546,-0.8773545622825623,2.6622250080108643
1781604310788041700,56.765041748046876,-0.18501566350460052,-0.5823068618774414,2.2208752632141113
1781604310836557800,56.81355786132813,-1.7463860511779785,-1.0555742979049683,-1.326111078262329
1781604310885074000,56.86207397460937,-1.2777763605117798,-0.30489787459373474,-0.6369792222976685
1781604310933590000,56.910590087890625,-0.33658650517463684,-2.052276611328125,0.6458367705345154
1781604310982105900,56.95910595703125,0.7142536640167236,-1.964388370513916,-0.060551971197128296
1781604311030622200,57.00762231445312,0.29222244024276733,-1.2512801885604858,0.2684750556945801
1781604311079138000,57.05613793945312,-0.8669698238372803,-0.5337430834770203,0.1847866028547287
1781604311127654100,57.104654052734375,-0.3499491512775421,0.8092431426048279,0.1251509189605713
1781604311176170200,57.15317016601563,-1.267238974571228,0.18096868693828583,-0.8373429179191589
1781604311224686300,57.20168627929687,-0.36880961060523987,-0.8561269640922546,-0.7709113359451294
1781604311273202400,57.250202392578124,1.2644901275634766,-1.1223113536834717,-0.5634464025497437
1781604311321718500,57.29871850585938,1.42927086353302,0.8309288024902344,-0.9143118858337402
1781604311370234600,57.34723461914062,0.9351575970649719,2.2478296756744385,-1.0086904764175415
1781604311418750700,57.395750732421874,0.8137482404708862,1.7389793395996094,-1.4827978610992432
1781604311467266800,57.444266845703126,1.2384519577026367,2.449873208999634,-1.4791326522827148
1781604311515783000,57.49278295898438,-0.27664539217948914,2.326249361038208,0.11232276260852814
1781604311564299000,57.54129907226562,-0.018784092739224434,0.71463543176651,0.22495095431804657
1781604311612815000,57.589815185546875,0.7958040833473206,-1.0095304250717163,-0.0334448479115963
1781604311661331200,57.63833129882813,0.5325213670730591,-1.0548107624053955,1.6183334589004517
1781604311709847300,57.68684741210937,-0.3681987524032593,-0.8541416525840759,2.356792688369751
1781604311758363400,57.73536328125,0.24816381931304932,-0.6375901103019714,2.5698318481445312
1781604311806879500,57.78387939453125,-0.9732602834701538,-1.4046071767807007,-0.2087630331516266
1781604311855395600,57.8323955078125,-1.3810888528823853,-0.3131445646286011,-0.8318451046943665
1781604311903911700,57.88091162109375,-0.646065890789032,-1.4747803211212158,0.654617965221405
1781604311952427800,57.929427734375,0.3367392122745514,-1.7093523740768433,0.08888082206249237
1781604312000943900,57.97794384765625,0.638353705406189,-1.501658320426941,-0.3179551064968109
1781604312049460000,58.0264599609375,-0.4598284661769867,-0.4699077308177948,0.3287216126918793
1781604312097976000,58.07497607421875,-0.6081159114837646,-0.05818486958742142,0.210442915558815
1781604312146492200,58.1234921875,-0.7346412539482117,1.0191515684127808,-0.44234246015548706
1781604312195008300,58.17200830078125,-0.8520036339759827,-0.3689623177051544,-0.9645555019378662
1781604312243524400,58.2205244140625,0.4430296719074249,-1.0621411800384521,-0.6944769024848938
1781604312292040400,58.26904052734375,1.5735113620758057,-0.3649153411388397,-0.8436806201934814
1781604312340556500,58.317556640625,1.164919137954712,1.5062397718429565,-0.8491783738136292
1781604312389072600,58.36607275390625,0.6491202116012573,1.884594202041626,-1.23654305934906
1781604312437589000,58.41458911132813,0.9302706718444824,2.2499678134918213,-1.599854826927185
1781604312486104800,58.46310473632813,0.6849321126937866,2.313650369644165,-0.7491493225097656
1781604312534621200,58.51162109375,-0.2136499583721161,1.2557852268218994,0.7420479655265808
1781604312583137000,58.560136962890624,0.4846448302268982,-0.31406086683273315,-0.3516290485858917
1781604312631653400,58.6086533203125,0.8526145219802856,-1.6998839378356934,1.7402009963989258
1781604312680169500,58.65716943359375,0.3634645342826843,-1.3694061040878296,2.6690971851348877
1781604312728685600,58.705685546875,-0.5677224397659302,-0.18196134269237518,2.303036689758301
1781604312777201700,58.75420166015625,-0.7696132659912109,-0.5051088333129883,0.8169552683830261
1781604312825717800,58.8027177734375,-1.2419644594192505,-0.778241753578186,-1.365053653717041
1781604312874233900,58.85123388671875,-0.9414953589439392,-1.2496765851974487,0.521831214427948
1781604312922750000,58.89975,0.203799769282341,-1.9069671630859375,0.42164942622184753
1781604312971266300,58.94826635742187,0.5807796716690063,-1.6620867252349854,-0.11537708342075348
1781604313019782400,58.996782470703124,-0.5468003153800964,-0.658741295337677,-0.13568833470344543
1781604313068298500,59.045298583984376,-0.5555051565170288,0.30856308341026306,0.31604617834091187
1781604313116814600,59.09381469726563,-1.3016765117645264,1.3537527322769165,-0.720820426940918
1781604313165330700,59.14233056640625,-0.7292962074279785,-0.045967575162649155,-0.9509637355804443
1781604313213846800,59.1908466796875,0.5970439910888672,-1.1271982192993164,-0.6348412036895752
1781604313262363000,59.23936279296875,1.6727005243301392,0.37110036611557007,-0.9851721525192261
1781604313310879000,59.28787890625,1.0836740732192993,2.08556866645813,-0.7838922142982483
1781604313359395300,59.336395263671875,0.5577958822250366,1.5648828744888306,-1.2915208339691162
1781604313407911400,59.38491137695313,1.0806961059570312,2.1877357959747314,-1.7653228044509888
1781604313456427500,59.43342749023437,0.318871408700943,2.4992005825042725,-0.5219839811325073
1781604313504943600,59.481943603515624,-0.26190826296806335,1.2430334091186523,0.6824886798858643
1781604313553459700,59.53045971679688,0.6380482912063599,-0.6018545031547546,-0.20838125050067902
1781604313601976000,59.57897607421875,0.6495019793510437,-1.3150391578674316,1.2830450534820557
1781604313650492000,59.627491943359374,0.32788166403770447,-1.180877923965454,2.4596469402313232
1781604313699008300,59.67600830078125,0.1922696828842163,-1.34405517578125,2.6114468574523926
1781604313747524400,59.7245244140625,-0.8917862176895142,-1.3519201278686523,0.7774781584739685
1781604313796040400,59.77304052734375,-1.4133883714675903,-1.065806269645691,-1.5866448879241943
