time,seconds_elapsed,z,y,x
1781604254156441000,0.133441162109375,9.264410972595215,2.9587252140045166,-1.3573286533355713
1781604254253474000,0.23047412109375,9.049654960632324,2.6464617252349854,-0.9643075466156006
1781604254331100200,0.30810009765625,9.699904441833496,2.6321048736572266,-0.7256234884262085
1781604254408726300,0.385726318359375,9.54496955871582,2.5633113384246826,-0.6173482537269592
1781604254466946000,0.443946044921875,9.41755199432373,2.7146573066711426,-0.7758727669715881
1781604254563978800,0.540978759765625,9.122636795043945,2.53399920463562,-0.7597211599349976
1781604254622198300,0.5991982421875,9.52941608428955,2.066202402114868,-0.5306084156036377
1781604254738637800,0.715637939453125,9.705288887023926,2.562713146209717,-0.2548356056213379
1781604254816264000,0.793263916015625,9.309874534606934,2.210369825363159,-0.24167509377002716
1781604254893890000,0.87089013671875,9.448657989501953,2.428116798400879,-0.29790642857551575
1781604254971516400,0.948516357421875,9.954740524291992,1.7377874851226807,-0.013160524889826775
1781604255049142500,1.026142578125,10.406984329223633,2.675175666809082,0.3684946894645691
1781604255126769000,1.103768798828125,9.406784057617188,2.867199659347534,1.5619150400161743
1781604255204395000,1.18139501953125,11.45264720916748,2.0063817501068115,-1.7204394340515137
1781604255262614800,1.23961474609375,9.026923179626465,3.9804604053497314,-0.7603194117546082
1781604255320834300,1.297834228515625,8.687142372131348,2.771486759185791,0.03170489892363548
1781604255398460700,1.375460693359375,8.676973342895508,2.018944025039673,0.8243274092674255
1781604255534306600,1.511306640625,8.415556907653809,2.368894338607788,1.2795618772506714
1781604255592526300,1.5695263671875,7.932207107543945,2.004587173461914,0.9990034699440002
1781604255689559000,1.66655908203125,7.439285755157471,0.397208571434021,5.372485160827637
1781604255747778800,1.72477880859375,2.132004976272583,-1.6929219961166382,6.7040910720825195
1781604255844811500,1.8218115234375,0.42352959513664246,-7.559525012969971,2.974876642227173
1781604255903031300,1.88003125,0.9786644577980042,-13.721043586730957,4.107280254364014
1781604256019470600,1.996470703125,17.965312957763672,-20.562122344970703,11.955140113830566
1781604256097097000,2.074096923828125,11.536993980407715,-16.04148292541504,6.386443614959717
1781604256174723000,2.15172314453125,5.843272686004639,-16.798810958862305,7.765307903289795
1781604256232942800,2.20994287109375,6.387042045593262,-15.226128578186035,7.895118236541748
1781604256329975600,2.3069755859375,2.313859462738037,-11.596217155456543,0.865005373954773
1781604256427008300,2.40400830078125,1.4931213855743408,-8.616554260253906,-3.803391695022583
1781604256485228000,2.46222802734375,-2.4299113750457764,-2.2402801513671875,0.9326026439666748
1781604256543447800,2.52044775390625,-1.5212370157241821,-2.947359323501587,-6.211169242858887
1781604256601667300,2.578667236328125,-1.210768222808838,-0.49172505736351013,1.8807586431503296
1781604256659887000,2.63688720703125,3.9601213932037354,-6.357131481170654,-3.078366279602051
1781604256737513200,2.71451318359375,-1.1754741668701172,-11.254042625427246,-4.466203689575195
1781604256815139600,2.7921396484375,0.30987054109573364,-11.794820785522461,-3.7405800819396973
1781604256892765700,2.869765625,3.07417893409729,-7.418946743011475,-2.6225335597991943
1781604256970391800,2.947391845703125,0.6969096064567566,-17.161922454833984,-2.3048863410949707
1781604257048018200,3.02501806640625,3.651447296142578,-2.6608188152313232,-7.444669246673584
1781604257106237700,3.08323779296875,0.6705885529518127,3.001796007156372,-6.000002861022949
1781604257203270400,3.1802705078125,2.3605196475982666,-15.580265998840332,-3.008376359939575
1781604257261490200,3.238490234375,8.294719696044922,-19.423738479614258,-5.1050872802734375
1781604257358523000,3.33552294921875,0.3487538993358612,-3.0113673210144043,-3.0275187492370605
1781604257455555800,3.432555908203125,-1.628315806388855,-9.522237777709961,-0.17288143932819366
1781604257552588500,3.529588623046875,-0.7459624409675598,-13.577473640441895,-3.5479576587677
1781604257610808000,3.58780810546875,-0.7627122402191162,-9.900303840637207,-0.7519445419311523
1781604257707841000,3.684841064453125,-0.22791635990142822,-14.251053810119629,-1.9932212829589844
1781604257766060500,3.743060546875,-1.2508480548858643,-14.419149398803711,-0.27696922421455383
1781604257843687000,3.82068701171875,0.008374879136681557,-8.764310836791992,-0.9882357716560364
1781604257940719600,3.9177197265625,-0.7184450030326843,-9.233902931213379,-0.6454638838768005
1781604258037752300,4.01475244140625,-0.7585247755050659,-10.001399993896484,-1.2544373273849487
1781604258095972000,4.07297216796875,-0.21774685382843018,-9.495318412780762,-1.4937195777893066
1781604258173598500,4.150598388671875,-0.6556333899497986,-10.389636039733887,-0.7962117195129395
1781604258251224600,4.228224609375,-0.6652047038078308,-9.208179473876953,-0.38644084334373474
1781604258348257300,4.32525732421875,-0.906281590461731,-10.208977699279785,-1.0151549577713013
1781604258406476800,4.383476806640625,-0.747757077217102,-9.746564865112305,-0.9804590940475464
1781604258484103200,4.461103271484375,-1.0235298871994019,-9.79262638092041,-1.0863415002822876
1781604258561729300,4.538729248046875,-0.8141579031944275,-9.719047546386719,-0.9930213689804077
1781604258658762000,4.635761962890625,-0.8632107973098755,-10.02413272857666,-1.4117653369903564
1781604258736388400,4.713388427734375,-0.8380861282348633,-9.844072341918945,-1.042074203491211
1781604258814014500,4.791014404296875,-0.8315058946609497,-10.012765884399414,-1.1407781839370728
1781604258891640600,4.868640625,-0.8614161610603333,-10.006784439086914,-1.1629117727279663
1781604258988673300,4.96567333984375,-1.158724308013916,-10.357931137084961,-0.8261220455169678
1781604259046892800,5.023892822265625,-0.9822536706924438,-9.926624298095703,-1.0618150234222412
1781604259143925500,5.120925537109375,-1.4225330352783203,-9.705886840820312,-1.587039589881897
1781604259202145300,5.179145263671875,-0.9966106414794922,-9.599406242370605,-0.8033902049064636
1781604259260364800,5.23736474609375,-1.0863415002822876,-9.488140106201172,-1.2795618772506714
1781604259357397500,5.3343974609375,-0.9672985672950745,-10.52363395690918,-1.2233306169509888
1781604259454430200,5.43143017578125,-2.152343988418579,-9.345169067382812,-1.28255295753479
1781604259551463000,5.528462890625,-1.4638092517852783,-9.42473030090332,-0.37028929591178894
1781604259609683200,5.58668310546875,-2.3850460052490234,-9.90149974822998,-0.6951149702072144
1781604259687308500,5.66430859375,-1.8849459886550903,-9.262018203735352,-1.542174220085144
1781604259764934700,5.7419345703125,-1.8747764825820923,-9.599406242370605,-0.19381862878799438
1781604259861967400,5.83896728515625,-2.021935224533081,-9.781859397888184,-0.5970092415809631
1781604259939593500,5.916593505859375,-2.011167526245117,-9.56471061706543,-0.5330012440681458
1781604260017219600,5.994219482421875,-2.111067771911621,-9.775876998901367,-0.062213387340307236
1781604260075439000,6.052439208984375,-1.8993029594421387,-9.875777244567871,-0.4546363055706024
1781604260172471800,6.149471923828125,-2.6632115840911865,-9.499505996704102,1.4123635292053223
1781604260230691300,6.20769140625,-2.7188446521759033,-8.880961418151855,-0.7106683254241943
1781604260327724000,6.30472412109375,-2.017747640609741,-9.888937950134277,-0.617946445941925
1781604260385943600,6.362943603515625,-2.097907304763794,-9.44028377532959,-0.47916272282600403
1781604260444163000,6.4211630859375,-2.1481566429138184,-9.5533447265625,-0.12502498924732208
1781604260580009000,6.557009033203125,-2.1780667304992676,-9.934401512145996,-1.4069796800613403
1781604260657634800,6.634634765625,-2.1990039348602295,-9.397212982177734,-1.1389836072921753
1781604260715854600,6.6928544921875,-2.094916343688965,-10.01575756072998,-0.672383189201355
1781604260774073900,6.751073974609375,-1.8424733877182007,-9.573084831237793,-0.4019941985607147
1781604260832293600,6.809293701171875,-2.4574289321899414,-9.78843879699707,-0.735194742679596
1781604260968139300,6.94513916015625,-1.6654045581817627,-10.003793716430664,-0.05024927482008934
1781604261026358800,7.00335888671875,-2.108675003051758,-10.152746200561523,-0.5222335457801819
1781604261142797800,7.1197978515625,-2.1134605407714844,-10.02413272857666,-0.9373882412910461
1781604261220424000,7.197423828125,-2.000998020172119,-9.138189315795898,-1.0396814346313477
1781604261298049800,7.2750498046875,-2.1361923217773438,-10.099506378173828,-0.8398807644844055
1781604261375676000,7.352676025390625,-1.8891334533691406,-9.495916366577148,-0.3690928816795349
1781604261453302000,7.430302001953125,-1.7377874851226807,-9.9469633102417,-0.10229317098855972
1781604261530928000,7.50792822265625,-1.9268203973770142,-9.7669038772583,0.03349951654672623
1781604261608554000,7.585553955078125,-1.908874273300171,-10.028319358825684,-0.03888336941599846
1781604261686180000,7.66318017578125,-1.9100706577301025,-9.780064582824707,-0.19740787148475647
1781604261763806200,7.74080615234375,-1.9106688499450684,-9.755537986755371,-0.6430711150169373
1781604261841432000,7.81843212890625,-1.8305093050003052,-9.585049629211426,-0.5198407173156738
1781604261899651600,7.876651611328125,-1.887937068939209,-9.830911636352539,-0.1866401731967926
1781604261957871000,7.93487109375,-1.9250258207321167,-9.814760208129883,-0.36191442608833313
1781604262093716700,8.070716796875,-1.9674984216690063,-9.712467193603516,-0.18065811693668365
1781604262151936300,8.128936279296875,-2.011765718460083,-9.765707015991211,-0.12263216078281403
1781604262248968700,8.22596875,-2.0297117233276367,-9.81954574584961,-0.16091732680797577
1781604262307188200,8.284188232421876,-1.975873351097107,-9.705288887023926,-0.38644084334373474
1781604262365407700,8.34240771484375,-2.012363910675049,-9.745966911315918,-0.44745782017707825
1781604262462440200,8.439440185546875,-1.9794625043869019,-9.66939640045166,-0.3684946894645691
1781604262520659700,8.49765966796875,-2.0673987865448,-9.804591178894043,-0.3684946894645691
1781604262598285800,8.575285888671875,-2.018345832824707,-9.736993789672852,-0.41515472531318665
1781604262656505000,8.633505126953125,-2.1278176307678223,-9.812965393066406,-0.2871387302875519
1781604262792350700,8.769350830078125,-2.1230318546295166,-9.852447509765625,-0.2967100143432617
1781604262889383200,8.866383056640625,-2.0745773315429688,-9.735796928405762,-0.18544375896453857
1781604262986415600,8.96341552734375,-2.0967109203338623,-9.70229721069336,-0.5024927258491516
1781604263064041500,9.04104150390625,-2.1128623485565186,-9.685547828674316,-0.4456632137298584
1781604263141667600,9.11866748046875,-2.1373889446258545,-9.768698692321777,-0.3966103494167328
1781604263199887000,9.17688720703125,-2.0213370323181152,-9.641879081726074,-0.40259242057800293
1781604263258106400,9.2351064453125,-2.0679969787597656,-9.756135940551758,-0.44327038526535034
1781604263374545400,9.35154541015625,-1.9854445457458496,-9.701699256896973,-0.49351966381073
1781604263471577600,9.44857763671875,-1.9459630250930786,-9.740582466125488,-0.47796630859375
1781604263529797000,9.506797119140625,-2.0243279933929443,-9.752547264099121,-0.4911268353462219
1781604263607423200,9.58442333984375,-1.9884356260299683,-9.663414001464844,-0.46360939741134644
1781604263685049000,9.662049072265624,-2.070389747619629,-9.747760772705078,-0.5276173949241638
1781604263782081500,9.75908154296875,-2.0572292804718018,-9.830911636352539,-0.39840495586395264
1781604263859707400,9.836707275390625,-2.0159530639648438,-9.744770050048828,-0.34217363595962524
1781604263956739800,9.93373974609375,-2.026122570037842,-9.708279609680176,-0.4743770956993103
1781604264014959400,9.99195947265625,-2.025524377822876,-9.766305923461914,-0.4307080805301666
1781604264150804500,10.127804443359375,-2.035693883895874,-9.762118339538574,-0.357128769159317
1781604264247837000,10.2248369140625,-2.0057835578918457,-9.680164337158203,-0.4420739710330963
1781604264325462800,10.302462890625,-2.062613010406494,-9.741779327392578,-0.4049852192401886
1781604264403088600,10.380088623046875,-2.0548365116119385,-9.77826976776123,-0.4247260093688965
1781604264500121000,10.47712109375,-1.9956140518188477,-9.70349407196045,-0.4695914387702942
1781604264597153500,10.574153564453125,-1.9621145725250244,-9.716654777526855,-0.42412781715393066
1781604264655372800,10.632372802734375,-1.8993029594421387,-9.78544807434082,-0.35832518339157104
1781604264713592300,10.69059228515625,-1.9178473949432373,-9.862018585205078,-0.4331009089946747
1781604264791218200,10.76821826171875,-1.8496519327163696,-9.772287368774414,-0.46839502453804016
1781604264868844000,10.845843994140624,-1.9058831930160522,-9.756135940551758,-0.494716078042984
1781604264965876500,10.94287646484375,-1.8687944412231445,-9.723833084106445,-0.3678964674472809
1781604265024095700,11.001095703125,-1.8616160154342651,-9.757930755615234,-0.5132604837417603
1781604265140534500,11.117534423828126,-1.8903298377990723,-9.731609344482422,-0.5072783827781677
1781604265218160400,11.195160400390625,-1.8652052879333496,-9.689735412597656,-0.44327038526535034
1781604265295786200,11.2727861328125,-1.9166508913040161,-9.750752449035645,-0.7597211599349976
1781604265373412000,11.350412109375,-1.9561325311660767,-9.90269660949707,-0.727418065071106
1781604265431631400,11.40863134765625,-1.9752750396728516,-9.79801082611084,-0.7184450030326843
1781604265489851000,11.466850830078124,-1.9489539861679077,-9.668798446655273,-0.5377869009971619
1781604265586883000,11.563883056640625,-1.8586249351501465,-9.70349407196045,-0.7812566161155701
1781604265645102600,11.6221025390625,-1.92741858959198,-9.754940032958984,-0.7651050686836243
1781604265703321900,11.68032177734375,-1.85383939743042,-9.738189697265625,-0.7734799385070801
1781604265800354000,11.77735400390625,-1.906481385231018,-9.773484230041504,-0.7908278703689575
1781604265858573600,11.835573486328125,-1.841277003288269,-9.767501831054688,-0.7262216806411743
1781604265936199200,11.91319921875,-1.9094724655151367,-9.750752449035645,-0.7334001660346985
1781604266013825000,11.990824951171875,-1.9028922319412231,-9.675378799438477,-0.7226324677467346
1781604266072044500,12.04904443359375,-1.9010975360870361,-9.795019149780273,-0.6532405614852905
1781604266169076700,12.14607666015625,-1.9363917112350464,-9.795019149780273,-0.649053156375885
1781604266227296000,12.2042958984375,-1.8837496042251587,-9.711270332336426,-0.6352944374084473
1781604266324328200,12.301328125,-1.8759729862213135,-9.745368003845215,-0.6616154313087463
1781604266401954000,12.3789541015625,-1.8975083827972412,-9.748359680175781,-0.7178468108177185
1781604266479580000,12.456579833984375,-1.8610178232192993,-9.758528709411621,-0.6095715761184692
1781604266596018400,12.573018310546875,-1.8999011516571045,-9.7669038772583,-0.6209374666213989
1781604266731863600,12.708863525390624,-1.929213285446167,-9.787242889404297,-0.6891329288482666
1781604266809489400,12.786489501953126,-1.8939191102981567,-9.756135940551758,-0.7106683254241943
1781604266867708700,12.844708740234376,-1.8843477964401245,-9.721440315246582,-0.7166503667831421
1781604266925928000,12.902927978515624,-1.8891334533691406,-9.801599502563477,-0.6478567123413086
1781604267061773000,13.03877294921875,-1.919043779373169,-9.82373332977295,-0.6484549641609192
1781604267139398700,13.116398681640625,-1.846660852432251,-9.739386558532715,-0.768694281578064
1781604267217024500,13.1940244140625,-1.8586249351501465,-9.734002113342285,-0.6340979933738708
1781604267275243800,13.252243896484375,-1.8885352611541748,-9.748359680175781,-0.5934200286865234
1781604267333463000,13.310463134765625,-1.8628123998641968,-9.800403594970703,-0.5952146053314209
1781604267430495200,13.4074951171875,-1.8658034801483154,-9.765109062194824,-0.6652047038078308
1781604267488714500,13.465714599609376,-1.893320918083191,-9.709476470947266,-0.6885347366333008
1781604267585746700,13.56274658203125,-1.8735800981521606,-9.754940032958984,-0.6909275650978088
1781604267643966000,13.620966064453125,-1.8831514120101929,-9.742975234985352,-0.6837490797042847
1781604267702185200,13.679185302734375,-1.8687944412231445,-9.783055305480957,-0.6861419081687927
1781604267779811000,13.75681103515625,-1.9142581224441528,-9.80937671661377,-0.656829833984375
1781604267857436700,13.834436767578126,-1.8586249351501465,-9.743574142456055,-0.6436693072319031
1781604267935062500,13.9120625,-1.8717855215072632,-9.732208251953125,-0.6897311210632324
1781604267993281800,13.97028173828125,-1.8753747940063477,-9.777671813964844,-0.727418065071106
1781604268090314000,14.06731396484375,-1.8592232465744019,-9.769296646118164,-0.6460621356964111
1781604268187346000,14.164345947265625,-1.9166508913040161,-9.750154495239258,-0.6675975322723389
1781604268245565200,14.222565185546875,-1.877767562866211,-9.766305923461914,-0.6017948985099792
1781604268303784400,14.280784423828125,-1.9094724655151367,-9.756733894348145,-0.7046862840652466
1781604268362003700,14.339003662109375,-1.892722725868225,-9.751948356628418,-0.617946445941925
1781604268420223000,14.397222900390625,-1.887937068939209,-9.752547264099121,-0.656829833984375
1781604268556067800,14.53306787109375,-1.9022940397262573,-9.727422714233398,-0.6245267391204834
1781604268614287000,14.591287109375,-1.9435701370239258,-9.749555587768555,-0.6161518096923828
1781604268672506400,14.64950634765625,-1.8909281492233276,-9.6795654296875,-0.6520441770553589
1781604268730725600,14.7077255859375,-1.9178473949432373,-9.823135375976562,-0.6041877269744873
1781604268827757800,14.8047578125,-1.9417755603790283,-9.790233612060547,-0.5814558863639832
1781604268885977000,14.86297705078125,-1.8544375896453857,-9.738189697265625,-0.5784648656845093
1781604268983009000,14.960009033203125,-1.8610178232192993,-9.78843879699707,-0.6580262184143066
1781604269060634600,15.037634521484375,-1.8747764825820923,-9.795618057250977,-0.592223584651947
1781604269138260200,15.11526025390625,-1.8406788110733032,-9.688538551330566,-0.576670229434967
1781604269215885800,15.1928857421875,-1.8831514120101929,-9.80817985534668,-0.6131607890129089
1781604269293511700,15.27051171875,-1.8376877307891846,-9.766305923461914,-0.6203392744064331
1781604269390543600,15.367543701171876,-1.827518343925476,-9.737591743469238,-0.607776939868927
1781604269448763000,15.425762939453126,-1.8502501249313354,-9.778867721557617,-0.6083751320838928
1781604269526388500,15.503388427734375,-1.851446509361267,-9.748957633972168,-0.5234299302101135
1781604269584607700,15.561607666015625,-1.8149559497833252,-9.845269203186035,-0.4989035129547119
1781604269701046300,15.67804638671875,-1.8089739084243774,-9.878170013427734,-0.6041877269744873
1781604269759265300,15.736265380859376,-1.8185452222824097,-9.741181373596191,-0.6340979933738708
1781604269856297500,15.83329736328125,-1.8305093050003052,-9.767501831054688,-0.600000262260437
1781604269953329400,15.930329345703125,-1.731805443763733,-9.791430473327637,-0.529412031173706
1781604270011548700,15.988548583984375,-1.843071699142456,-9.836296081542969,-0.5688936114311218
1781604270108580600,16.08558056640625,-1.8574285507202148,-9.848857879638672,-0.5952146053314209
1781604270205612500,16.182612548828125,-2.1589243412017822,-9.91107177734375,-0.6035895347595215
1781604270341457400,16.31845751953125,-2.132004976272583,-9.413962364196777,-0.5599204897880554
1781604270438489300,16.4154892578125,-2.1361923217773438,-9.80518913269043,-0.8685946464538574
1781604270496708600,16.47370849609375,-2.184048891067505,-9.486943244934082,-0.9607182741165161
1781604270593740500,16.570740478515624,-2.090728759765625,-9.690333366394043,-0.6717849373817444
1781604270651959800,16.628959716796874,-2.2163519859313965,-9.614959716796875,-0.7603194117546082
1781604270748991700,16.72599169921875,-2.0344974994659424,-9.684351921081543,-0.6478567123413086
1781604270865430000,16.842429931640623,-1.954936146736145,-9.768099784851074,-0.865005373954773
1781604270943055600,16.9200556640625,-1.695314884185791,-9.855438232421875,-0.35054850578308105
1781604271001275000,16.97827490234375,-1.8951154947280884,-9.89850902557373,-0.6765705943107605
1781604271059494000,17.036493896484377,-1.9334007501602173,-9.781859397888184,-0.7441678643226624
1781604271175932400,17.152932373046873,-2.1876380443573,-9.92124080657959,-0.6903293132781982
1781604271253557800,17.230557861328126,-1.9663020372390747,-9.375079154968262,-0.8261220455169678
1781604271311777000,17.288777099609376,-2.03629207611084,-9.623932838439941,-0.7830511927604675
1781604271369996000,17.34699609375,-2.076970100402832,-9.240483283996582,-0.7160521745681763
1781604271428215300,17.40521533203125,-1.6683956384658813,-9.498309135437012,-1.0426725149154663
1781604271486434600,17.4634345703125,-1.25144624710083,-9.308079719543457,-0.9218349456787109
1781604271583466500,17.560466552734376,-0.908674418926239,-10.818549156188965,-2.5262224674224854
1781604271680498400,17.65749853515625,-0.3487538993358612,-9.291330337524414,-2.0721843242645264
1781604271738717400,17.715717529296874,-0.1782652884721756,-9.41635513305664,-2.2911276817321777
1781604271816343000,17.793343017578124,0.25722843408584595,-9.014361381530762,-2.936591625213623
1781604271893968600,17.87096875,0.6329016089439392,-8.48016357421875,-3.222533941268921
1781604271971594000,17.948593994140627,1.205384373664856,-9.731011390686035,-2.9102704524993896
1781604272049219600,18.026219482421876,-0.5300102233886719,-10.437492370605469,-6.16271448135376
1781604272126845200,18.10384521484375,1.6983058452606201,-11.206785202026367,-4.360321044921875
1781604272204470500,18.181470458984375,-0.5389832854270935,-8.37966537475586,2.237887382507324
1781604272301502500,18.27850244140625,-1.9256240129470825,-11.280364036560059,-1.0971091985702515
1781604272359721700,18.3367216796875,-0.30568310618400574,-6.597609996795654,-1.2065808773040771
1781604272437347000,18.41434716796875,-0.5078766345977783,-8.645866394042969,0.5306084156036377
1781604272514972700,18.49197265625,-1.5104693174362183,-8.791230201721191,-1.0348957777023315
1781604272612004600,18.589004638671874,0.2273181527853012,-8.26540756225586,0.28594231605529785
1781604272670224000,18.647223876953124,0.1453639715909958,-11.155937194824219,-2.534597396850586
1781604272767255600,18.744255615234376,-5.127819061279297,-3.7465620040893555,0.14775680005550385
1781604272825474800,18.802474853515626,-3.403790235519409,-12.854841232299805,5.907280921936035
1781604272883693800,18.86069384765625,-6.887141704559326,-20.505891799926758,-4.711467742919922
1781604272980725800,18.957725830078125,0.29012975096702576,-8.361120223999023,-0.28953152894973755
1781604273116570400,19.0935703125,1.557727575302124,-6.639484405517578,-3.954139471054077
1781604273174789400,19.151789306640627,0.7046862840652466,-16.109079360961914,-2.09431791305542
1781604273252415000,19.2294150390625,-1.4829518795013428,-13.323236465454102,-1.8634105920791626
1781604273330040300,19.307040283203126,-0.3643072545528412,-8.860024452209473,-2.407179594039917
1781604273407666000,19.384666015625,-0.18364913761615753,-11.587244033813477,2.750549554824829
1781604273504697900,19.48169775390625,-1.6307085752487183,-7.775477409362793,-0.10468599200248718
1781604273582323200,19.5593232421875,-1.1419745683670044,-8.362317085266113,-1.9692929983139038
1781604273659948800,19.63694873046875,2.0213370323181152,-8.62612533569336,-0.9433703422546387
1781604273737574100,19.71457421875,-1.4350954294204712,-12.91765308380127,-4.636692047119141
1781604273795793400,19.77279345703125,-1.7437695264816284,-5.269593715667725,1.5188441276550293
1781604273892825000,19.8698251953125,-4.3178486824035645,-22.91606330871582,1.922034740447998
1781604273970450700,19.94745068359375,0.17347964644432068,-1.9286150932312012,-4.156332969665527
1781604274067482400,20.044482421875,0.6370890140533447,-6.962515830993652,0.6634100675582886
1781604274164514300,20.141514404296874,1.9561325311660767,-9.756135940551758,-4.205984115600586
1781604274261546000,20.2385458984375,3.8847475051879883,-10.948360443115234,-0.6807580590248108
1781604274397390600,20.374390625,-1.6845471858978271,-9.715457916259766,-1.607378602027893
1781604274533235200,20.510235107421874,-2.5459632873535156,-6.134000778198242,0.898504912853241
1781604274630267000,20.607266845703126,-0.5730810165405273,-8.86780071258545,-1.2652050256729126
1781604274688486100,20.665486083984376,2.0398812294006348,-5.936593055725098,-3.1962127685546875
1781604274785517800,20.762517822265625,1.0157532691955566,-13.808381080627441,-2.2498514652252197
1781604274863143200,20.84014306640625,-4.692325115203857,-4.460819721221924,2.678166627883911
1781604274960175000,20.937175048828124,-4.803591251373291,-24.257837295532227,-5.525027275085449
1781604275018394000,20.99539404296875,0.5018945336341858,0.259621262550354,-4.837689399719238
1781604275096019700,21.073019775390627,0.6628118753433228,-8.036892890930176,1.5571293830871582
1781604275154238700,21.13123876953125,1.6067804098129272,-8.792427062988281,-3.1621150970458984
1781604275212457700,21.189457763671875,3.390629768371582,-9.131011009216309,-7.29392147064209
1781604275270676700,21.2476767578125,0.9912267923355103,-14.368301391601562,0.607776939868927
1781604275328895700,21.305895751953123,-0.4743770956993103,-15.940385818481445,2.434098720550537
1781604275425927700,21.402927734375,-2.1122641563415527,-12.683754920959473,-1.5361921787261963
1781604275484146700,21.461146728515626,1.0115658044815063,-8.505288124084473,0.48873403668403625
1781604275561772000,21.53877197265625,-1.862214207649231,-7.234699249267578,0.7704889178276062
1781604275619991000,21.596990966796874,-0.503689169883728,-9.46899700164795,-2.191227436065674
1781604275736429300,21.71342919921875,1.7515461444854736,-5.838487148284912,-0.714257538318634
1781604275852867300,21.829867431640626,-3.0927233695983887,-4.962714195251465,-1.540379524230957
1781604275911086300,21.88808642578125,-5.00578498840332,-8.819944381713867,5.815157413482666
1781604276008118300,21.9851181640625,-3.989433526992798,-11.210373878479004,-9.05563735961914
1781604276085743600,22.06274365234375,2.2582263946533203,-6.343971252441406,0.14416755735874176
1781604276163369000,22.140368896484375,1.51166570186615,-8.62193775177002,-1.1922239065170288
1781604276240994300,22.217994384765625,2.077568292617798,-9.254241943359375,-6.070590972900391
1781604276338026000,22.31502587890625,-0.0526420995593071,-15.74118423461914,0.9373882412910461
1781604276396249300,22.373249267578124,-2.468794822692871,-7.408777236938477,-1.3591232299804688
1781604276454464000,22.431464111328125,-2.36291241645813,-11.625529289245605,-0.5988038778305054
1781604276551496000,22.528495849609374,-1.129412293434143,-4.0079779624938965,2.0297117233276367
1781604276629121300,22.606121337890624,0.1986042857170105,-11.312068939208984,-1.954936146736145
1781604276726153000,22.703153076171876,3.125624656677246,-5.793023586273193,-2.5734808444976807
1781604276784372000,22.7613720703125,-0.7950153350830078,-12.255439758300781,-5.42572546005249
1781604276861997300,22.838997314453124,-2.2755744457244873,-5.666802406311035,-0.5539384484291077
1781604276920216600,22.897216552734374,-4.098905086517334,-8.71226692199707,6.598806858062744
1781604276978435300,22.955435302734376,-4.863411903381348,-29.655447006225586,-4.022933006286621
1781604277094873600,23.07187353515625,1.4159528017044067,-7.53140926361084,0.7968099117279053
1781604277211311600,23.1883115234375,2.022533416748047,-7.654041290283203,-4.071985721588135
1781604277308343300,23.28534326171875,2.6045875549316406,-12.830314636230469,0.29431718587875366
1781604277366562300,23.343562255859375,-3.242274761199951,-14.530415534973145,1.0689935684204102
1781604277444187600,23.421187744140624,-1.8801604509353638,-9.618548393249512,-0.4977070987224579
1781604277541219300,23.51821923828125,0.5395814776420593,-6.357729911804199,0.9038887619972229
1781604277618845000,23.595844970703126,-0.4666004180908203,-9.518050193786621,-1.8747764825820923
1781604277696470000,23.673469970703124,0.544965386390686,-9.107083320617676,-0.4737788736820221
1781604277754689300,23.731689208984374,2.5920250415802,-5.56869649887085,-2.6255247592926025
1781604277851721000,23.828720947265627,1.200000524520874,-10.39202880859375,-1.7718851566314697
1781604277968159000,23.945158935546875,-3.566502094268799,-21.16990089416504,3.277568817138672
1781604278026378000,24.0033779296875,-3.0005996227264404,-10.30469036102295,-7.829914093017578
1781604278123409700,24.10040966796875,0.5066801905632019,-7.3878397941589355,0.5563312768936157
1781604278201035000,24.178034912109375,1.750349760055542,-8.419744491577148,-1.353141188621521
1781604278259254000,24.23625390625,1.9627127647399902,-10.569097518920898,-4.578067779541016
1781604278317473000,24.29447314453125,3.197409152984619,-12.187243461608887,0.20398813486099243
1781604278395098400,24.372098388671876,-5.814558982849121,-15.66401481628418,0.9625129103660583
1781604278472723700,24.4497236328125,-1.9932212829589844,-9.119047164916992,-1.5020943880081177
1781604278569755400,24.54675537109375,0.5341976284980774,-5.349154949188232,2.3539392948150635
1781604278627974400,24.604974365234376,-0.7782655358314514,-8.413164138793945,0.050847481936216354
1781604278686193400,24.663193359375,-0.5874379873275757,-11.506485939025879,-2.1996021270751953
1781604278744412400,24.721412353515625,2.0817556381225586,-5.854040622711182,-1.1389836072921753
1781604278860850400,24.837850341796877,-0.9373882412910461,-10.99322509765625,-3.960719585418701
1781604278957882000,24.934882080078125,-3.5617165565490723,-9.908080101013184,7.795815944671631
1781604279016101000,24.99310107421875,-5.44008207321167,-26.80559539794922,-6.424130439758301
1781604279093726500,25.0707265625,2.4185454845428467,-4.246662139892578,-1.6420745849609375
1781604279171351800,25.148351806640626,1.1874382495880127,-6.918248653411865,-0.16271193325519562
1781604279248977200,25.22597705078125,2.077568292617798,-9.44746208190918,-4.337589263916016
1781604279326602500,25.3036025390625,2.846860647201538,-12.217154502868652,0.5826523303985596
1781604279443040500,25.42004052734375,-1.6307085752487183,-7.848458290100098,-1.852044701576233
1781604279540072200,25.517072265625,0.8584251403808594,-9.982855796813965,1.8807586431503296
1781604279637103900,25.614103759765626,-0.5641079545021057,-9.008976936340332,0.6658028960227966
1781604279695323000,25.672322998046877,-1.2658032178878784,-8.726624488830566,-1.3764712810516357
1781604279792354600,25.7693544921875,0.5790630578994751,-6.786045074462891,-4.027718544006348
1781604279869980000,25.84697998046875,-2.002194404602051,-11.115857124328613,-4.754538536071777
1781604279986418000,25.96341796875,-5.040481090545654,-21.739990234375,3.421138286590576
1781604280044637000,26.021636962890625,-1.7623138427734375,-5.276174068450928,-9.275776863098145
1781604280102856000,26.07985595703125,1.317248821258545,-6.749554634094238,-0.784247636795044
1781604280180481300,26.157481201171876,-0.15254244208335876,-6.858428001403809,-2.059023857116699
1781604280258106400,26.2351064453125,2.4675984382629395,-10.221540451049805,-2.9694929122924805
1781604280335731700,26.312731689453123,4.241278171539307,-11.01296615600586,0.5623133182525635
1781604280413357000,26.390357177734376,-5.3347978591918945,-12.083754539489746,1.8711873292922974
1781604280490982400,26.467982421875,-2.5112674236297607,-10.74855899810791,0.21954147517681122
1781604280568607700,26.545607666015623,1.3663017749786377,-6.2536420822143555,1.423729419708252
1781604280646233000,26.623233154296877,-0.3720839321613312,-9.602396965026855,0.14656038582324982
1781604280743264800,26.7202646484375,0.45104706287384033,-6.175875186920166,-0.06340979784727097
1781604280820890000,26.79789013671875,0.004187439568340778,-14.045270919799805,-6.463612079620361
1781604280898515500,26.875515380859376,-2.4670002460479736,-4.5338006019592285,0.5916253924369812
1781604280976140500,26.953140625,-3.9595232009887695,-18.27398681640625,8.052446365356445
1781604281034359600,27.011359619140624,-5.485546112060547,-15.815959930419922,-9.080163955688477
1781604281131391200,27.10839111328125,0.6975077986717224,-6.244070529937744,0.31405797600746155
1781604281209016600,27.1860166015625,1.693520188331604,-8.482556343078613,-1.425524115562439
1781604281286642000,27.263641845703123,1.7240287065505981,-14.069198608398438,-3.060420274734497
1781604281344861000,27.32186083984375,2.6494529247283936,-10.975278854370117,-2.5082762241363525
1781604281403080000,27.380079833984375,-4.931009292602539,-13.217353820800781,1.5445669889450073
1781604281461298700,27.438298583984373,-1.5900306701660156,-10.701899528503418,-3.3475589752197266
1781604281538924000,27.515924072265626,1.8867406845092773,-7.7491559982299805,2.3371894359588623
1781604281616549400,27.59354931640625,-2.368894338607788,-8.007580757141113,0.6795616149902344
1781604281694174700,27.6711748046875,-1.1832507848739624,-9.259027481079102,0.6101697683334351
1781604281752393700,27.729393798828124,3.9834516048431396,-3.8075790405273438,-2.8037898540496826
1781604281810612700,27.78761279296875,-2.132603168487549,-15.75255012512207,-7.210771083831787
1781604281927050500,27.904050537109374,-4.936991214752197,-9.8207426071167,5.779862880706787
1781604281985269500,27.96226953125,-4.889134883880615,-31.90888786315918,-1.6582261323928833
1781604282043488500,28.020488525390626,1.7688941955566406,3.352942705154419,-5.535196781158447
1781604282140520000,28.11752001953125,1.1635099649429321,-6.035895347595215,-1.0941181182861328
1781604282198739000,28.175739013671876,2.383251428604126,-8.70628547668457,-3.8291144371032715
1781604282295770600,28.2727705078125,1.877767562866211,-15.272789001464844,2.8588249683380127
1781604282353989600,28.33098974609375,-1.2317054271697998,-14.260624885559082,3.4707891941070557
1781604282451021000,28.42802099609375,-1.82273268699646,-12.342777252197266,0.9152546525001526
1781604282509240000,28.486239990234374,1.851446509361267,-6.52044153213501,2.2295124530792236
1781604282645084400,28.62208447265625,-0.9367900490760803,-10.243075370788574,-0.5156532526016235
1781604282742116000,28.7191162109375,4.103092670440674,-3.835096597671509,-3.951148271560669
1781604282877960200,28.854960205078125,-3.004786968231201,-7.167700290679932,6.838686943054199
1781604282936179200,28.91317919921875,-4.620540618896484,-27.943382263183594,5.496313571929932
1781604283013804300,28.99080419921875,1.7581263780593872,4.861019134521484,-7.665407180786133
1781604283091429600,29.0684296875,0.45164528489112854,-6.225526332855225,1.9950158596038818
1781604283149648600,29.126648681640624,2.1397817134857178,-6.184250354766846,-1.3310075998306274
1781604283246680000,29.22368017578125,1.781456470489502,-15.662818908691406,0.6065805554389954
1781604283304899000,29.281899169921875,-2.606382131576538,-23.07040023803711,4.660620212554932
1781604283401930800,29.3789306640625,-2.445464849472046,-13.984851837158203,-0.8895317912101746
1781604283498962200,29.475962158203124,-0.4342973232269287,-3.4755749702453613,2.2337000370025635
1781604283557181200,29.53418115234375,-0.02273181453347206,-9.742975234985352,0.6927221417427063
1781604283654212600,29.631212646484375,1.2508480548858643,-9.022735595703125,-0.6508477330207825
1781604283751244300,29.728244384765624,-1.8352949619293213,-14.10808277130127,-6.001797199249268
1781604283809463000,29.786463134765626,-4.478167533874512,-7.071389198303223,2.6117658615112305
1781604283887088400,29.86408837890625,-5.621936798095703,-28.693532943725586,5.420939922332764
1781604283984119800,29.961119873046876,2.3258235454559326,-2.5357937812805176,-3.3714871406555176
1781604284061745200,30.0387451171875,0.9828519225120544,-6.334399700164795,0.0771685317158699
1781604284139370200,30.116370361328126,1.9926230907440186,-8.440083503723145,-6.997211456298828
1781604284255808300,30.232808349609375,-1.1126625537872314,-19.101903915405273,1.4333007335662842
1781604284333433300,30.310433349609376,-4.07258415222168,-15.214164733886719,-3.735196113586426
1781604284391652400,30.36865234375,0.8428717851638794,-8.320442199707031,2.228316068649292
1781604284449871400,30.426871337890624,-1.1341979503631592,-4.332803726196289,2.0063817501068115
1781604284508090000,30.485090087890626,0.3367897868156433,-9.76391315460205,0.5784648656845093
1781604284643934200,30.620934326171874,3.9349968433380127,-3.4743785858154297,-5.897111415863037
1781604284721559600,30.6985595703125,-0.8398807644844055,-14.167304992675781,-3.334996461868286
1781604284779778300,30.7567783203125,-4.786841869354248,-4.826323509216309,3.9254255294799805
1781604284876810000,30.85381005859375,-7.371688365936279,-27.591039657592773,-6.179464340209961
1781604284935028700,30.91202880859375,2.902493953704834,2.1092731952667236,-5.040481090545654
1781604285032060400,31.009060302734376,0.755533754825592,-5.962913990020752,-1.3908281326293945
1781604285129091800,31.106091796875,1.8454644680023193,-15.9774751663208,-5.115854740142822
1781604285264936000,31.24193603515625,-3.5916268825531006,-7.015756130218506,-4.676173686981201
1781604285342561000,31.31956103515625,-0.10648060590028763,-10.996814727783203,4.67078971862793
1781604285439592400,31.416592529296874,-2.6835505962371826,-5.00578498840332,0.9170492887496948
1781604285497811500,31.4748115234375,-1.0031908750534058,-9.158528327941895,-0.4893322288990021
1781604285556030500,31.533030517578126,0.04127619042992592,-11.20798110961914,0.3810569941997528
1781604285653062000,31.630061767578123,-1.4775680303573608,-16.698911666870117,-11.029117584228516
1781604285788906000,31.765906005859375,-2.252244234085083,-22.21257209777832,8.647661209106445
1781604285885937400,31.8629375,3.4372897148132324,4.2831525802612305,-5.626124382019043
1781604286002375000,31.979375,1.9369899034500122,-6.208178520202637,-1.007378339767456
1781604286099406600,32.07640649414063,-0.9996016621589661,-18.20220184326172,-3.2793633937835693
1781604286235250400,32.21225048828125,-3.7130625247955322,-9.596415519714355,-5.017749309539795
1781604286332282000,32.3092822265625,1.698904037475586,-6.908677101135254,2.713460922241211
1781604286468126000,32.4451259765625,-1.0354939699172974,-10.235299110412598,-1.9070796966552734
1781604286565157400,32.542157470703124,2.373081922531128,-2.5351955890655518,-2.7571299076080322
1781604286701001500,32.67800146484375,-4.533202648162842,-5.649454116821289,5.013561725616455
1781604286817439000,32.79443896484375,-5.480760097503662,-14.879169464111328,-13.039687156677246
1781604286875658000,32.85265795898437,2.871387243270874,-5.281557559967041,-3.2374889850616455
1781604286972689400,32.949689453125,1.6713865995407104,-4.836492538452148,-0.3170489966869354
1781604287030908200,33.007908203125,2.2785654067993164,-7.223931789398193,-3.201596736907959
1781604287108533200,33.085533203125,1.9878374338150024,-15.524035453796387,3.418147087097168
1781604287205564700,33.182564697265626,-4.588237285614014,-7.433901786804199,-1.5756736993789673
1781604287283190000,33.26018994140625,-0.9296116232872009,-12.441481590270996,3.252444267272949
1781604287341408800,33.31840869140625,1.9968105554580688,-5.597410202026367,2.5938198566436768
1781604287457846300,33.43484619140625,-0.9451649188995361,-10.969895362854004,-0.4145565330982208
1781604287535471600,33.5124716796875,5.934200286865234,-2.8103702068328857,-2.3539392948150635
1781604287613096700,33.5900966796875,-0.34995031356811523,-17.614166259765625,-8.017151832580566
1781604287690721800,33.6677216796875,-4.009772777557373,-5.167898654937744,5.260620594024658
1781604287768347000,33.74534692382812,-7.093522548675537,-36.05624771118164,-1.8454644680023193
1781604287845972000,33.82297192382813,2.5740790367126465,1.9316060543060303,-4.744967460632324
1781604287923597000,33.90059716796875,0.7328019142150879,-6.985247611999512,2.5974090099334717
1781604287981815800,33.95881591796875,1.8544375896453857,-6.604788780212402,-0.5605186820030212
1781604288040034800,34.017034912109374,0.6795616149902344,-13.440485000610352,-5.734997749328613
1781604288098253600,34.075253662109375,4.164109706878662,-12.896716117858887,0.6717849373817444
1781604288214691000,34.19169116210937,-2.117648124694824,-12.470194816589355,-3.8668015003204346
1781604288272910000,34.24991015625,0.5491527915000916,-10.551151275634766,4.360321044921875
1781604288369941500,34.34694140625,-1.4679967164993286,-7.798209190368652,1.2759727239608765
1781604288466972700,34.44397265625,-1.1886346340179443,-9.397810935974121,-1.567897081375122
1781604288525191400,34.50219140625,2.8007988929748535,-2.5531418323516846,-5.672784328460693
1781604288661035500,34.63803540039063,-3.7226338386535645,-7.53858757019043,6.10468864440918
1781604288719254300,34.69625415039062,-4.393222332000732,-29.328227996826172,4.180261135101318
1781604288777473000,34.75447314453125,-2.60339093208313,-2.448455810546875,-11.542378425598145
1781604288835691800,34.81269189453125,2.383849620819092,-6.005984783172607,-1.3423734903335571
1781604288893910800,34.87091088867187,0.44327038526535034,-6.2638115882873535,1.2329018115997314
1781604288971536000,34.94853588867188,2.2325034141540527,-8.315058708190918,-3.214757204055786
1781604289029754600,35.00675463867187,0.7932206988334656,-18.174684524536133,2.349153518676758
1781604289107379700,35.08437963867188,-1.3561322689056396,-13.26102352142334,-0.08075776696205139
1781604289165598500,35.14259838867188,-3.7423746585845947,-13.953744888305664,-3.2751760482788086
1781604289301442300,35.2784423828125,-2.596810817718506,-5.455037593841553,-0.9385846853256226
1781604289359661000,35.3366611328125,0.1782652884721756,-10.029516220092773,-2.2959132194519043
1781604289456692200,35.43369213867187,3.572484254837036,-6.760920524597168,-1.3310075998306274
1781604289514911200,35.4919111328125,-1.4380863904953003,-10.562517166137695,-4.688137531280518
1781604289573130000,35.5501298828125,-2.71645188331604,-9.601799011230469,-2.9790642261505127
1781604289650755000,35.627755126953126,-2.379063844680786,-9.799206733703613,8.572885513305664
1781604289728380200,35.70538012695312,-5.535795211791992,-13.083953857421875,-12.265608787536621
1781604289786599000,35.763598876953125,2.9485557079315186,-4.041477680206299,-3.6299118995666504
1781604289883630000,35.860630126953126,1.9519450664520264,-5.4951171875,-0.6047859191894531
1781604289941848800,35.91884887695313,2.957528829574585,-9.233902931213379,-4.121636867523193
1781604290019474000,35.996473876953125,4.43031120300293,-10.631311416625977,1.6917256116867065
1781604290116505300,36.09350537109375,-1.7377874851226807,-8.24686336517334,-2.073979139328003
1781604290232942800,36.20994287109375,2.2271196842193604,-7.258627414703369,2.9186453819274902
1781604290291161600,36.26816162109375,-2.500499725341797,-4.905884742736816,2.160120725631714
1781604290388192800,36.36519287109375,-1.7593228816986084,-10.51645565032959,-1.0995019674301147
1781604290446411800,36.42341186523438,3.4881372451782227,-2.53399920463562,-5.019543647766113
1781604290504630500,36.48163061523437,-1.8095721006393433,-16.939390182495117,-7.579864025115967
1781604290562849300,36.539849365234375,-5.286343574523926,-5.536393165588379,1.9202401638031006
1781604290621068000,36.598068115234376,-1.893320918083191,-15.686746597290039,9.236893653869629
1781604290698693000,36.675693115234374,-4.136591911315918,-6.172883987426758,-12.448659896850586
1781604290776318000,36.75331787109375,0.8901300430297852,-5.095515727996826,1.389033555984497
1781604290853943000,36.830943115234376,1.770688772201538,-7.80837869644165,0.05742774158716202
1781604290912161800,36.88916186523438,1.472184181213379,-12.851252555847168,-5.30847692489624
1781604290970380500,36.94738061523437,3.8662030696868896,-13.297513961791992,3.4372897148132324
1781604291067412000,37.04441186523437,-3.5132617950439453,-7.149754047393799,-4.47697114944458
1781604291125630700,37.102630615234375,-1.9543378353118896,-12.597014427185059,2.4364917278289795
1781604291183849500,37.16084936523438,2.6255247592926025,-5.278566837310791,2.9898319244384766
1781604291280880600,37.25788061523438,-0.2709871530532837,-10.708479881286621,0.06340979784727097
1781604291339099400,37.31609936523437,-0.22372891008853912,-10.940583229064941,-0.4097708761692047
1781604291416724500,37.39372436523438,-0.9224331378936768,-5.529214859008789,-7.061817646026611
1781604291494349300,37.471349365234374,-3.9499518871307373,-6.212365627288818,-0.5706881880760193
1781604291591380700,37.568380615234375,-3.3744781017303467,-28.716264724731445,7.724031448364258
1781604291649599500,37.626599609375,-3.716651678085327,-3.9314076900482178,-11.824132919311523
1781604291746630700,37.72363061523438,0.31046873331069946,-6.403193473815918,1.4572290182113647
1781604291824255700,37.801255859375,2.2372891902923584,-7.295716285705566,-2.0506489276885986
1781604291901880800,37.878880859375,0.33738797903060913,-17.076976776123047,1.4841482639312744
1781604291960099600,37.937099609375,-0.008374879136681557,-20.942581176757812,4.696512699127197
1781604292018318300,37.995318359375,-4.335196495056152,-9.885947227478027,-7.700103282928467
1781604292115349500,38.092349609375,1.9764715433120728,-7.004390239715576,3.431307554244995
1781604292212380700,38.18938061523438,0.012562318705022335,-9.832706451416016,0.7734799385070801
1781604292290005800,38.267005859375,-0.13938191533088684,-9.999007225036621,0.08015955984592438
1781604292367630800,38.344630859375,1.069591760635376,-4.169493675231934,-7.411767959594727
1781604292445255700,38.42225561523438,-2.001596212387085,-9.847063064575195,-2.8893332481384277
1781604292542287000,38.519287109375,-2.11824631690979,-16.409976959228516,8.790632247924805
1781604292639318300,38.616318359375,1.3304094076156616,5.889933109283447,-7.95434045791626
1781604292697537000,38.674537109375,0.9158528447151184,-5.719444274902344,1.3776676654815674
1781604292775161900,38.75216186523438,1.6289139986038208,-7.685148239135742,-0.7938188910484314
1781604292852787000,38.829786865234375,0.45224347710609436,-15.768701553344727,-4.72582483291626
1781604292930412000,38.907412109375,-2.128415822982788,-21.498315811157227,3.5814573764801025
1781604292988630800,38.965630859375,-3.390031576156616,-6.15254545211792,-4.357928276062012
1781604293046849500,39.023849609375,-1.6157535314559937,-13.849059104919434,2.6566312313079834
1781604293143880700,39.12088061523438,-2.280359983444214,-4.0079779624938965,0.8045865893363953
1781604293221505500,39.198505615234374,-0.5557330846786499,-10.676774978637695,-0.9559326171875
1781604293318536700,39.29553662109375,3.5778679847717285,-2.3712873458862305,-4.575675010681152
1781604293376755500,39.35375537109375,-1.4656038284301758,-18.116060256958008,-7.159923553466797
1781604293454380500,39.431380615234374,-5.081757068634033,-3.597608804702759,2.4921247959136963
1781604293551411700,39.52841162109375,-6.613163471221924,-33.5665168762207,-2.5674986839294434
1781604293648443100,39.625443115234376,2.48315167427063,-5.5968122482299805,-0.9577272534370422
1781604293706662000,39.68366186523438,0.6813562512397766,-6.81595516204834,0.8703892230987549
1781604293764880400,39.74188037109375,2.050050735473633,-8.734400749206543,-3.057429075241089
1781604293842505500,39.81950537109375,1.6354942321777344,-15.039488792419434,1.4500504732131958
1781604293939536600,39.91653662109375,-5.426921844482422,-11.305488586425781,-1.2089736461639404
1781604293997755400,39.97475537109375,-2.8875386714935303,-11.790035247802734,-2.9563324451446533
1781604294075380500,40.05238037109375,2.6662025451660156,-6.86261510848999,2.8911280632019043
1781604294172411600,40.14941162109375,0.18544375896453857,-10.482955932617188,1.0941181182861328
1781604294230630400,40.20763037109375,-0.14297115802764893,-9.637691497802734,-1.415354609489441
1781604294327661600,40.30466162109375,-2.0721843242645264,-12.105289459228516,-6.394818305969238
1781604294405286700,40.38228662109375,-4.728217601776123,-4.666004180908203,0.2757728099822998
1781604294482911500,40.45991137695312,-2.3294129371643066,-21.360727310180664,8.717052459716797
1781604294560536600,40.53753662109375,-1.3902299404144287,-1.8801604509353638,-10.64088249206543
1781604294638161400,40.615161376953125,0.8662018179893494,-6.550352096557617,1.4883357286453247
1781604294696380200,40.67338012695313,1.1377872228622437,-6.317051887512207,-0.07896314561367035
1781604294754599000,40.73159887695312,2.0578274726867676,-9.474381446838379,-2.5124638080596924
1781604294812817700,40.78981762695312,1.1240284442901611,-15.88714599609375,-0.12681959569454193
1781604294890442800,40.86744287109375,-5.446064472198486,-20.770896911621094,2.3611178398132324
1781604294968067600,40.945067626953126,-2.7834508419036865,-10.494321823120117,-2.6009981632232666
1781604295045692700,41.02269262695312,2.816950559616089,-7.6498541831970215,2.447857618331909
1781604295103911200,41.0809111328125,-3.0628130435943604,-4.219742774963379,1.6941183805465698
1781604295162130000,41.1391298828125,-0.08195417374372482,-11.713464736938477,-1.1431710720062256
1781604295259161300,41.23616137695313,3.9086756706237793,-3.260220766067505,-5.061418056488037
1781604295336786200,41.3137861328125,-1.6707884073257446,-15.598212242126465,-5.9916276931762695
1781604295395005000,41.3720048828125,-3.3858439922332764,-7.151548862457275,3.786641836166382
1781604295492036000,41.4690361328125,-9.197412490844727,-30.853652954101562,-4.064807415008545
1781604295569661200,41.5466611328125,3.31884503364563,-2.1003000736236572,-3.62153697013855
1781604295666692400,41.6436923828125,1.7641085386276245,-6.477370738983154,-0.29371899366378784
1781604295724911000,41.7019111328125,1.6211373805999756,-8.38564682006836,-3.8123645782470703
1781604295802536200,41.7795361328125,2.5633113384246826,-14.080564498901367,3.322434186935425
1781604295880161000,41.8571611328125,-6.4217376708984375,-11.627323150634766,1.2203395366668701
1781604295938379800,41.9153798828125,-2.8755745887756348,-11.274381637573242,-3.4821550846099854
1781604296054817300,42.0318173828125,-0.8769695162773132,-3.263211965560913,2.23848557472229
1781604296151848400,42.12884838867188,-1.074377417564392,-11.690732955932617,-0.49651068449020386
1781604296287692000,42.264692138671876,-2.3539392948150635,-16.375879287719727,-8.751151084899902
1781604296345910800,42.32291088867188,-3.3678979873657227,-3.985844373703003,-0.10289137065410614
1781604296404129500,42.38112963867187,-2.833700180053711,-9.099306106567383,8.609973907470703
1781604296462348300,42.439348388671874,-8.346165657043457,-34.46741485595703,-3.7800614833831787
1781604296520566800,42.49756689453125,1.3962119817733765,6.960721015930176,-8.531010627746582
1781604296656410600,42.63341064453125,1.7306089401245117,-6.692126750946045,-1.201795220375061
1781604296714629400,42.69162939453125,2.5298118591308594,-12.452248573303223,-6.829713821411133
1781604296772848000,42.74984814453125,0.5563312768936157,-14.857633590698242,4.104887008666992
1781604296869879300,42.84687939453125,-3.1339993476867676,-8.540582656860352,-6.847660064697266
1781604296966910500,42.94391040039063,2.1433708667755127,-8.090133666992188,2.5674986839294434
1781604297025129200,43.00212915039062,-2.7463622093200684,-3.8745779991149902,0.8009973764419556
1781604297141566700,43.118566650390626,-1.3088740110397339,-9.942177772521973,-0.8087740540504456
1781604297219191600,43.196191650390624,1.2418749332427979,-4.483551502227783,-5.034498691558838
1781604297296816400,43.27381640625,0.013160524889826775,-11.877373695373535,-4.555934429168701
1781604297374441500,43.35144140625,-4.4273200035095215,-6.2291154861450195,8.163114547729492
1781604297452066300,43.42906640625,-6.500700950622559,-24.50190544128418,-9.114261627197266
1781604297510285000,43.48728515625,2.1511476039886475,2.6213371753692627,-4.198805332183838
1781604297607316500,43.58431640625,1.1341979503631592,-6.7345991134643555,0.6107679605484009
1781604297665535000,43.642534912109376,1.7365909814834595,-7.677371501922607,-2.4119651317596436
1781604297723753700,43.70075366210938,-0.15074782073497772,-18.269201278686523,-4.948357105255127
1781604297820785000,43.79778491210938,-2.770888566970825,-9.518050193786621,2.3874387741088867
1781604297898410000,43.875409912109376,-3.0143582820892334,-14.396417617797852,-0.649053156375885
1781604297995441200,43.97244116210938,0.04426721855998039,-2.746960401535034,2.6398816108703613
1781604298092472300,44.06947241210938,-0.8333004713058472,-11.426326751708984,-1.9669002294540405
1781604298189503500,44.16650341796875,3.9972102642059326,-3.229114055633545,-4.491926193237305
1781604298267128300,44.24412841796875,-0.6675975322723389,-15.78246021270752,-4.955535888671875
1781604298383565800,44.36056591796875,-1.4243277311325073,-17.90788459777832,9.519247055053711
1781604298441784600,44.41878466796875,-7.317849636077881,-17.113468170166016,-10.673783302307129
1781604298500003300,44.47700341796875,3.6436707973480225,-2.8283164501190186,-2.8827531337738037
1781604298616440600,44.59344067382813,1.7204394340515137,-6.183651924133301,-1.3214362859725952
1781604298674659300,44.65165942382812,2.348555326461792,-12.42533016204834,-6.000002861022949
1781604298732878000,44.70987817382812,0.9320043921470642,-14.643476486206055,3.555734395980835
1781604298868721700,44.8457216796875,-3.5712878704071045,-13.87059497833252,-3.5473594665527344
1781604298965752800,44.9427529296875,1.6121642589569092,-4.104887008666992,2.984447956085205
1781604299043378000,45.0203779296875,0.09870393574237823,-9.037691116333008,-0.2745763957500458
1781604299121002800,45.098002685546874,-1.0223335027694702,-9.747760772705078,-0.16749759018421173
1781604299218034000,45.195033935546874,-1.2831511497497559,-13.702498435974121,-5.8821563720703125
1781604299276252700,45.253252685546876,-3.3786656856536865,-7.912466049194336,-1.2490534782409668
1781604299334471400,45.31147143554688,-4.175475597381592,-7.024130821228027,6.415157318115234
1781604299431502600,45.40850268554688,-3.48993182182312,-9.94397258758545,-8.48734188079834
1781604299567346200,45.54434619140625,1.0157532691955566,-5.912664890289307,-0.11186445504426956
1781604299625565000,45.60256494140625,1.5649060010910034,-8.772686004638672,-1.7670994997024536
1781604299722596000,45.69959619140625,4.530211448669434,-12.39841079711914,0.9158528447151184
1781604299839033300,45.816033447265625,-1.6462619304656982,-10.65523910522461,-3.4809587001800537
1781604299936064500,45.913064453125,1.953141450881958,-8.144570350646973,0.4743770956993103
1781604300052502000,46.029501953125,0.43968117237091064,-8.69910717010498,-4.032504558563232
1781604300110720800,46.087720703125,-0.8548358678817749,-10.102497100830078,1.5948163270950317
1781604300207752000,46.184751953125,-2.544766902923584,-12.282957077026367,-2.770888566970825
1781604300285377000,46.262376953125,-5.020740032196045,-7.229913711547852,1.2305090427398682
1781604300382408000,46.35940795898438,-4.012763500213623,-24.978076934814453,0.03349951654672623
1781604300479439000,46.45643920898438,1.220937728881836,-5.434698581695557,0.04187439754605293
1781604300557064200,46.534064208984375,0.3924229145050049,-7.146164894104004,-0.7806583642959595
1781604300654095400,46.631095458984376,0.50907301902771,-12.929616928100586,-3.6340994834899902
1781604300731720400,46.708720458984374,1.9256240129470825,-15.302101135253906,-2.376671075820923
1781604300789939000,46.76693896484375,-4.991427898406982,-15.2016019821167,-3.1351959705352783
1781604300848157700,46.82515771484375,-2.6350958347320557,-12.397811889648438,-3.3439695835113525
1781604300945188900,46.92218896484375,-1.3154542446136475,-11.551949501037598,-2.538186550140381
1781604301003407600,46.98040771484375,-4.665405750274658,-5.002195835113525,1.4949159622192383
1781604301081032400,47.058032470703125,-1.7904295921325684,-1.6325032711029053,3.7986059188842773
1781604301178063600,47.155063720703126,12.187243461608887,-11.815159797668457,-7.961519241333008
1781604301275095000,47.252094970703126,7.121040344238281,-15.377474784851074,-8.603992462158203
1781604301333313500,47.3103134765625,1.2675977945327759,-13.176675796508789,-6.8865437507629395
1781604301449751000,47.4267509765625,-2.5154547691345215,-9.54197883605957,-5.167898654937744
1781604301546782200,47.5237822265625,-2.1744775772094727,-7.017550468444824,-3.294318675994873
1781604301643813400,47.6208134765625,-1.3663017749786377,-9.476176261901855,-2.1750757694244385
1781604301740844500,47.717844482421874,5.2151570320129395,-14.940784454345703,-1.4727823734283447
1781604301818469600,47.7954697265625,5.605785369873047,-15.064613342285156,-7.186244487762451
1781604301915500800,47.89250073242187,3.040081262588501,-8.231907844543457,-4.4135613441467285
1781604302012532000,47.98953198242187,-1.4985052347183228,-4.161118507385254,-0.6011967062950134
1781604302070750700,48.047750732421875,2.076970100402832,-3.5874392986297607,-1.4380863904953003
1781604302128969500,48.10596948242188,-0.5946164131164551,-2.9048867225646973,-0.9690931439399719
1781604302187188000,48.16418798828125,1.973480463027954,-5.3694939613342285,-0.15912270545959473
1781604302245406700,48.22240673828125,5.023132801055908,-23.767309188842773,-6.856035232543945
1781604302303625500,48.28062548828125,-0.20398813486099243,-17.58425521850586,-9.625727653503418
1781604302361844200,48.33884423828125,-3.4947173595428467,-9.625128746032715,-4.7336015701293945
1781604302420063000,48.39706298828125,0.8512466549873352,-3.744767427444458,-4.415954113006592
1781604302478281500,48.45528149414063,-0.4953143000602722,-1.1371889114379883,-7.161718368530273
1781604302536500200,48.51350024414062,-0.6693921089172363,-7.4841508865356445,-2.4747767448425293
1781604302633531400,48.61053149414062,3.4474592208862305,-15.28176212310791,-2.0333011150360107
1781604302691750100,48.668750244140625,0.1052841991186142,-14.70210075378418,-1.4057832956314087
1781604302749969000,48.72696899414063,-0.5617151260375977,-5.2869415283203125,-3.5437703132629395
1781604302808187600,48.78518774414062,0.43609192967414856,-8.978468894958496,-7.380661487579346
1781604302866406400,48.84340649414062,-6.6245293617248535,3.2141590118408203,-5.277370452880859
1781604302924625200,48.901625244140625,5.139184951782227,-8.374878883361816,-5.092525005340576
1781604302982844000,48.95984399414063,-0.9044869542121887,-17.98804473876953,1.8544375896453857
1781604303041062700,49.01806274414062,-0.28953152894973755,-10.006186485290527,-4.417748928070068
1781604303099281400,49.07628149414062,4.168296813964844,-11.667403221130371,-2.3820550441741943
1781604303157500200,49.134500244140625,-1.490728497505188,-3.4438700675964355,-10.40638542175293
1781604303215719000,49.19271899414063,2.644667148590088,-6.0400824546813965,-8.94676399230957
1781604303273937400,49.2509375,6.252445697784424,-9.77109146118164,2.215155601501465
1781604303370968600,49.34796850585938,-2.8049862384796143,-6.0987067222595215,-12.294322967529297
1781604303429187300,49.40618725585937,1.4279168844223022,-6.740581512451172,-11.450852394104004
1781604303526218800,49.50321875,0.2997010350227356,0.1663011759519577,-4.032504558563232
1781604303584437500,49.5614375,1.8394824266433716,1.0546365976333618,-9.062217712402344
1781604303642656300,49.61965625,1.2047861814498901,-5.920441627502441,-10.076774597167969
1781604303739687400,49.7166875,0.12442677468061447,-12.474981307983398,-6.52044153213501
1781604303797906200,49.77490625,-1.800000786781311,-13.84367561340332,-5.014159679412842
1781604303856125000,49.833125,-4.624129772186279,-1.7377874851226807,-13.177274703979492
1781604303914343700,49.89134375,0.007178467698395252,-5.771488189697266,-4.55055046081543
1781604303972562400,49.9495625,-1.1868400573730469,-9.626923561096191,5.2354960441589355
1781604304050187500,50.0271875,1.7976080179214478,-8.220541954040527,-2.012363910675049
1781604304108406300,50.08540625,-0.6592226624488831,-6.476174354553223,-0.584446907043457
1781604304166625000,50.143625,3.4713873863220215,-3.579662561416626,1.6378871202468872
1781604304302468900,50.27946875,-0.8895317912101746,-15.918850898742676,-4.469194412231445
1781604304380094000,50.35709399414063,-1.5469598770141602,-10.591829299926758,0.031106693670153618
1781604304457719000,50.434718994140624,0.33379876613616943,-7.748558044433594,-1.5427724123001099
1781604304535344000,50.51234423828125,-1.5930216312408447,-4.994419097900391,-1.2436695098876953
1781604304612969200,50.58996923828125,-1.7976080179214478,-11.802597999572754,-1.805384635925293
1781604304690594300,50.66759423828125,4.9986066818237305,-5.24626350402832,6.177670001983643
1781604304768219400,50.745219482421874,-4.2550368309021,-14.95394515991211,-0.35832518339157104
1781604304845844500,50.82284448242188,0.062213387340307236,-5.874379634857178,-7.926225185394287
1781604304904063500,50.8810634765625,-8.809176445007324,-28.37409019470215,0.5341976284980774
1781604305001094700,50.9780947265625,1.9866410493850708,-5.830710411071777,-0.46719861030578613
1781604305059313700,51.03631372070313,0.3236292600631714,-5.157131195068359,-1.0079765319824219
1781604305117532400,51.09453247070312,1.1754741668701172,-7.625925540924072,1.8442680835723877
1781604305175751200,51.152751220703124,-1.165902853012085,-13.857434272766113,3.235694408416748
1781604305253376500,51.23037646484375,-1.9334007501602173,-22.314865112304688,-7.049853801727295
1781604305350408000,51.327407958984374,-0.2027917206287384,-13.202997207641602,-2.0333011150360107
1781604305428033000,51.40503295898438,0.7663014531135559,-5.589633464813232,-0.7549355626106262
1781604305486252000,51.463251953125,-0.7411768436431885,-6.382256031036377,-1.1240284442901611
1781604305583283500,51.560283447265626,-1.1784651279449463,-9.727422714233398,0.21774685382843018
1781604305680315000,51.65731494140625,3.955335855484009,-6.26859712600708,4.280161380767822
1781604305757940200,51.734940185546876,-2.5663022994995117,-14.870794296264648,0.012562318705022335
1781604305816159000,51.79315893554688,-2.589034080505371,-4.621138572692871,-5.209175109863281
1781604305893784300,51.87078442382813,-7.585845947265625,-29.223543167114258,-3.2267212867736816
1781604305971409400,51.948409423828124,1.1437692642211914,-1.3088740110397339,5.760122299194336
1781604306049034800,52.02603466796875,1.0271191596984863,-5.72123908996582,-1.2634103298187256
1781604306126660000,52.10366015625,1.4931213855743408,-7.045068264007568,2.6877379417419434
1781604306204285200,52.18128515625,6.983452796936035,-12.615559577941895,-6.027520179748535
1781604306262504200,52.23950415039062,-3.7357943058013916,-23.736801147460938,-4.038486480712891
1781604306340129500,52.31712963867187,-0.7668996453285217,-14.282159805297852,-0.46002015471458435
1781604306456567600,52.43356762695313,-1.2993026971817017,-1.7132610082626343,-4.025325775146484
1781604306514786300,52.49178637695312,0.25363919138908386,-8.83370304107666,-0.5994020700454712
1781604306611818000,52.58881787109375,4.966901779174805,-6.476174354553223,1.0007981061935425
1781604306670037000,52.647037109375,1.4691931009292603,-9.821340560913086,7.985447406768799
1781604306728256000,52.70525610351562,-2.9928228855133057,-12.802797317504883,1.0169496536254883
1781604306786475000,52.76347509765625,-2.135594129562378,-3.434896945953369,-6.437291145324707
1781604306883506700,52.86050659179688,-8.325227737426758,-21.037696838378906,6.653243541717529
1781604306941725700,52.9187255859375,2.0368902683258057,-3.792623996734619,4.4243292808532715
1781604307019351000,52.99635107421875,0.5694918036460876,-4.334000110626221,-1.0683952569961548
1781604307096976400,53.07397631835938,2.7942185401916504,-8.295317649841309,2.760719060897827
1781604307174601700,53.15160180664063,5.7547383308410645,-11.026724815368652,-6.674180507659912
1781604307252227300,53.22922729492188,-4.43330192565918,-21.42174530029297,-1.4434702396392822
1781604307310446300,53.2874462890625,-0.6227321028709412,-10.697113990783691,0.8967102766036987
1781604307407478000,53.38447802734375,0.039481572806835175,-5.935396671295166,-4.756931304931641
1781604307504510000,53.48151000976563,0.22133609652519226,-11.706884384155273,-1.2939188480377197
1781604307582135300,53.55913525390625,3.8117663860321045,-6.464808464050293,2.5471596717834473
1781604307679167000,53.6561669921875,-1.2951152324676514,-18.21117401123047,4.198805332183838
1781604307737386000,53.714385986328125,-5.135595798492432,-4.533202648162842,-5.348556995391846
1781604307834418000,53.81141796875,-9.866804122924805,-34.04388427734375,1.771286964416504
1781604307912043300,53.88904321289063,1.2299108505249023,-2.0673987865448,5.111667156219482
1781604308047888000,54.02488793945312,1.072582721710205,-6.357131481170654,1.4249259233474731
1781604308144919800,54.121919921875,6.324230194091797,-9.399007797241211,-4.412364959716797
1781604308203138800,54.18013891601562,-2.48315167427063,-21.96072769165039,-3.1477582454681396
1781604308280764400,54.25776440429688,-0.631106972694397,-16.005590438842773,0.24107688665390015
1781604308377796400,54.35479638671875,0.09631111472845078,-3.861417531967163,-5.861817359924316
1781604308455421700,54.43242163085937,0.6831508874893188,-9.605388641357422,-1.3639088869094849
1781604308533047300,54.51004736328125,0.04307080805301666,-8.906085968017578,2.3461625576019287
1781604308610673000,54.5876728515625,3.207578659057617,-10.439287185668945,8.788239479064941
1781604308688298500,54.665298583984374,-4.7796630859375,-8.73499870300293,-0.5060819983482361
1781604308785330400,54.762330322265626,-4.101297855377197,-27.846473693847656,-7.2095746994018555
1781604308843549400,54.82054956054687,-1.4476577043533325,-7.765905857086182,10.77248764038086
1781604308940581400,54.917581298828125,1.3573286533355713,-6.164509296417236,-3.1680972576141357
1781604309076426200,55.05342626953125,-0.8530412912368774,-16.237693786621094,1.3351950645446777
1781604309173458200,55.150458251953125,-4.879563808441162,-17.80439567565918,1.908874273300171
1781604309270490400,55.24749047851562,-1.1736794710159302,-12.21655559539795,-0.2189432680606842
1781604309328709400,55.30570947265625,-0.11964113265275955,-10.663614273071289,-2.7116663455963135
1781604309425741300,55.4027412109375,0.35892340540885925,-7.141379356384277,-2.438286304473877
1781604309522773500,55.4997734375,0.1986042857170105,-9.693324089050293,4.121038913726807
1781604309580992500,55.55799243164063,5.100899696350098,-4.147359848022461,5.686542987823486
1781604309658618400,55.63561840820312,-2.715853691101074,-15.404394149780273,3.5359935760498047
1781604309794463200,55.771463134765625,-7.871190071105957,-34.6600341796875,-0.7405785918235779
1781604309891495200,55.8684951171875,2.438286304473877,-5.4514479637146,0.9625129103660583
1781604310007933700,55.98493359375,1.0887342691421509,-5.875576019287109,2.9150562286376953
1781604310066153000,56.043153076171876,-0.04247260093688965,-14.415559768676758,4.009174346923828
1781604310124372200,56.10137231445312,3.3242287635803223,-9.675976753234863,-3.4893336296081543
1781604310221404200,56.198404052734375,-3.111267566680908,-10.872387886047363,5.834897994995117
1781604310279623400,56.25662353515625,0.0687936544418335,-13.152149200439453,-3.899702787399292
1781604310337842700,56.3148427734375,0.0771685317158699,-4.188037872314453,-4.604389190673828
1781604310434875000,56.411875,0.010767702013254166,-10.996216773986816,-0.4785645306110382
1781604310493094100,56.47009423828125,-1.470389485359192,-12.06939697265625,1.3046865463256836
1781604310551313400,56.5283134765625,6.1944193840026855,-2.647658348083496,4.157529354095459
1781604310609532700,56.58653271484375,-1.201795220375061,-16.928024291992188,8.997611045837402
1781604310687158300,56.664158203125,-4.986044406890869,-2.823530673980713,-5.402993679046631
1781604310764783900,56.74178393554688,-4.749752998352051,-35.06502151489258,-8.96112060546875
1781604310842409700,56.81940966796875,1.441077470779419,6.122036933898926,9.218947410583496
1781604310939442000,56.91644189453125,1.272383451461792,-3.4540395736694336,-0.6526423692703247
1781604311017067500,56.994067626953125,1.953141450881958,-8.688937187194824,5.251647472381592
1781604311094693400,57.071693359375,5.14576530456543,-9.136395454406738,-3.494119167327881
1781604311191725600,57.1687255859375,-1.4488540887832642,-5.480162143707275,3.3984062671661377
1781604311249944800,57.22694482421875,-0.4983053207397461,-13.685749053955078,-2.1517457962036133
1781604311308164000,57.2851640625,-0.04307080805301666,-6.453442573547363,-3.6873397827148438
1781604311405196300,57.3821962890625,1.0444670915603638,-11.020742416381836,0.31405797600746155
1781604311463415600,57.44041552734375,-1.5074782371520996,-11.038688659667969,0.8608179688453674
1781604311521634800,57.498634765625,5.197809219360352,-3.197409152984619,3.019742250442505
1781604311579854000,57.55685400390625,0.3320041298866272,-15.730416297912598,8.684749603271484
1781604311676886300,57.65388623046875,-3.7010984420776367,-3.153740167617798,-6.589235305786133
1781604311735105500,57.71210546875,-1.552941918373108,-22.245473861694336,-8.959325790405273
1781604311832137700,57.8091376953125,1.607378602027893,3.046063184738159,6.86680269241333
1781604311890357000,57.86735693359375,2.1828525066375732,-5.741578102111816,-3.183650493621826
1781604311967982800,57.94498291015625,1.3088740110397339,-5.7888360023498535,1.6061822175979614
1781604312026202000,58.0032021484375,0.5497509837150574,-11.434700965881348,4.3310089111328125
1781604312142641000,58.119640869140625,-3.0969107151031494,-20.46640968322754,-1.052243709564209
1781604312220266500,58.1972666015625,-0.4055834412574768,-12.357133865356445,1.2418749332427979
1781604312317298700,58.29429858398437,-0.12083754688501358,-4.598406791687012,-4.801796913146973
1781604312394924500,58.37192456054687,0.7106683254241943,-9.148359298706055,-0.607776939868927
1781604312491956700,58.46895678710938,2.114656925201416,-7.0025954246521,2.393420934677124
1781604312550176300,58.52717626953125,4.578067779541016,-6.02393102645874,6.783053874969482
1781604312608395500,58.5853955078125,-3.930809497833252,-15.017354965209961,3.34995174407959
1781604312705427700,58.682427734375,1.211964726448059,-18.753149032592773,-13.857434272766113
1781604312802460200,58.779460205078124,2.531606435775757,5.262415409088135,9.69631576538086
1781604312860679400,58.83767944335938,2.9210381507873535,-4.7611188888549805,-3.4378879070281982
1781604312957711600,58.934711669921874,0.9493523836135864,-7.145566463470459,2.8037898540496826
1781604313015931000,58.99293090820313,-1.389631748199463,-17.531612396240234,3.5772697925567627
1781604313093556700,59.070556640625,-2.5525436401367188,-21.47438621520996,-4.466203689575195
1781604313171182600,59.1481826171875,-1.277767300605774,-12.025728225708008,4.435695171356201
1781604313229401900,59.20640185546875,-0.5300102233886719,-11.127821922302246,-4.636692047119141
1781604313307027700,59.28402783203125,-0.885344386100769,-3.0759735107421875,-3.693321704864502
1781604313365247200,59.342247314453125,0.18364913761615753,-10.269396781921387,1.6139588356018066
1781604313501092400,59.47809228515625,6.763313293457031,-4.009772777557373,5.358128070831299
1781604313578718200,59.55571826171875,-2.3294129371643066,-16.016956329345703,3.7908291816711426
1781604313656343800,59.63334375,-2.124826431274414,-2.4017956256866455,-9.284749984741211
1781604313733969700,59.7109697265625,-9.585049629211426,-28.874788284301758,8.525029182434082
1781604313811595500,59.788595458984375,2.9629125595092773,-5.778068542480469,3.263810157775879
1781604313869815000,59.84681494140625,1.5433706045150757,-4.673780918121338,-2.80558443069458
1781604313966847200,59.94384716796875,2.242672920227051,-10.108479499816895,2.737389087677002
1781604314025066800,60.002066650390624,1.3052847385406494,-13.936397552490234,-2.939582586288452
1781604314083286000,60.0602861328125,-0.7615157961845398,-23.965913772583008,-3.349353551864624
1781604314141505500,60.118505615234376,-2.703291416168213,-9.684351921081543,6.059225082397461
1781604314257944300,60.2349443359375,-0.11246266216039658,-4.389034748077393,-4.280161380767822
1781604314316163600,60.29316357421875,-1.2837493419647217,-5.182853698730469,-2.5633113384246826
1781604314413195800,60.39019580078125,-1.3663017749786377,-10.473384857177734,-0.364905446767807
1781604314490821600,60.46782153320312,5.522634506225586,-5.027320384979248,8.913264274597168
1781604314549041200,60.52604125976563,-1.5858432054519653,-17.639888763427734,5.860620975494385
1781604314607260700,60.5842607421875,-5.085346221923828,-2.6943182945251465,-5.135595798492432
1781604314684886300,60.66188623046875,-4.712066173553467,-35.64049530029297,-5.398207664489746
1781604314781918700,60.75891870117187,2.547757863998413,-4.231108665466309,3.073580741882324
1781604314840138200,60.81713818359375,2.6081767082214355,-5.172086238861084,-3.9972102642059326
1781604314937170400,60.91417041015625,1.716252088546753,-8.270193099975586,5.739185333251953
1781604314995390000,60.97238989257813,1.8741782903671265,-21.512672424316406,-3.8763725757598877
1781604315092422100,61.069422119140626,-2.272583246231079,-3.5718860626220703,2.510071039199829
1781604315189454600,61.16645458984375,-0.6047859191894531,-9.299705505371094,-3.762713670730591
1781604315247674000,61.22467407226563,-0.47617170214653015,-4.354339122772217,-3.638286828994751
1781604315346064600,61.32306469726562,-1.2394821643829346,-12.055638313293457,0.355932354927063
1781604315425243000,61.402242919921875,3.7399818897247314,-5.209175109863281,0.19561325013637543
1781604315524215800,61.5012158203125,-1.4913266897201538,-18.53719711303711,6.652645111083984
1781604315582435600,61.559435546875,-4.741377830505371,-4.858027935028076,-6.259026050567627
1781604315640654800,61.61765478515625,-0.9846464991569519,-19.531414031982422,-11.572288513183594
1781604315718281000,61.69528100585938,0.10289137065410614,0.9098708033561707,11.769098281860352
1781604315776500200,61.753500244140625,2.431107759475708,-5.358726501464844,-1.0821540355682373
1781604315834719700,61.8117197265625,0.6903293132781982,-5.104488849639893,-0.5611169338226318
1781604315892939000,61.86993896484375,2.3090739250183105,-7.448856830596924,3.7256247997283936
1781604315970565000,61.94756518554688,-0.5599204897880554,-17.766708374023438,-1.2149556875228882
1781604316048191000,62.02519091796875,-4.478765964508057,-19.217357635498047,-0.5581258535385132
1781604316125816800,62.10281689453125,-1.0803594589233398,-10.799407005310059,2.764906644821167
1781604316203442700,62.18044262695312,0.5228317379951477,-8.745168685913086,-3.422334671020508
1781604316300475100,62.27747509765625,-0.07417750358581543,-7.895118236541748,-0.5479564070701599
1781604316378101000,62.35510107421875,-0.6005984544754028,-11.447263717651367,1.8490537405014038
1781604316436320300,62.4133203125,6.267400741577148,-3.0269205570220947,5.719444274902344
1781604316513946400,62.4909462890625,-2.750549554824829,-17.224136352539062,3.287140130996704
1781604316630385200,62.60738525390625,-3.0592236518859863,-23.058435440063477,-7.617550849914551
1781604316688604700,62.66560473632813,-3.8799619674682617,-12.419347763061523,8.986844062805176
1781604316785637000,62.76263720703125,2.3401806354522705,-5.590830326080322,-2.8073792457580566
1781604316843856400,62.8208564453125,0.8267202377319336,-6.225526332855225,1.4368900060653687
1781604316940888800,62.91788891601563,-0.3774677813053131,-16.005590438842773,2.2881367206573486
1781604317018514700,62.9955146484375,-0.19142581522464752,-11.539985656738281,5.3904314041137695
1781604317115547100,63.092547119140626,-0.9750752449035645,-7.630113124847412,1.4620146751403809
1781604317173766700,63.1507666015625,-1.3639088869094849,-10.612168312072754,-3.775874137878418
1781604317251392500,63.228392578125,-1.470389485359192,-3.1549365520477295,-3.817150354385376
1781604317329019100,63.30601904296875,-0.529412031173706,-14.075181007385254,1.5481562614440918
1781604317387238000,63.36423779296875,1.0091729164123535,-7.116852760314941,2.4747767448425293
1781604317503677000,63.480677001953126,-0.9906286001205444,-15.339189529418945,3.8709888458251953
1781604317600709000,63.57770922851562,-0.4247260093688965,-14.397613525390625,-9.862616539001465
1781604317658928600,63.6359287109375,-10.156335830688477,-27.388845443725586,6.977470874786377
1781604317736554500,63.71355444335938,2.562114953994751,-6.156732559204102,3.7286159992218018
1781604317814180600,63.7911806640625,1.1437692642211914,-4.111467361450195,0.1459621787071228
1781604317872400100,63.84940014648438,1.3704891204833984,-7.04925537109375,3.545564889907837
1781604317969432300,63.946432373046875,4.142574310302734,-9.019744873046875,-1.7455641031265259
1781604318027651800,64.00465185546875,-1.7042878866195679,-11.263614654541016,1.7407784461975098
1781604318105278000,64.08227783203125,-0.008374879136681557,-13.499109268188477,0.2991028428077698
1781604318163497200,64.14049731445313,0.5180460810661316,-7.6013994216918945,-1.8550357818603516
1781604318221716700,64.198716796875,-2.0548365116119385,-3.651447296142578,-4.370490550994873
1781604318279936300,64.25693627929688,-0.698704183101654,-9.79801082611084,-1.1820544004440308
1781604318376968700,64.35396875,4.874777793884277,-4.526622295379639,2.600399971008301
1781604318435188200,64.41218823242187,1.8335003852844238,-11.32941722869873,9.399007797241211
1781604318493407500,64.47040747070312,-3.62153697013855,-13.008580207824707,1.435693621635437
1781604318551627000,64.528626953125,-2.612962245941162,-3.4857444763183594,-7.48056173324585
1781604318648659500,64.62565942382813,-6.8518476486206055,-20.10569190979004,9.982855796813965
1781604318745692000,64.72269189453125,2.4813570976257324,-5.612963676452637,-2.5848467350006104
1781604318803911400,64.78091137695313,0.8799605369567871,-5.146363258361816,1.389631748199463
1781604318862131000,64.839130859375,1.6354942321777344,-8.644669532775879,3.0448668003082275
1781604318959163400,64.93616333007813,6.504888534545898,-7.905886173248291,1.8394824266433716
1781604319017383000,64.9943828125,-5.6446685791015625,-21.42234230041504,-0.2356930375099182
1781604319075602200,65.05260229492187,-1.0713863372802734,-8.9850492477417,1.8179470300674438
1781604319172634600,65.14963452148437,0.2476571500301361,-6.7070817947387695,-3.844667673110962
1781604319250260700,65.2272607421875,0.5551348328590393,-6.712465763092041,-0.714257538318634
1781604319308480300,65.28548022460937,-2.069791555404663,-14.150554656982422,2.537588357925415
1781604319366699500,65.34369946289063,5.626124382019043,-4.2550368309021,2.6835505962371826
1781604319444325600,65.42132568359375,-1.3268201351165771,-17.115262985229492,7.905886173248291
1781604319541358000,65.51835815429688,-2.4837498664855957,-4.004986763000488,-8.529216766357422
1781604319599577600,65.57657763671875,-6.488736629486084,-33.75794219970703,-0.8781659007072449
1781604319677203500,65.65420336914063,2.2671995162963867,3.9086756706237793,6.263213157653809
1781604319735423000,65.71242309570313,2.0129621028900146,-6.331408500671387,-5.029713153839111
1781604319851862000,65.82886206054687,1.475175142288208,-11.191829681396484,6.102894306182861
1781604319910081300,65.88708129882812,2.239083766937256,-11.944372177124023,-1.1001001596450806
1781604319968300800,65.94530078125,-1.0618150234222412,-23.622543334960938,-3.5605201721191406
1781604320045927000,66.02292700195312,-1.2975081205368042,-12.047264099121094,5.824130535125732
1781604320123552800,66.100552734375,0.4492524564266205,-8.984451293945312,-3.3068809509277344
1781604320259398400,66.2363984375,-1.7048860788345337,-11.661420822143555,2.018345832824707
1781604320317618000,66.29461791992188,-0.8805587291717529,-9.66819953918457,1.576870083808899
1781604320414650400,66.391650390625,-0.45224347710609436,-14.54357624053955,9.138788223266602
1781604320472869600,66.44986962890626,-4.193421840667725,-9.89013385772705,1.0079765319824219
1781604320569902300,66.54690234375,-1.1694921255111694,-23.669801712036133,-9.883553504943848
1781604320666934800,66.64393481445312,2.7637102603912354,5.054239749908447,6.053243160247803
1781604320725154300,66.702154296875,2.612962245941162,-6.222535133361816,-4.308875560760498
1781604320841593000,66.81859301757812,1.852044701576233,-7.33759069442749,4.759922504425049
1781604320899812600,66.8768125,2.05603289604187,-16.97468376159668,-1.2592228651046753
1781604320958032100,66.9350322265625,-3.3930225372314453,-21.44866371154785,0.18005990982055664
1781604321055064600,67.03206469726562,0.06340979784727097,-13.224532127380371,1.9244276285171509
1781604321113284000,67.0902841796875,-0.10049854964017868,-9.355937004089355,-2.599801778793335
1781604321210316500,67.18731665039063,0.9936196208000183,-6.917052268981934,0.30987054109573364
1781604321326755600,67.30375561523438,2.527418851852417,-6.3840508460998535,0.2967100143432617
1781604321443194600,67.42019458007813,-4.002593994140625,-16.721044540405273,3.1148569583892822
1781604321559633400,67.53663330078125,-4.903491973876953,-30.034709930419922,-5.088337421417236
1781604321656665900,67.63366577148437,2.4981069564819336,-3.049652576446533,4.273581027984619
1781604321734292000,67.7112919921875,1.588834285736084,-4.858027935028076,-0.7926225066184998
1781604321792511500,67.76951147460937,1.3160524368286133,-5.5728840827941895,2.076371908187866
1781604321889544000,67.8665439453125,6.281159400939941,-9.986445426940918,-3.78544545173645
1781604322025389300,68.00238940429688,0.1746760457754135,-14.437095642089844,2.485544443130493
1781604322083608800,68.06060888671875,0.13878370821475983,-8.422736167907715,-3.325425386428833
1781604322141828400,68.11882836914063,-1.6432709693908691,-3.5988051891326904,-4.4380879402160645
1781604322219454500,68.19645434570313,0.18424734473228455,-13.292129516601562,3.177668571472168
1781604322297080300,68.27408032226562,3.1926236152648926,-3.298506021499634,1.0809576511383057
1781604322413519400,68.39051928710937,-5.4514479637146,-11.443674087524414,2.0793628692626953
1781604322491145500,68.4681455078125,1.6408780813217163,-8.436494827270508,-9.469595909118652
1781604322568771300,68.54577124023437,-5.878567218780518,-18.13161277770996,10.50508975982666
1781604322646397400,68.6233974609375,2.445464849472046,-5.648257732391357,0.6095715761184692
1781604322724023300,68.70102319335938,0.8087740540504456,-4.442275047302246,1.3058829307556152
1781604322782242800,68.75924291992187,2.121835470199585,-8.729615211486816,4.6785664558410645
1781604322898681900,68.87568188476563,-4.136591911315918,-21.21656036376953,-1.8287147283554077
1781604322976307700,68.9533076171875,-0.6209374666213989,-9.875777244567871,5.264209747314453
1781604323034527200,69.01152734375,-0.6275177597999573,-12.698709487915039,-4.267001152038574
1781604323092746800,69.06974682617188,-1.031306505203247,-3.4606196880340576,-6.011368751525879
1781604323170372900,69.14737280273438,0.9326026439666748,-11.026126861572266,1.1730812788009644
1781604323228592000,69.20559204101562,-1.1868400573730469,-13.009178161621094,3.507279872894287
1781604323325624800,69.30262475585937,0.7872386574745178,-10.848459243774414,7.632505893707275
1781604323403250700,69.38025073242187,-5.43290376663208,-4.766502857208252,-1.4895321130752563
1781604323480876800,69.45787670898437,-2.740978240966797,-26.3449764251709,-8.603992462158203
1781604323577909200,69.5549091796875,2.572284460067749,1.100698471069336,6.321837425231934
1781604323674941700,69.65194165039063,1.0007981061935425,-5.185246467590332,1.3567304611206055
1781604323771974100,69.74897412109375,-0.40737804770469666,-15.966707229614258,2.6907291412353516
1781604323907819500,69.88481958007813,-0.9421738982200623,-8.166703224182129,2.3682961463928223
1781604323966039000,69.9430390625,-0.5527420043945312,-11.361720085144043,1.3244273662567139
1781604324063071500,70.04007153320312,-1.2801600694656372,-3.40797758102417,-5.913262844085693
1781604324140697600,70.11769750976562,0.6047859191894531,-11.95454216003418,1.1377872228622437
1781604324218323500,70.19532348632812,2.506481647491455,-6.649653911590576,3.3888349533081055
1781604324295949600,70.27294946289062,0.6915257573127747,-13.668999671936035,7.6049885749816895
1781604324373575700,70.35057568359375,-6.049055576324463,-3.384049415588379,-1.4267204999923706
1781604324451201500,70.42820141601563,-0.989432156085968,-22.663021087646484,-10.105487823486328
1781604324528827600,70.50582763671875,0.15672987699508667,1.0325030088424683,12.5742826461792
1781604324606453500,70.58345361328125,2.0099709033966064,-5.157131195068359,-2.595614433288574
1781604324703486000,70.68048583984375,1.2867404222488403,-8.685946464538574,2.761915445327759
1781604324761705500,70.73870556640625,-0.3858426511287689,-14.005788803100586,2.0578274726867676
1781604324858738200,70.83573828125,-4.12761926651001,-24.75374984741211,-0.49651068449020386
1781604324936364000,70.91336401367188,-1.0295119285583496,-11.006983757019043,3.4965121746063232
1781604325013990100,70.990990234375,0.08374879509210587,-7.413562774658203,-3.8590247631073
1781604325091616000,71.06861596679687,-0.05802594870328903,-5.578866004943848,-1.932802438735962
1781604325169242000,71.1462421875,-2.661417007446289,-12.911072731018066,2.7260231971740723
1781604325246868000,71.22386791992187,4.540380954742432,-4.5391845703125,7.814360618591309
1781604325324493800,71.30149389648437,-1.8448662757873535,-12.903894424438477,2.9892337322235107
1781604325382713300,71.35971337890625,-3.5359935760498047,-3.0664021968841553,-5.896512985229492
1781604325440932900,71.41793286132813,-2.850450038909912,-27.75016212463379,-7.562515735626221
1781604325499152400,71.47615234375,-2.6009981632232666,-9.591031074523926,11.356934547424316
1781604325557372000,71.53437182617188,2.696112871170044,-5.496912002563477,3.679563045501709
1781604325654404400,71.631404296875,0.8225327730178833,-5.098506927490234,0.4570291340351105
1781604325790250000,71.76725,6.27996301651001,-8.36411190032959,-0.0005982056609354913
1781604325848469500,71.82546948242188,-4.383052825927734,-25.71267318725586,0.0077766734175384045
1781604325926095400,71.90309545898438,-0.9858429431915283,-11.749357223510742,1.6121642589569092
1781604326023127800,72.0001279296875,-0.486939400434494,-4.0181474685668945,-5.1427741050720215
1781604326081347300,72.05834741210937,0.4265206456184387,-6.533602237701416,-1.195214867591858
1781604326139566800,72.11656689453125,-1.3597214221954346,-14.054841995239258,2.7900311946868896
1781604326256006000,72.233005859375,3.31884503364563,-9.079565048217773,8.715856552124023
1781604326314225400,72.29122534179687,-1.8293129205703735,-14.853446960449219,3.551547050476074
1781604326372445000,72.34944482421875,-4.091726779937744,-3.166900873184204,-7.098906517028809
1781604326450070800,72.42707080078125,-8.836095809936523,-32.27678298950195,1.5978072881698608
1781604326527697000,72.50469677734375,2.1708884239196777,-0.9493523836135864,5.144568920135498
1781604326624729300,72.60172924804688,0.8877372145652771,-5.361717224121094,1.389033555984497
1781604326721761800,72.69876171875,-0.9367900490760803,-13.84965705871582,2.434697151184082
1781604326779981300,72.75698120117187,5.173282623291016,-8.924032211303711,0.8069794178009033
1781604326838200800,72.81520092773438,-1.9214365482330322,-16.01576042175293,1.6289139986038208
1781604326915826700,72.89282666015625,-0.7447660565376282,-13.3501558303833,-0.5431707501411438
1781604326974046200,72.95104614257812,0.29012975096702576,-7.950751304626465,-3.128615617752075
1781604327032265700,73.009265625,-1.7533408403396606,-3.5192439556121826,-4.036691665649414
1781604327090485200,73.0674853515625,0.8500502705574036,-11.70867919921875,1.2837493419647217
1781604327206924300,73.18392431640625,5.8235321044921875,-1.6187444925308228,6.096911907196045
1781604327303956700,73.28095678710937,-5.291727066040039,-10.091729164123535,1.1102696657180786
1781604327420395800,73.39739575195313,-11.537592887878418,-32.819358825683594,2.053041934967041
1781604327498021600,73.47502172851563,2.8695926666259766,2.0865414142608643,5.617749214172363
1781604327575647700,73.55264770507813,1.3806586265563965,-6.105287075042725,-1.0474581718444824
1781604327653273600,73.63027368164063,2.0446670055389404,-6.244668960571289,2.499901533126831
1781604327730899700,73.70789965820312,-0.1495514214038849,-16.824533462524414,-2.650649309158325
1781604327808525600,73.78552563476562,0.4043870270252228,-17.88814353942871,-1.2562319040298462
1781604327886151700,73.86315161132812,-0.45643091201782227,-12.863216400146484,2.105085611343384
1781604327944371200,73.92137109375,-0.357128769159317,-8.195417404174805,-2.252244234085083
1781604328041403600,74.01840356445312,-0.4450650215148926,-5.708676815032959,-0.9355936646461487
1781604328138436000,74.11543603515625,-1.8376877307891846,-10.876575469970703,0.7250252366065979
1781604328216062200,74.19306225585937,5.998806476593018,-5.980860233306885,7.09711217880249
1781604328274281500,74.25128149414063,-2.073380708694458,-18.230915069580078,6.273981094360352
1781604328371314200,74.34831420898438,-1.3453645706176758,-9.004789352416992,-10.694122314453125
1781604328429533700,74.40653369140625,-9.80219841003418,-32.370704650878906,8.411369323730469
1781604328526566100,74.50356616210938,2.000998020172119,-5.883950710296631,-0.11485548317432404
1781604328584785700,74.56178564453126,0.8727820515632629,-4.517649173736572,-0.08673982322216034
1781604328681818000,74.65881811523437,-0.08733802288770676,-13.253246307373047,4.97348165512085
1781604328740037600,74.71703759765624,6.86381196975708,-10.095916748046875,-5.848058700561523
1781604328837070000,74.81407006835937,-1.5637096166610718,-9.09990406036377,2.3018953800201416
1781604328895289600,74.87228955078125,-1.1874382495880127,-11.93181037902832,0.5054838061332703
1781604328992322000,74.96932202148437,-0.41994038224220276,-3.7154552936553955,-5.169693470001221
1781604329050541600,75.02754150390625,0.7692924737930298,-9.375079154968262,-0.6705885529518127
1781604329147574000,75.12457397460938,1.3268201351165771,-7.684549808502197,4.411766529083252
1781604329205793500,75.18279345703125,4.223930358886719,-5.3832526206970215,8.13798999786377
1781604329322232600,75.29923266601563,-4.380061626434326,-4.393820762634277,-5.030311584472656
1781604329380452000,75.3574521484375,0.07597211748361588,-18.924835205078125,-8.595617294311523
1781604329438671600,75.41567163085938,-6.471987247467041,-20.275583267211914,10.966904640197754
1781604329535704000,75.5127041015625,1.7365909814834595,-5.907878875732422,-2.554936408996582
1781604329593923600,75.57092358398438,0.9260223507881165,-5.8713884353637695,1.7288143634796143
1781604329690956000,75.6679560546875,-0.43968117237091064,-16.364513397216797,4.087539196014404
1781604329787988500,75.76498852539062,-4.7988057136535645,-23.599212646484375,-1.7730815410614014
1781604329865614600,75.84261450195312,-0.9469595551490784,-10.176076889038086,3.2679975032806396
1781604329962647000,75.93964697265625,-0.26620152592658997,-4.5338006019592285,-4.291527271270752
1781604330020866600,75.99786645507812,-0.4582255482673645,-6.327819347381592,-0.6406782865524292
1781604330079086000,76.05608618164062,-1.469791293144226,-13.62174129486084,2.1308085918426514
1781604330176118500,76.15311840820313,5.819942951202393,-2.251646041870117,5.163711071014404
1781604330253744600,76.23074462890625,-1.9262222051620483,-14.680564880371094,5.1906304359436035
1781604330311964200,76.28896411132813,-3.872185230255127,-3.411566972732544,-7.261020183563232
1781604330370183700,76.34718359375,-2.9072794914245605,-27.314668655395508,-8.440681457519531
1781604330467216100,76.44421606445313,2.352742910385132,-0.23988047242164612,4.925027370452881
1781604330525435600,76.502435546875,2.11405873298645,-6.041877269744873,-3.5018959045410156
1781604330583655200,76.5606552734375,0.8333004713058472,-4.522434711456299,1.892722725868225
1781604330641874700,76.61887475585938,0.8368897438049316,-11.708081245422363,6.3529438972473145
1781604330700094200,76.67709423828126,4.9262237548828125,-11.523834228515625,-5.065007209777832
1781604330797126700,76.77412670898437,-2.149951219558716,-7.812565803527832,5.31984281539917
1781604330855346200,76.83234619140624,-0.15553347766399384,-13.724632263183594,0.519242525100708
1781604330913565700,76.89056567382812,0.2919243574142456,-6.096911907196045,-2.82951283454895
1781604330991191800,76.96819189453124,-0.7052844762802124,-5.663811206817627,-1.693520188331604
1781604331088224300,77.06522436523437,-0.38344982266426086,-10.826924324035645,2.2438695430755615
1781604331224069600,77.20106958007813,-3.2931220531463623,-15.038291931152344,3.841078519821167
1781604331321102300,77.29810229492188,0.7052844762802124,-14.764313697814941,-9.751948356628418
1781604331379321900,77.35632177734375,-10.14317512512207,-26.60878562927246,10.783255577087402
1781604331456948000,77.43394799804688,2.4646072387695312,-5.482554912567139,3.0388846397399902
1781604331534573800,77.51157373046875,1.3758729696273804,-3.6113674640655518,-0.058624155819416046
1781604331592793300,77.56979345703125,1.3244273662567139,-7.554739475250244,3.5982069969177246
1781604331651012900,77.62801293945313,1.9513468742370605,-17.955142974853516,0.008374879136681557
1781604331709232400,77.686232421875,-5.157729148864746,-15.731014251708984,-0.5491527915000916
1781604331806264800,77.78326489257813,-1.2035897970199585,-11.35932731628418,3.8775691986083984
1781604331922704000,77.89970385742187,-1.0917253494262695,-2.65423846244812,-3.5162527561187744
1781604332000330000,77.977330078125,-1.0396814346313477,-11.682358741760254,0.8249256014823914
1781604332058549500,78.03554956054687,0.7423732280731201,-10.129416465759277,0.43609192967414856
1781604332136175600,78.11317553710937,0.14656038582324982,-10.020543098449707,10.904690742492676
1781604332194395100,78.17139501953125,-3.985844373703003,-10.600204467773438,2.249253273010254
1781604332330240800,78.30724072265625,-11.08475112915039,-26.730819702148438,10.426126480102539
1781604332427273200,78.40427319335937,2.7876384258270264,-5.769693374633789,-2.7696921825408936
1781604332485492700,78.46249267578125,0.7848458290100098,-4.184448719024658,-0.6113662123680115
1781604332582525400,78.559525390625,-0.3116651475429535,-16.258033752441406,5.778068542480469
1781604332660151300,78.6371513671875,-3.6777684688568115,-12.400803565979004,3.2057840824127197
1781604332737777400,78.71477734375,-1.1012966632843018,-10.551151275634766,2.321636199951172
1781604332795997000,78.77299682617188,-1.1473584175109863,-9.962516784667969,-3.4713873863220215
1781604332854216400,78.83121655273438,-0.2602194547653198,-5.4658050537109375,-3.2374889850616455
1781604332970655500,78.94765551757813,-2.2953150272369385,-13.578072547912598,2.2091734409332275
1781604333087094500,79.06409448242188,0.5353940725326538,-12.195618629455566,8.38265609741211
1781604333145314300,79.12231420898438,-4.422534465789795,-8.735597610473633,1.3824533224105835
1781604333203533600,79.18053344726563,-2.6153552532196045,-7.050451755523682,-8.011768341064453
1781604333319972900,79.29697290039063,1.7030915021896362,6.305685997009277,9.315258979797363
1781604333455818200,79.432818359375,0.9667003750801086,-4.604987144470215,2.300100803375244
1781604333514038000,79.4910380859375,1.3884353637695312,-11.038688659667969,5.854638576507568
1781604333611070500,79.58807055664063,-6.300900459289551,-20.675783157348633,-2.933600664138794
1781604333669290000,79.6462900390625,-2.3054845333099365,-5.606383323669434,4.976472854614258
1781604333727509500,79.70450952148437,-0.22612173855304718,-14.19302749633789,-1.4967105388641357
1781604333824542200,79.80154223632813,-1.6552350521087646,-2.5812573432922363,-3.796213150024414
1781604333921574700,79.89857470703124,-2.8552355766296387,-14.550156593322754,2.6422743797302246
1781604333979794400,79.95679443359376,6.20219612121582,-3.001796007156372,0.9098708033561707
1781604334038014000,80.01501391601562,2.7529425621032715,-11.08056354522705,10.578668594360352
1781604334096233500,80.0732333984375,-4.761716842651367,-10.965707778930664,2.691925525665283
1781604334193266000,80.17026586914062,-2.210968017578125,-25.1551456451416,-8.188239097595215
1781604334251485400,80.2284853515625,-4.055236339569092,-12.649657249450684,11.079965591430664
1781604334309705000,80.286705078125,2.609373092651367,-5.071587562561035,3.3996028900146484
1781604334445550600,80.42255053710937,1.9872392416000366,-6.231508255004883,3.250051259994507
1781604334542583300,80.51958325195312,5.828916072845459,-8.668598175048828,-5.505286693572998
1781604334639615700,80.61661572265625,-1.4638092517852783,-6.004190444946289,4.801796913146973
1781604334756055000,80.73305493164062,0.1704886108636856,-7.609176158905029,-3.586242914199829
1781604334891900700,80.86890063476562,-1.9106688499450684,-12.137593269348145,2.5872395038604736
1781604334950120200,80.9271201171875,3.6741790771484375,-6.877570629119873,2.730210542678833
1781604335066559200,81.04355932617187,0.2805584669113159,-16.72882080078125,5.290530681610107
1781604335163592000,81.14059204101562,-1.6145570278167725,-8.571688652038574,-6.496513366699219
1781604335221811500,81.1988115234375,-9.000003814697266,-31.563125610351562,5.511268615722656
1781604335318844200,81.29584423828125,2.3539392948150635,-5.3970112800598145,1.750349760055542
1781604335377063700,81.35406372070312,1.1784651279449463,-5.778068542480469,-0.24167509377002716
1781604335435283200,81.412283203125,0.8841479420661926,-7.877171993255615,1.4883357286453247
1781604335532316000,81.50931591796875,6.147161483764648,-11.292327880859375,-4.755136966705322
1781604335629348400,81.60634838867188,-0.5467599630355835,-4.59721040725708,2.255235433578491
1781604335687568100,81.66456811523437,-0.6885347366333008,-14.20439338684082,0.26081767678260803
1781604335784600600,81.7616005859375,-1.4865410327911377,-2.8666014671325684,-5.581258773803711
1781604335881633300,81.85863330078125,-0.5796613097190857,-14.077573776245117,2.373081922531128
1781604335939852800,81.91685278320313,3.555734395980835,-7.0654072761535645,3.452843189239502
1781604336017479000,81.99447900390625,0.8380861282348633,-13.028919219970703,8.468199729919434
1781604336095105000,82.07210498046875,-4.530211448669434,-6.567699909210205,0.15493527054786682
1781604336172731600,82.14973168945312,-2.4233310222625732,-24.12443733215332,-8.768498420715332
1781604336230951000,82.20795092773437,-3.692723512649536,-12.937992095947266,11.187044143676758
1781604336289170700,82.26617065429687,2.1379871368408203,-5.401797294616699,3.700500249862671
1781604336366796500,82.34379663085937,1.1527422666549683,-4.380660057067871,1.2113664150238037
1781604336463829200,82.44082934570312,-0.5868397355079651,-15.682559967041016,5.024927616119385
1781604336522049000,82.49904907226562,5.505885124206543,-8.12662410736084,0.6945167779922485
1781604336599675000,82.5766748046875,-2.5734808444976807,-7.286144733428955,1.654038667678833
1781604336657894700,82.63489477539062,-0.357128769159317,-12.298510551452637,0.6185446381568909
1781604336754927400,82.73192724609375,-0.6735795736312866,-3.9804604053497314,-6.375676155090332
1781604336851959800,82.82895971679687,0.06999006122350693,-12.410374641418457,2.0315065383911133
1781604336910179300,82.88717944335937,2.283949136734009,-8.781061172485352,4.636692047119141
1781604337007212000,82.9842119140625,-1.5248262882232666,-17.067405700683594,7.984251022338867
1781604337065431600,83.042431640625,-4.323830604553223,-6.475576400756836,0.2584248483181
1781604337181870800,83.15887084960937,-12.029317855834961,-32.95993423461914,6.139384746551514
1781604337259497000,83.2364970703125,1.0444670915603638,-3.2243285179138184,4.2454657554626465
1781604337337123000,83.314123046875,1.0917253494262695,-5.875576019287109,0.4833501875400543
1781604337414749200,83.39174926757812,2.3700907230377197,-7.576872825622559,5.730212211608887
1781604337472968700,83.44996875,-0.25782662630081177,-19.44168472290039,-1.3758729696273804
1781604337550595000,83.52759497070312,-0.48574298620224,-16.265810012817383,-3.991826295852661
1781604337628221200,83.60522119140624,0.08973085135221481,-13.883156776428223,2.0374884605407715
1781604337705847300,83.68284741210938,0.5300102233886719,-6.158527374267578,-2.8420751094818115
1781604337783473400,83.76047338867187,0.31046873331069946,-6.283552169799805,0.04366901144385338
1781604337841693000,83.81869287109375,-1.292722463607788,-13.933405876159668,1.8011972904205322
1781604337977538800,83.95453881835938,-1.9363917112350464,-14.932409286499023,12.099308013916016
1781604338055165000,84.0321650390625,-2.091326951980591,-6.713063716888428,-7.8382887840271
1781604338132791000,84.109791015625,-10.37767219543457,-29.525636672973633,4.914259433746338
1781604338191010600,84.16801049804687,2.995215654373169,6.884748935699463,8.961718559265137
1781604338288043300,84.26504321289063,1.5954145193099976,-4.697110652923584,0.3517449200153351
1781604338346262800,84.3232626953125,1.3782658576965332,-4.392025947570801,2.1541385650634766
1781604338482108700,84.45910864257813,-1.937588095664978,-23.996421813964844,-2.536990165710449
1781604338540328200,84.517328125,-2.7110681533813477,-10.976475715637207,7.548159122467041
1781604338617954300,84.59495434570313,-0.5264210104942322,-9.888937950134277,-3.7746777534484863
1781604338714987000,84.69198706054688,-1.2897313833236694,-4.374079704284668,-2.5076780319213867
1781604338773206800,84.75020678710938,-1.1168500185012817,-12.659826278686523,2.523829698562622
1781604338870239200,84.8472392578125,6.655037879943848,-0.5000999569892883,2.757728099822998
1781604339006085000,84.98308520507813,-3.844069480895996,-3.2231321334838867,-4.31007194519043
1781604339064304600,85.0413046875,-1.4177473783493042,-25.204198837280273,-11.456236839294434
1781604339141931000,85.11893090820313,0.5234299302101135,2.51425838470459,11.707483291625977
1781604339219557000,85.19655712890625,2.3533411026000977,-4.983651161193848,-3.716651678085327
1781604339316589800,85.29358984375,1.0354939699172974,-5.956932067871094,2.2642083168029785
1781604339413622500,85.39062255859375,6.075376510620117,-9.857233047485352,-2.3611178398132324
1781604339471842000,85.44884204101562,-3.610769271850586,-23.85823631286621,-1.1018948554992676
1781604339549468400,85.52646850585937,-1.3088740110397339,-12.477972030639648,3.31465744972229
1781604339627094500,85.60409448242187,1.007378339767456,-7.071987152099609,-3.1375887393951416
1781604339724127200,85.70112719726562,1.2131611108779907,-11.1104736328125,1.0265209674835205
1781604339801753300,85.77875341796874,2.1170499324798584,-7.867002487182617,3.1962127685546875
1781604339859972900,85.83697290039062,2.999403238296509,-6.555736064910889,8.072187423706055
1781604339937599200,85.91459912109374,-4.040280818939209,-11.324631690979004,2.5286152362823486
1781604339995818800,85.97281884765626,-1.2335001230239868,-4.600201606750488,-4.159922122955322
1781604340054038300,86.03103833007812,-6.4594244956970215,-30.425338745117188,-3.4779677391052246
1781604340131664600,86.10866455078126,1.439282774925232,2.1373889446258545,4.844269275665283
1781604340228697300,86.205697265625,1.1575279235839844,-4.658825874328613,1.1335997581481934
1781604340325730000,86.30272998046875,1.568495273590088,-13.03370475769043,6.052644729614258
1781604340383949600,86.36094946289063,4.880760192871094,-10.64806079864502,-4.756931304931641
1781604340500388900,86.47738891601563,-1.8765711784362793,-11.156535148620605,5.557928562164307
1781604340597421800,86.574421875,0.49651068449020386,-8.184649467468262,-3.0281169414520264
1781604340655641300,86.63264135742187,-1.74496591091156,-3.1202406883239746,-2.9144580364227295
1781604340713861000,86.69086108398437,0.2554338276386261,-12.404991149902344,1.6995022296905518
1781604340810893800,86.78789379882812,6.570092678070068,-1.01814603805542,2.4472594261169434
1781604340888520000,86.86552001953125,-0.5174478888511658,-17.77388572692871,8.583653450012207
1781604340946739500,86.92373950195312,-5.3934221267700195,-3.393620729446411,-2.2396819591522217
1781604341004959200,86.98195922851562,-1.1407781839370728,-18.823139190673828,-10.545169830322266
1781604341140805000,87.11780517578126,2.1230318546295166,-6.543771743774414,2.1619153022766113
1781604341199024600,87.17602465820312,1.827518343925476,-6.222535133361816,-0.023330021649599075
1781604341296057300,87.27305737304688,1.5206388235092163,-10.246066093444824,4.861019134521484
1781604341354277000,87.33127709960938,4.840680122375488,-11.38086223602295,-5.493920803070068
1781604341412497000,87.38949682617188,-1.9094724655151367,-19.65105628967285,-0.8530412912368774
1781604341509529600,87.48652954101563,-0.5712863802909851,-13.86221981048584,-0.9212366938591003
1781604341587155700,87.56415576171875,-0.09451649338006973,-6.422934055328369,-3.941577196121216
1781604341645375500,87.62237548828125,-0.45643091201782227,-5.353940486907959,-1.770688772201538
1781604341781221400,87.75822143554687,2.007578134536743,-5.879165172576904,3.9667017459869385
1781604341839441000,87.81644091796875,3.8536407947540283,-6.519843578338623,6.550352096557617
1781604341936473600,87.9134736328125,-2.9210381507873535,-3.972683906555176,-0.7447660565376282
1781604342033506600,88.01050659179687,-1.7252250909805298,-33.57548904418945,-10.127023696899414
1781604342091726300,88.06872631835938,-3.607180118560791,-8.006982803344727,15.567704200744629
1781604342188759000,88.16575903320313,2.4011974334716797,-9.830911636352539,-1.1270195245742798
1781604342285791700,88.26279174804688,2.1475582122802734,-4.324428558349609,3.55214524269104
1781604342344011500,88.32101147460938,4.533202648162842,-19.947765350341797,-9.19143009185791
1781604342441044200,88.41804418945313,-2.1589243412017822,-7.077969551086426,0.6939185857772827
1781604342518670600,88.49567065429687,-1.3651052713394165,-13.76770305633545,-3.5150563716888428
1781604342596296700,88.57329663085937,-1.042074203491211,-2.609373092651367,-6.533602237701416
1781604342654516200,88.63151611328125,1.2011969089508057,-10.494321823120117,-0.2021935135126114
1781604342732142600,88.709142578125,3.7363924980163574,-7.081558704376221,3.081955671310425
1781604342829175300,88.80617529296875,-0.35413774847984314,-21.415761947631836,10.194621086120605
1781604342926208300,88.90320825195313,-1.2382856607437134,-4.4374895095825195,-8.090731620788574
1781604343003834400,88.98083447265626,-11.185249328613281,-29.718259811401367,9.637093544006348
1781604343100867300,89.07786743164063,2.090130567550659,-5.737988471984863,-0.9379864931106567
1781604343217306600,89.194306640625,1.6857435703277588,-7.0061845779418945,4.779065132141113
1781604343314339300,89.29133935546875,3.159722328186035,-9.634101867675781,-3.135794162750244
1781604343411372300,89.38837231445312,-2.8803603649139404,-10.915458679199219,5.580062389373779
1781604343469592000,89.44659204101562,0.013160524889826775,-12.53719425201416,-1.7832510471343994
1781604343566624800,89.54362475585937,-1.587039589881897,-3.4342987537384033,-3.88594388961792
1781604343663657500,89.64065747070312,-0.7112665176391602,-13.877175331115723,3.284747362136841
1781604343741283800,89.71828393554688,4.334000110626221,-2.117648124694824,5.9545392990112305
1781604343818910000,89.79590991210938,-0.16749759018421173,-16.679767608642578,4.542175769805908
1781604343896536300,89.87353637695313,-1.4051851034164429,-4.381258487701416,-5.645267009735107
1781604343974162700,89.95116259765625,-10.453643798828125,-31.786256790161133,6.200999736785889
1781604344051788800,90.02878881835937,2.3018953800201416,-4.203591346740723,5.251049518585205
1781604344110008600,90.08700854492187,1.3878371715545654,-5.91087007522583,-0.9152546525001526
1781604344168228400,90.14522827148437,0.7561319470405579,-6.295516490936279,1.2370892763137817
1781604344265261000,90.24226098632812,2.3330020904541016,-15.120245933532715,-2.0338993072509766
1781604344323480800,90.30048071289062,-1.8664016723632812,-14.562718391418457,4.197608947753906
1781604344420513800,90.397513671875,-2.0315065383911133,-9.363115310668945,2.8827531337738037
1781604344517546500,90.49454638671875,-0.851844847202301,-6.500102519989014,-2.7667012214660645
1781604344575766300,90.55276635742187,-1.4033905267715454,-3.7776687145233154,-2.9240293502807617
1781604344672799200,90.64979931640624,-0.34576287865638733,-11.874980926513672,2.4221346378326416
1781604344769832000,90.74683203125,0.16809579730033875,-13.571492195129395,10.682756423950195
1781604344886271500,90.863271484375,-2.1439690589904785,-5.176273345947266,-5.471189022064209
1781604344963897600,90.94089770507813,-9.237491607666016,-27.29791831970215,5.322235584259033
1781604345060930600,91.0379306640625,1.786242127418518,-4.658227443695068,0.8865407705307007
1781604345119150300,91.096150390625,1.1210373640060425,-5.879165172576904,-0.07776673883199692
1781604345177369900,91.15436987304687,1.41834557056427,-7.383054256439209,1.6737794876098633
1781604345274402800,91.25140283203125,8.202595710754395,-12.301501274108887,-1.1216355562210083
1781604345371435800,91.34843579101563,-2.8151557445526123,-3.6299118995666504,2.0380866527557373
1781604345429655600,91.40665551757813,-0.29730820655822754,-12.30808162689209,1.342971682548523
1781604345526688300,91.50368823242188,-1.2951152324676514,-1.5080764293670654,-3.6113674640655518
1781604345623721200,91.60072119140625,-1.672582983970642,-14.947962760925293,2.9359934329986572
1781604345720754200,91.69775415039062,6.105287075042725,-1.8352949619293213,4.947160720825195
1781604345798380300,91.77538037109375,-3.7082769870758057,-12.772887229919434,4.460819721221924
1781604345856600000,91.83360009765624,-1.8975083827972412,-4.267599105834961,-4.343571186065674
1781604345914819800,91.89181982421874,-5.533402442932129,-32.3575439453125,-9.084351539611816
1781604346011852800,91.98885278320313,2.3120648860931396,-5.254638671875,7.435696601867676
1781604346070072600,92.04707250976563,1.4554343223571777,-5.803791522979736,-1.8903298377990723
1781604346128292400,92.10529223632813,1.042074203491211,-2.0482561588287354,0.8057830333709717
1781604346225325000,92.20232495117187,0.031106693670153618,-20.814565658569336,0.04426721855998039
1781604346283544800,92.260544921875,-1.0426725149154663,-11.137990951538086,4.541577339172363
1781604346399984400,92.376984375,-1.0390832424163818,-12.253644943237305,2.3575284481048584
1781604346477610800,92.45461083984375,0.3026920557022095,-5.962913990020752,-3.486940860748291
1781604346574643700,92.55164379882812,-0.1339980661869049,-10.340582847595215,-0.5300102233886719
1781604346632863200,92.60986328125,-1.6827524900436401,-12.981062889099121,3.3583266735076904
1781604346729896200,92.70689624023437,0.37926238775253296,-12.738789558410645,10.17727279663086
1781604346807522600,92.7845224609375,-4.402793884277344,-4.1970109939575195,-1.409970760345459
1781604346885149000,92.86214892578126,-1.5720844268798828,-26.033910751342773,-8.130212783813477
1781604346962775300,92.939775390625,0.9230313301086426,3.8195431232452393,9.829715728759766
1781604347020995000,92.9979951171875,1.4602199792861938,-5.149354457855225,-0.3278166949748993
1781604347079214800,93.05621484375,1.8424733877182007,-5.233701229095459,0.7657032608985901
1781604347137434600,93.1144345703125,1.41834557056427,-7.167101860046387,2.6327030658721924
1781604347234467300,93.21146728515625,5.644070625305176,-9.531210899353027,-4.538586139678955
1781604347331500300,93.30850024414063,-2.4161527156829834,-6.69990348815918,4.878366947174072
1781604347428533200,93.405533203125,-0.3122633695602417,-9.802796363830566,-3.181257724761963
1781604347486753000,93.4637529296875,-1.1593226194381714,-2.7212376594543457,-5.092525005340576
1781604347583786000,93.56078588867187,0.3116651475429535,-12.92064380645752,2.5016961097717285
1781604347680819000,93.65781884765624,4.752744197845459,-4.118047714233398,7.40399169921875
1781604347758445300,93.7354453125,-2.971287488937378,-15.094523429870605,3.9499518871307373
1781604347816664800,93.79366479492188,-3.786043643951416,-3.1375887393951416,-6.239284992218018
1781604347874884900,93.851884765625,-1.7653049230575562,-25.313072204589844,-7.743772506713867
1781604347933104600,93.91010473632812,-3.5575289726257324,-10.149157524108887,11.875578880310059
1781604348010731000,93.98773095703125,2.3545374870300293,-6.507281303405762,-1.6582261323928833
1781604348068950800,94.04595068359374,0.23270200192928314,-5.951548099517822,1.9256240129470825
1781604348127170300,94.10417041015624,1.9363917112350464,-7.505686283111572,4.755136966705322
1781604348224203500,94.20120361328125,5.9784674644470215,-9.814162254333496,-3.946960926055908
1781604348321236200,94.298236328125,-2.0470597743988037,-8.120641708374023,3.893122434616089
1781604348418269400,94.39526953125,0.26440688967704773,-9.022137641906738,-1.4644074440002441
1781604348476489000,94.45348901367187,-1.7060825824737549,-3.661616802215576,-4.1036906242370605
1781604348573522000,94.55052197265626,-0.6867401003837585,-13.14975643157959,3.527618885040283
1781604348670555000,94.64755493164063,5.781657695770264,-4.84187650680542,6.581458568572998
1781604348748181200,94.72518115234375,-2.1547367572784424,-11.559725761413574,3.4002010822296143
1781604348825807600,94.8028076171875,-2.2947168350219727,-7.571488857269287,-7.272386074066162
1781604348942247200,94.9192470703125,2.77866530418396,9.454042434692383,8.437092781066895
1781604349019873500,94.99687353515625,2.6434707641601562,-7.34177827835083,-2.2576282024383545
1781604349078093300,95.05509326171875,0.27816563844680786,-6.85244607925415,3.1130621433258057
1781604349175126500,95.15212646484375,2.076371908187866,-13.893924713134766,-1.800000786781311
1781604349272159200,95.2491591796875,-1.44945228099823,-11.810972213745117,1.4859428405761719
1781604349349785900,95.32678588867188,-1.290927767753601,-13.213765144348145,0.9583254456520081
1781604349427412200,95.404412109375,0.42831525206565857,-3.996013879776001,-5.705685615539551
1781604349524445200,95.50144506835937,1.1413763761520386,-14.11406421661377,0.9631111025810242
1781604349621478100,95.59847802734375,5.215754985809326,-2.349153518676758,8.160123825073242
1781604349679698000,95.65669799804688,-1.0139585733413696,-16.33938980102539,7.573283672332764
1781604349776731000,95.75373095703125,-4.187439441680908,-5.525625705718994,-4.105485439300537
1781604349873763800,95.85076391601562,-5.035097122192383,-12.508480072021484,13.211970329284668
1781604349931983600,95.90898364257812,2.313859462738037,-4.72163724899292,3.5808591842651367
1781604350029016600,96.0060166015625,0.7872386574745178,-4.782055854797363,2.0482561588287354
1781604350126049500,96.10304956054688,-0.9343972206115723,-16.901103973388672,2.8414769172668457
1781604350223082800,96.20008276367187,-4.2209391593933105,-22.268205642700195,-1.32921302318573
1781604350300709000,96.27770922851562,-0.49292147159576416,-13.347763061523438,5.105685234069824
1781604350378335500,96.35533544921876,-0.29730820655822754,-6.5150580406188965,-4.879563808441162
1781604350475368400,96.45236840820313,-0.24945175647735596,-11.235498428344727,1.3435698747634888
1781604350533588200,96.51058813476563,0.16091732680797577,-10.813165664672852,2.18045973777771
1781604350630621200,96.60762109375,2.2229323387145996,-13.149158477783203,11.042876243591309
1781604350688841000,96.66584106445312,-5.282155990600586,-9.002995491027832,1.8305093050003052
1781604350785874000,96.7628740234375,-3.036491870880127,-29.910282135009766,-4.686343193054199
1781604350902313700,96.87931372070312,1.5810575485229492,-6.078367710113525,1.667797327041626
1781604350979940000,96.95694018554687,0.8261220455169678,-4.051646709442139,0.8955138921737671
1781604351038160000,97.01515991210937,2.4083759784698486,-5.7164530754089355,2.4460630416870117
1781604351135192800,97.11219287109375,3.119642496109009,-10.338190078735352,-3.393620729446411
1781604351232225800,97.20922583007813,-2.826521635055542,-8.943174362182617,7.394420146942139
1781604351329259000,97.30625903320312,-0.19561325013637543,-7.934599876403809,-4.4584269523620605
1781604351387478800,97.36447875976563,-0.6729813814163208,-3.321237802505493,-3.9774694442749023
1781604351484511700,97.46151171875,-1.592423439025879,-12.474981307983398,2.6321048736572266
1781604351542731500,97.5197314453125,6.376274108886719,-1.3956137895584106,2.128415822982788
1781604351639764700,97.6167646484375,-1.542174220085144,-17.572290420532227,6.219544410705566
1781604351697984500,97.67498461914063,-4.000799655914307,-2.3641088008880615,-4.660620212554932
1781604351775611000,97.75261083984375,-6.592226505279541,-37.743186950683594,-2.3611178398132324
1781604351853237200,97.8302373046875,2.200200319290161,5.197809219360352,7.519444942474365
1781604351930863600,97.90786352539062,2.2438695430755615,-4.171288013458252,-1.7198412418365479
1781604351989083400,97.96608349609374,0.5318048596382141,-5.821737289428711,1.1318050622940063
1781604352086116600,98.06311669921875,4.156930923461914,-12.513265609741211,-3.6323046684265137
1781604352183149600,98.16014965820312,-2.779263496398926,-1.5397813320159912,6.375676155090332
1781604352241369300,98.21836938476562,-0.3290131092071533,-14.877972602844238,1.3052847385406494
1781604352338402600,98.31540258789063,-1.1443674564361572,-1.6037893295288086,-5.880361557006836
1781604352435435500,98.412435546875,-1.2352946996688843,-16.543376922607422,2.906083106994629
1781604352532468500,98.50946850585937,5.653641700744629,-2.1236300468444824,8.14815902709961
1781604352610094800,98.5870947265625,-3.7776687145233154,-11.300703048706055,3.2925238609313965
1781604352687721500,98.66472143554688,0.5324030518531799,-11.301301002502441,-8.370692253112793
1781604352804161000,98.7811611328125,2.695514678955078,4.104887008666992,7.062416076660156
1781604352881787400,98.85878735351562,1.9836499691009521,-6.290730953216553,-1.8652052879333496
1781604352940007400,98.91700732421874,0.4977070987224579,-4.701896667480469,1.9615163803100586
1781604353037040400,99.01404028320313,1.7042878866195679,-15.5024995803833,-2.0440688133239746
1781604353095260200,99.07226025390625,-1.0199406147003174,-9.453444480895996,5.522036552429199
1781604353192293400,99.16929345703124,-1.8873388767242432,-8.129016876220703,2.77866530418396
1781604353289326300,99.26632641601563,0.35054850578308105,-6.8004021644592285,-2.8869404792785645
1781604353386359300,99.363359375,0.9451649188995361,-11.657832145690918,0.9517452120780945
1781604353444579300,99.42157934570312,-0.9690931439399719,-10.929815292358398,4.11924409866333
1781604353541612300,99.5186123046875,-0.20039889216423035,-13.616955757141113,8.85643482208252
1781604353619238700,99.59623876953125,-4.1868414878845215,-4.488935470581055,-1.9459630250930786
1781604353696865300,99.673865234375,-4.122235298156738,-30.328428268432617,-6.357729911804199
1781604353774491600,99.75149169921875,2.6195425987243652,5.56450891494751,10.5421781539917
1781604353832711400,99.80971142578124,2.0811574459075928,-5.483152866363525,-0.9798609018325806
1781604353890931200,99.86793115234374,1.1629117727279663,-5.340181827545166,0.4223332107067108
1781604353949151200,99.92615112304688,1.0211371183395386,-7.4572319984436035,0.7040880918502808
1781604354046184200,100.02318408203125,6.526423931121826,-8.930612564086914,0.21415762603282928
1781604354182030600,100.15903051757813,-0.0687936544418335,-11.904293060302734,1.781456470489502
1781604354240250400,100.21725048828125,0.4570291340351105,-9.354740142822266,-0.6640082597732544
1781604354298470100,100.27547021484375,-3.308675527572632,-2.428116798400879,-4.7503509521484375
1781604354395503400,100.37250341796874,-0.9649057388305664,-11.554342269897461,1.9010975360870361
1781604354492536300,100.46953637695313,0.029312077909708023,-12.348759651184082,7.980661869049072
1781604354589569500,100.56656958007812,-3.8985064029693604,-5.3593244552612305,-3.0861430168151855
1781604354647789300,100.62478930664062,-1.602592945098877,-21.5659122467041,-5.959922790527344
