time,seconds_elapsed,z,y,x
1781638843703164700,0.17716455078125,0,0,0
1781638843751686700,0.225686767578125,-0.3718862533569336,-0.1639699935913086,0.3768206536769867
1781638843800209000,0.274208984375,-0.8128910064697266,-0.16056299209594727,0.2706022262573242
1781638843848731000,0.32273095703125,-0.6456155776977539,-0.384768009185791,0.5779297351837158
1781638843897253000,0.371253173828125,0.2139883041381836,-0.25191307067871094,0.643924355506897
1781638843945775000,0.419775146484375,1.0424604415893555,-0.18879127502441406,0.7621555924415588
1781638843994297300,0.46829736328125,-0.4772043228149414,0.27031373977661133,-1.3306503295898438
1781638844042819300,0.5168193359375,-1.453664779663086,0.6181483268737793,-1.9036681652069092
1781638844091341600,0.565341552734375,1.2787108421325684,-0.18309497833251953,-0.6838467121124268
1781638844139863600,0.613863525390625,2.725804328918457,-1.2374072074890137,-0.6259337663650513
1781638844188385800,0.6623857421875,-0.5122518539428711,0.7272930145263672,-1.9372570514678955
1781638844236907800,0.71090771484375,1.2350754737854004,-1.3924193382263184,1.4413098096847534
1781638844285430000,0.759429931640625,-1.5766468048095703,-1.2929720878601074,-2.1118905544281006
1781638844333952000,0.807951904296875,2.2091355323791504,-1.7453460693359375,-0.40529465675354004
1781638844382474200,0.85647412109375,-3.496509075164795,-1.2726726531982422,-3.7594449520111084
1781638844430996200,0.904996337890625,0.036325931549072266,-1.0012054443359375,3.1005091667175293
1781638844479518500,0.9535185546875,-1.3888261318206787,0.7499618530273438,1.5787487030029297
1781638844528040400,1.00204052734375,0.2439272403717041,0.9342336654663086,-0.05131685733795166
1781638844576562700,1.050562744140625,-0.5466114282608032,1.01416015625,-1.6467562913894653
1781638844625084700,1.099084716796875,-4.129767417907715,0.6367568969726562,-0.020764827728271484
1781638844673607000,1.14760693359375,-4.792814254760742,-0.09167289733886719,-0.7214094400405884
1781638844722129000,1.19612890625,-1.4456359148025513,-0.5262241363525391,-0.6488598585128784
1781638844770651100,1.244651123046875,-1.8258596658706665,0.018312454223632812,1.1451010704040527
1781638844819173000,1.293173095703125,-0.2647056579589844,0.7439632415771484,0.421154260635376
1781638844867695000,1.341695068359375,-0.05558180809020996,0.7154369354248047,1.0690734386444092
1781638844916217300,1.39021728515625,-0.687084436416626,0.040411949157714844,1.3706986904144287
1781638844964739300,1.4387392578125,-1.2106812000274658,0.20335102081298828,0.37641990184783936
1781638845013261600,1.487261474609375,-1.954862117767334,-0.04579448699951172,0.8903279304504395
1781638845061783600,1.535783447265625,-2.1967480182647705,-0.29259586334228516,1.1609525680541992
1781638845110305500,1.584305419921875,-3.2439653873443604,0.7701573371887207,-0.3699765205383301
1781638845158827800,1.632827880859375,-1.6042413711547852,1.2240242958068848,-1.8934069871902466
1781638845207350000,1.68135009765625,0.13546323776245117,0.8051309585571289,-1.747235894203186
1781638845304394000,1.77839404296875,0.8139042854309082,0.6674642562866211,0.22340071201324463
1781638845352916200,1.826916259765625,0.9591903686523438,0.4326505661010742,0.4693894386291504
1781638845401438200,1.875438232421875,0.03747749328613281,0.3330869674682617,0.5157146453857422
1781638845449960400,1.92396044921875,-0.6420559883117676,0.5478157997131348,-0.03403007984161377
1781638845498482400,1.972482421875,-0.8338160514831543,0.6445469856262207,-0.3749196529388428
1781638845547004400,2.02100439453125,-0.6949748992919922,0.5159206390380859,0.24481499195098877
1781638845595526700,2.069526611328125,0.05634450912475586,0.2922554016113281,0.2559148073196411
1781638845644048600,2.118048583984375,0.3072848320007324,-0.15407085418701172,-0.3233698904514313
1781638845692570600,2.166570556640625,1.2513771057128906,-0.47550106048583984,-0.1768088936805725
1781638845741092900,2.2150927734375,0.5158309936523438,-0.1928701400756836,-0.23777180910110474
1781638845789614800,2.26361474609375,0.27055788040161133,0.012268543243408203,-0.052140235900878906
1781638845838137000,2.31213720703125,0.4683403968811035,0.05075883865356445,-0.07406634092330933
1781638845886659000,2.3606591796875,0.08870410919189453,-0.0102691650390625,0.08902829885482788
1781638845935181000,2.40918115234375,0.2091383934020996,0.08420181274414062,0.3250248432159424
1781638845983703000,2.457703125,-0.32287120819091797,0.14109230041503906,0.31147414445877075
1781638846032225300,2.506225341796875,0.29309749603271484,-0.10623788833618164,0.19495055079460144
1781638846080747300,2.554747314453125,0.36344385147094727,-0.24805927276611328,0.32643672823905945
1781638846129269500,2.60326953125,-0.02630758285522461,0.29910993576049805,0.027983710169792175
1781638846177791500,2.65179150390625,-0.14100408554077148,0.3886270523071289,0.063996821641922
1781638846226313500,2.7003134765625,0.09600543975830078,0.13992547988891602,0.24964386224746704
1781638846274835700,2.748835693359375,0.024555206298828125,0.1053919792175293,-0.051686808466911316
1781638846323357700,2.797357666015625,0.04941749572753906,-0.0762643814086914,0.18033447861671448
1781638846371879700,2.845879638671875,-0.06113862991333008,-0.051335811614990234,-0.15394900739192963
1781638846420401700,2.894401611328125,0.11289739608764648,-0.045241355895996094,-0.05951816588640213
1781638846468924000,2.942923828125,-0.13899469375610352,-0.06762886047363281,-0.1535228043794632
1781638846517446000,2.99144580078125,0.14539861679077148,-0.06688928604125977,0.11422677338123322
1781638846565968100,3.039968017578125,-0.18408632278442383,-0.11782503128051758,-0.014347337186336517
1781638846614490000,3.088489990234375,0.29088878631591797,-0.3488960266113281,-0.3220703601837158
1781638846663012000,3.13701220703125,0.06451797485351562,-0.2730250358581543,-0.16988924145698547
1781638846711534000,3.1855341796875,0.4087200164794922,-0.4121823310852051,-0.22049766778945923
1781638846760056000,3.23405615234375,-0.621823787689209,-0.030396461486816406,-0.06322216987609863
1781638846808578300,3.282578369140625,-1.464609146118164,-0.026755332946777344,-0.20173460245132446
1781638846857100300,3.331100341796875,-0.9876317977905273,0.2646341323852539,-0.20909690856933594
1781638846905622300,3.379622314453125,-0.809781551361084,0.7407569885253906,-0.24494612216949463
1781638846954144300,3.428144287109375,-0.9190378189086914,0.30477237701416016,-0.7157371044158936
1781638847002666500,3.47666650390625,0.1531963348388672,0.038260698318481445,-0.43759727478027344
1781638847051188500,3.5251884765625,0.3847179412841797,-0.052675485610961914,-0.07789397239685059
1781638847099710700,3.573710693359375,-0.4940309524536133,-0.039748430252075195,-0.6555315256118774
1781638847148232700,3.622232666015625,-0.17578601837158203,-0.34969329833984375,-1.2436342239379883
1781638847196754700,3.670754638671875,-0.31888294219970703,-1.0853999853134155,-0.629302978515625
1781638847245276700,3.719276611328125,0.09261417388916016,-1.908439040184021,0.32561802864074707
1781638847293799000,3.767798828125,1.3374767303466797,-1.1488687992095947,0.7212026119232178
1781638847342321000,3.81632080078125,0.4928874969482422,0.5425436496734619,1.116978645324707
1781638847390843000,3.8648427734375,2.912820816040039,1.0103256702423096,0.032904624938964844
1781638847439365000,3.913365234375,1.5808420181274414,1.8586500883102417,1.7873101234436035
1781638847487886800,3.961886962890625,2.23063325881958,0.28825879096984863,-0.6507554054260254
1781638847536409000,4.0104091796875,-0.10777711868286133,1.4419522285461426,-0.318115234375
1781638847584931000,4.05893115234375,0.12490367889404297,2.000971794128418,0.20222043991088867
1781638847660058400,4.134058349609375,5.091874122619629,1.206881046295166,-0.8405914306640625
1781638847708580400,4.182580322265625,3.3842270374298096,0.7388639450073242,1.5313210487365723
1781638847757102300,4.231102294921875,7.103825092315674,-2.180159568786621,-1.0745136737823486
1781638847805624300,4.279624267578125,6.319587707519531,-3.0538854598999023,3.977579116821289
1781638847854146600,4.328146484375,-0.3011205196380615,-1.3156490325927734,7.51616096496582
1781638847902668500,4.37666845703125,0.32602977752685547,-1.0514535903930664,6.669802665710449
1781638847951190500,4.4251904296875,0.36364221572875977,1.5312395095825195,1.5038762092590332
1781638847999712500,4.47371240234375,-0.17623233795166016,4.867237567901611,-1.648708701133728
1781638848048233500,4.5222333984375,-1.0646487474441528,5.76844596862793,-2.276482582092285
1781638848145278200,4.6192783203125,1.1297755241394043,-2.358759880065918,2.1323280334472656
1781638848193800400,4.667800537109375,0.4342285394668579,0.33939075469970703,3.8510780334472656
1781638848242322700,4.71632275390625,3.04095196723938,1.018000602722168,2.363008975982666
1781638848290844200,4.76484423828125,-1.2535450458526611,1.129481315612793,-0.633660614490509
1781638848339366700,4.81336669921875,0.17106175422668457,-7.318696022033691,-1.9679627418518066
1781638848387887900,4.861887939453125,1.601004719734192,-6.115107536315918,1.8998171091079712
1781638848436410600,4.91041064453125,0.13402390480041504,1.7092266082763672,-0.7798246741294861
1781638848484932900,4.958932861328125,0.6452768445014954,-0.029436111450195312,-0.58187335729599
1781638848533454800,5.007454833984375,0.1570066213607788,0.9868307113647461,-0.4290999174118042
1781638848581976800,5.055976806640625,-0.13697469234466553,5.024665355682373,-1.5791484117507935
1781638848630499000,5.1044990234375,0.7063232660293579,3.27829647064209,0.3054649233818054
1781638848679020800,5.153020751953125,0.3993116617202759,-5.255218505859375,1.3287314176559448
1781638848727543000,5.20154296875,-0.29636693000793457,-4.515606880187988,1.7585365772247314
1781638848776065000,5.25006494140625,0.15710973739624023,-2.3869590759277344,0.1313174068927765
1781638848824587000,5.2985869140625,1.0167944431304932,-1.2509050369262695,0.2669682204723358
1781638848921631200,5.39563134765625,-0.0068089962005615234,1.1408929824829102,-0.44048523902893066
1781638848970153000,5.444153076171875,0.04794943332672119,0.11356163024902344,-0.4406510293483734
1781638849018675200,5.49267529296875,0.1951894760131836,-0.03707122802734375,0.11167559027671814
1781638849067197400,5.541197509765625,-0.053478240966796875,-1.6359844207763672,0.892093300819397
1781638849115719200,5.58971923828125,0.36667370796203613,-0.45529747009277344,0.023128092288970947
1781638849164241400,5.638241455078125,-0.24942803382873535,-1.9192590713500977,0.1813552975654602
1781638849212763100,5.68676318359375,-0.8178654909133911,2.255150318145752,-2.095118761062622
1781638849261285400,5.735285400390625,1.1560403108596802,-1.6470756530761719,0.4429309368133545
1781638849309807400,5.783807373046875,1.1106631755828857,1.9512014389038086,-0.34725385904312134
1781638849358329300,5.832329345703125,0.16849446296691895,0.05487346649169922,0.41531848907470703
1781638849406851300,5.880851318359375,0.48757195472717285,-0.6819171905517578,0.14298617839813232
1781638849455373300,5.929373291015625,0.06706881523132324,-0.06606578826904297,0.5187987089157104
1781638849503895600,5.9778955078125,0.015610694885253906,2.774306297302246,0.2984025478363037
1781638849552417500,6.02641748046875,-0.6308012008666992,-3.1964645385742188,-0.23564428091049194
1781638849600939300,6.074939208984375,-0.7557148933410645,-0.5804805755615234,-1.4109175205230713
1781638849649461500,6.12346142578125,0.2325429916381836,0.08183479309082031,-0.6726288199424744
1781638849697983500,6.1719833984375,0.10236239433288574,0.0993795394897461,-0.3392631709575653
1781638849746505500,6.22050537109375,0.20766901969909668,-0.28026485443115234,-0.01419752836227417
1781638849795027700,6.26902783203125,0.032660484313964844,-0.11115550994873047,0.35686904191970825
1781638849843549700,6.3175498046875,0.41529130935668945,-0.060581207275390625,0.12465870380401611
1781638849892071400,6.366071533203125,0.16957342624664307,0.02228546142578125,0.28073716163635254
1781638849940593700,6.41459375,0.2328503131866455,-0.47133636474609375,0.25646042823791504
1781638849989116000,6.463115966796875,0.6473512649536133,-0.050560951232910156,1.117180585861206
1781638850037637600,6.5116376953125,0.7365216016769409,0.13921260833740234,0.9203605651855469
1781638850086160000,6.560159912109375,0.5499793291091919,-0.29802989959716797,0.29201164841651917
1781638850134681900,6.608681884765625,0.10713934898376465,0.12079429626464844,-0.23279187083244324
1781638850183203800,6.657203857421875,-0.09161722660064697,-0.32953453063964844,-0.33093661069869995
1781638850231725600,6.7057255859375,-0.23902595043182373,-0.1462268829345703,-0.487953782081604
1781638850280247800,6.754247802734375,-0.1982104778289795,-0.13368988037109375,-0.6950676441192627
1781638850328770000,6.80277001953125,-0.41897809505462646,-0.22846031188964844,-0.8116641044616699
1781638850377291800,6.851291748046875,0.20751023292541504,-0.12599945068359375,0.2086147665977478
1781638850425814000,6.89981396484375,0.10941553115844727,0.0894021987915039,0.11970913410186768
1781638850474336000,6.9483359375,0.14036893844604492,-0.6730842590332031,0.3175494372844696
1781638850522858000,6.99685791015625,0.17100000381469727,-0.07711219787597656,0.4089573621749878
1781638850619902000,7.09390185546875,0.3022216558456421,-0.054650306701660156,-0.35895228385925293
1781638850668424200,7.142424072265625,-0.015359282493591309,-0.32317256927490234,-0.2030300348997116
1781638850716946000,7.19094580078125,0.13417351245880127,-0.2017192840576172,-0.04371073842048645
1781638850765468200,7.23946826171875,0.08154261112213135,-0.061667442321777344,-0.03981912136077881
1781638850813990400,7.287990478515625,0.10677289962768555,-0.114532470703125,-0.04345521330833435
1781638850862512000,7.33651220703125,0.05965316295623779,-0.07657146453857422,0.007367551326751709
1781638850911034400,7.385034423828125,0.07520186901092529,-0.1098947525024414,0.10478007793426514
1781638850959556400,7.433556396484375,0.09074020385742188,-0.1767263412475586,0.04914739727973938
1781638851008078300,7.482078369140625,0.2433304786682129,-0.00357818603515625,-0.028704196214675903
1781638851056600600,7.5306005859375,0.112143874168396,-0.02632904052734375,-0.06918397545814514
1781638851105122300,7.579122314453125,0.0545191764831543,-0.12743091583251953,-0.07661205530166626
1781638851153644500,7.62764453125,0.07039523124694824,-0.04607105255126953,-0.0519142746925354
1781638851202166500,7.67616650390625,0.045583367347717285,-0.056324005126953125,0.07098990678787231
1781638851250688300,7.724688232421875,-0.0059157609939575195,-0.09216880798339844,0.023405730724334717
1781638851299210500,7.77321044921875,-0.002938389778137207,-0.0032548904418945312,0.05783963203430176
1781638851347732500,7.821732421875,-0.00470125675201416,-0.03566169738769531,-0.08813872933387756
1781638851396254500,7.87025439453125,0.029375195503234863,-0.026413917541503906,-0.05114912986755371
1781638851444776700,7.918776611328125,-0.006816744804382324,-0.06553077697753906,-0.03029748797416687
1781638851493298700,7.967298583984375,0.034807443618774414,0.025618553161621094,-0.058161333203315735
1781638851541820700,8.015820556640625,0.03366374969482422,0.003353118896484375,0.019829094409942627
1781638851590343000,8.064343017578125,0.03658652305603027,-0.09561443328857422,-0.03646278381347656
1781638851638865000,8.112864990234375,0.004976749420166016,0.0033311843872070312,0.011147856712341309
1781638851687387000,8.161386962890624,0.08152937889099121,0.012152671813964844,0.0015967488288879395
1781638851735908900,8.209908935546874,0.03975939750671387,-0.03397560119628906,0.0009013116359710693
1781638851784430800,8.258430908203126,0.0083998441696167,-0.008147239685058594,0.04197332262992859
1781638851832952800,8.306952880859376,0.048934221267700195,-0.014062881469726562,-0.004937410354614258
1781638851881475000,8.35547509765625,0.03749799728393555,0.009407997131347656,-0.03237941861152649
1781638851929997000,8.4039970703125,0.006258726119995117,0.0155029296875,-0.014267027378082275
1781638851978519300,8.452519287109375,0.03353917598724365,-0.05453681945800781,-0.0102786123752594
1781638852027041000,8.501041015625,0.020914554595947266,-0.043379783630371094,-0.0012047290802001953
1781638852124085200,8.598085205078124,-0.010959863662719727,-0.03199577331542969,0.007122516632080078
1781638852221129500,8.69512939453125,-0.030376195907592773,-0.016182899475097656,0.023558348417282104
1781638852269651500,8.7436513671875,0.012753605842590332,-0.03329753875732422,-0.0073854029178619385
1781638852318173400,8.79217333984375,0.07368004322052002,-0.00130462646484375,0.004031836986541748
1781638852366695700,8.84069580078125,0.06352722644805908,-0.020430564880371094,0.011803865432739258
1781638852415217700,8.8892177734375,0.05235934257507324,-0.020641326904296875,-0.016242563724517822
1781638852463739600,8.93773974609375,0.04971277713775635,-0.05777549743652344,0.010478079319000244
1781638852512261600,8.98626171875,0.05927109718322754,-0.0033512115478515625,0.03562358021736145
1781638852560783600,9.03478369140625,0.01704716682434082,-0.010356903076171875,0.022486507892608643
1781638852609305900,9.083305908203124,0.042540669441223145,0.011816024780273438,-0.0345291793346405
1781638852657827800,9.131827880859374,-0.03305995464324951,-0.022443771362304688,-0.08378329873085022
1781638852706349800,9.180349853515626,0.04850196838378906,0.03048419952392578,-0.0553152859210968
1781638852754872000,9.2288720703125,0.032395005226135254,0.00328826904296875,-0.0020998120307922363
1781638852803393800,9.277393798828125,-0.01878178119659424,-0.041229248046875,-0.009684950113296509
1781638852851916000,9.325916015625,0.04906582832336426,0.000980377197265625,-0.031227171421051025
1781638852900438300,9.374438232421875,-0.0006694793701171875,-0.014941215515136719,0.006818503141403198
1781638852948960300,9.422960205078125,0.010416626930236816,-0.018209457397460938,-0.0462414026260376
1781638852997482200,9.471482177734375,0.03433263301849365,0.017345428466796875,0.011033475399017334
1781638853046004200,9.520004150390625,0.038285136222839355,-0.0047168731689453125,-0.02115088701248169
1781638853094526200,9.568526123046874,-0.00835573673248291,-0.004567146301269531,-0.023889213800430298
1781638853143048400,9.61704833984375,0.04687690734863281,-0.0033512115478515625,-0.04044783115386963
1781638853191570400,9.6655703125,0.012857437133789062,-0.01708507537841797,0.03340211510658264
1781638853240092700,9.7140927734375,0.03487598896026611,-0.021422386169433594,0.021605074405670166
1781638853288614400,9.762614501953125,-0.0020428895950317383,0.008104324340820312,0.03905302286148071
1781638853337136600,9.81113671875,0.005125880241394043,-0.007996559143066406,-0.010535657405853271
1781638853385658600,9.85965869140625,0.044257164001464844,-0.007889747619628906,0.016986459493637085
1781638853434180600,9.9081806640625,0.024348139762878418,0.027101516723632812,0.030914485454559326
1781638853482702800,9.956702880859375,-0.012597322463989258,-0.038558006286621094,0.024660468101501465
1781638853531224800,10.005224853515625,-0.013339996337890625,0.00730133056640625,-0.01921236515045166
1781638853579746800,10.053746826171874,0.025006890296936035,0.014766693115234375,0.02074301242828369
1781638853628269000,10.10226904296875,-0.02298712730407715,-0.009708404541015625,0.009761989116668701
1781638853676791000,10.150791015625,0.0025429725646972656,0.008581161499023438,-0.008219093084335327
1781638853725313000,10.19931298828125,0.023639440536499023,0.02326202392578125,-0.0020368099212646484
1781638853773835300,10.247835205078125,0.0100327730178833,0.014996528625488281,-0.021503865718841553
1781638853870879200,10.344879150390625,-0.01652669906616211,0.023065567016601562,0.021020084619522095
1781638853919401500,10.3934013671875,0.04215538501739502,0.01903533935546875,0.018973827362060547
1781638853967923500,10.44192333984375,-0.051485657691955566,-0.046863555908203125,0.04060301184654236
1781638854016445400,10.490445556640625,-0.008751273155212402,-0.006823539733886719,0.003996461629867554
1781638854064967400,10.538967529296874,0.015237927436828613,0.012316703796386719,-0.02542203664779663
1781638854113489700,10.58748974609375,0.04334449768066406,0.009928703308105469,-0.034600526094436646
1781638854162011600,10.63601171875,0.013247966766357422,0.014322280883789062,0.03340926766395569
1781638854210533600,10.68453369140625,0.01630842685699463,-0.02473735809326172,-0.017557144165039062
1781638854259055900,10.733055908203125,0.02108919620513916,0.009383201599121094,-0.019666612148284912
1781638854307577900,10.781577880859375,0.008491754531860352,0.0045337677001953125,0.025677353143692017
1781638854356099800,10.830099853515625,0.001263737678527832,-0.03437042236328125,0.010207891464233398
1781638854404621800,10.878621826171875,-0.0006209611892700195,0.009757041931152344,0.02563825249671936
1781638854453144000,10.92714404296875,0.04595530033111572,0.04042530059814453,-0.04252046346664429
1781638854501666000,10.975666015625,0.028554797172546387,-0.03940773010253906,-0.06528037786483765
1781638854550188300,11.024188232421874,0.039235830307006836,-0.006814002990722656,-0.031815916299819946
1781638854598710300,11.072710205078126,0.0369793176651001,-0.026683807373046875,0.02177789807319641
1781638854647232300,11.121232177734376,0.02291429042816162,0.005489349365234375,-0.007655709981918335
1781638854695754200,11.169754150390625,0.018172860145568848,-0.00330352783203125,-0.003708779811859131
1781638854792798200,11.266798095703125,0.028649330139160156,-0.055220603942871094,0.026468366384506226
1781638854841320400,11.315320556640625,-0.0052950382232666016,-0.040846824645996094,-0.01043584942817688
1781638854889842400,11.363842529296875,0.08804869651794434,0.06330585479736328,0.027135252952575684
1781638854938364400,11.412364501953125,0.045913100242614746,0.047332763671875,0.03552296757698059
1781638854986886700,11.46088671875,0.05431950092315674,-0.1025228500366211,-0.018776029348373413
1781638855035408600,11.50940869140625,0.011118769645690918,-0.0785989761352539,-0.0010224878787994385
1781638855083930600,11.5579306640625,0.13834822177886963,0.0782327651977539,0.0443415641784668
1781638855132452600,11.60645263671875,0.06339383125305176,0.011592864990234375,-0.033390045166015625
1781638855180974800,11.654974853515625,0.08436942100524902,-0.0036535263061523438,-0.013492077589035034
1781638855229496800,11.703496826171875,0.1515059471130371,-0.044579505920410156,0.01898956298828125
1781638855326541000,11.800541015625,0.16948533058166504,-0.01768207550048828,0.05038931965827942
1781638855423585300,11.897585205078125,0.21316123008728027,-0.004849433898925781,0.04190462827682495
1781638855472107000,11.94610693359375,0.13357782363891602,-0.08816719055175781,0.0663909912109375
1781638855520629200,11.994629150390624,0.13794076442718506,-0.043242454528808594,0.09460026025772095
1781638855569151200,12.043151123046876,0.11402308940887451,-0.11615467071533203,0.06500253081321716
1781638855617673500,12.091673583984376,0.23315894603729248,-0.03568077087402344,-0.01813521981239319
1781638855666195500,12.140195556640625,0.2753857374191284,-0.004664421081542969,-0.018777787685394287
1781638855714717400,12.188717529296875,0.3956282138824463,-0.0072841644287109375,0.13179731369018555
1781638855763239700,12.23723974609375,0.5202972888946533,0.06507015228271484,0.25737589597702026
1781638855811761700,12.28576171875,0.2420966625213623,0.048340797424316406,0.1788320243358612
1781638855860283600,12.33428369140625,0.39535772800445557,0.041298866271972656,0.2106872797012329
1781638855908805600,12.3828056640625,0.10833168029785156,0.023797988891601562,0.19317421317100525
1781638855957327600,12.43132763671875,0.32810401916503906,0.402252197265625,0.158924400806427
1781638856005849900,12.479849853515624,1.0395450592041016,0.9162883758544922,0.9101557731628418
1781638856054371800,12.528371826171876,-0.2673138976097107,-1.7574691772460938,1.5985947847366333
1781638856102893800,12.576893798828126,-0.511457085609436,-1.1465110778808594,0.419458270072937
1781638856151415800,12.625415771484375,0.5014827251434326,0.30207347869873047,0.15424644947052002
1781638856199937800,12.673937744140625,1.094186544418335,0.5193071365356445,0.33700037002563477
1781638856296982000,12.77098193359375,1.4608638286590576,1.093308448791504,1.1842999458312988
1781638856345504000,12.81950390625,1.3760309219360352,1.0814580917358398,1.58707857131958
1781638856394026000,12.86802587890625,1.5361446142196655,0.24262714385986328,2.0884809494018555
1781638856442548200,12.91654833984375,2.1264803409576416,-2.0840044021606445,2.3451733589172363
1781638856491070200,12.9650703125,2.133631944656372,-1.8658437728881836,1.322681188583374
1781638856539592200,13.01359228515625,-2.219092845916748,-3.823709487915039,-2.160592794418335
1781638856588114200,13.0621142578125,-1.6865625381469727,-0.5472908020019531,-3.308495044708252
1781638856636636400,13.110636474609375,-0.5182855129241943,1.644679069519043,-2.5855789184570312
1781638856685158400,13.159158447265625,0.3967658281326294,-0.12233448028564453,-3.7197227478027344
1781638856733680400,13.207680419921875,-0.9111522436141968,1.7308406829833984,-1.682654857635498
1781638856782202400,13.256202392578125,-1.2588860988616943,-0.051192283630371094,-0.5873613357543945
1781638856830724400,13.304724365234375,1.4343855381011963,0.6498775482177734,1.841975212097168
1781638856879246600,13.35324658203125,0.04408431053161621,-0.5842304229736328,0.968836784362793
1781638856927768600,13.4017685546875,1.690580129623413,1.0384740829467773,0.774797797203064
1781638856976290600,13.45029052734375,1.9562095403671265,3.381437301635742,0.15810978412628174
1781638857024812800,13.498812744140626,3.288102388381958,-1.1513776779174805,-1.363581657409668
1781638857121856800,13.595856689453125,-0.3455570340156555,-0.2375659942626953,0.11867564916610718
1781638857170378800,13.644378662109375,-4.1699090003967285,2.799448013305664,-0.021109938621520996
1781638857218900700,13.692900634765625,-3.085911273956299,-5.667180061340332,0.9808825850486755
1781638857267423000,13.741423095703125,-4.178782939910889,-5.281615257263184,1.5158073902130127
1781638857315945000,13.789945068359375,-0.7328606843948364,1.9413480758666992,2.31179141998291
1781638857364467000,13.838467041015624,0.12887799739837646,1.6127376556396484,-1.6518734693527222
1781638857412989000,13.886989013671876,-0.37098848819732666,1.8508710861206055,-2.562532663345337
1781638857461511000,13.935510986328126,0.5075415372848511,2.471428394317627,-0.23283618688583374
1781638857510033000,13.984032958984375,2.2081761360168457,3.5678935050964355,0.5289132595062256
1781638857558555100,14.03255517578125,-2.2165775299072266,-2.347712516784668,1.0590683221817017
1781638857607076900,14.081076904296875,3.4165234565734863,-2.9238052368164062,0.7455806732177734
1781638857655599000,14.12959912109375,-3.8992726802825928,-5.306793212890625,-0.02198803424835205
1781638857704121000,14.17812109375,-0.7267072200775146,-0.3755464553833008,-3.294365882873535
1781638857752643000,14.22664306640625,-0.20268481969833374,1.530594825744629,-1.1588118076324463
1781638857801165000,14.2751650390625,-0.3596174716949463,-1.9578142166137695,-4.02056360244751
1781638857849687000,14.32368701171875,0.38232383131980896,2.250321865081787,-1.6473225355148315
1781638857898209300,14.372209228515626,-1.5183625221252441,1.5848560333251953,-0.44936633110046387
1781638857946731300,14.420731201171876,2.6475017070770264,1.6716413497924805,-0.7019387483596802
1781638857995253200,14.469253173828125,0.7262757420539856,0.844721794128418,2.3434324264526367
1781638858043775200,14.517775146484375,0.9319541454315186,-1.1420059204101562,0.8414744138717651
1781638858092297200,14.566297119140625,3.3133349418640137,1.0868186950683594,0.005255758762359619
1781638858140819500,14.6148193359375,4.384128570556641,-0.2880830764770508,1.0151550769805908
1781638858189341400,14.663341552734375,0.6430718302726746,-2.068720817565918,2.385488510131836
1781638858237863400,14.711863525390624,-3.9463963508605957,1.330399513244629,-1.6746565103530884
1781638858286385400,14.760385498046874,-3.481916904449463,-0.39835357666015625,-0.9013231992721558
1781638858334907400,14.808907470703126,-4.252518653869629,-10.012946128845215,1.0058345794677734
1781638858383429000,14.85742919921875,-2.824643611907959,0.14169692993164062,4.529541015625
1781638858431951400,14.905951416015625,0.5033330321311951,4.183193683624268,0.28932368755340576
1781638858480473300,14.954473388671875,0.4579508304595947,1.8190193176269531,-3.3704919815063477
1781638858528995600,15.00299560546875,0.3577967882156372,2.7058753967285156,-0.27508968114852905
1781638858577517600,15.051517578125,2.194908380508423,4.393030643463135,0.39472442865371704
1781638858626039600,15.10003955078125,-3.346850872039795,-2.1590042114257812,2.758242607116699
1781638858674561500,15.1485615234375,4.32772970199585,-5.225823402404785,-0.20276176929473877
1781638858771605500,15.24560546875,-0.8457673788070679,-1.2090158462524414,-3.5247445106506348
1781638858820127500,15.29412744140625,0.26798856258392334,2.6765098571777344,-0.1277695894241333
1781638858868649500,15.3426494140625,0.09624731540679932,-1.5952682495117188,-3.7260208129882812
1781638858917171500,15.39117138671875,1.2765655517578125,2.5102715492248535,-4.965950012207031
1781638858965693400,15.439693359375,-1.6316983699798584,1.6493186950683594,-0.5534325838088989
1781638859014215400,15.48821533203125,0.09263265132904053,-0.2790842056274414,-0.46289288997650146
1781638859062737700,15.536737548828125,1.5388686656951904,1.6216459274291992,0.4539960026741028
1781638859111259400,15.58525927734375,2.444704294204712,1.9394917488098145,-0.38775330781936646
1781638859159781600,15.63378173828125,6.185939311981201,1.3333768844604492,0.631769597530365
1781638859208303600,15.6823037109375,1.4793401956558228,-5.339191436767578,3.487632989883423
1781638859256825600,15.73082568359375,-1.4056379795074463,-2.749789237976074,-0.3217560648918152
1781638859305347600,15.77934765625,-4.520750522613525,1.755472183227539,-0.13048025965690613
1781638859353869300,15.827869384765625,-3.438845634460449,-5.211765289306641,-0.4073609411716461
1781638859402391600,15.8763916015625,-4.8603835105896,-4.445334434509277,4.054469108581543
1781638859450913500,15.92491357421875,-0.39867088198661804,3.4560508728027344,0.9869599342346191
1781638859499435500,15.973435546875,-0.003919005393981934,3.108957290649414,-2.3352408409118652
1781638859547957500,16.02195751953125,0.4393831491470337,3.209373950958252,-0.344501793384552
1781638859596479500,16.0704794921875,0.9939096570014954,3.601656436920166,0.17142248153686523
1781638859645001500,16.11900146484375,1.7167762517929077,2.175477981567383,0.7347036004066467
1781638859693523700,16.167523681640624,0.07863253355026245,-7.41429328918457,-1.3902883529663086
1781638859742045400,16.21604541015625,1.8426480293273926,-3.068173408508301,2.679163694381714
1781638859790567400,16.2645673828125,-3.879476308822632,-3.627779006958008,-1.791214942932129
1781638859839089400,16.31308935546875,-0.4447835683822632,2.426175117492676,-0.4260910749435425
1781638859887611600,16.361611572265623,-1.0064939260482788,-1.4188175201416016,-2.613353729248047
1781638859936133400,16.41013330078125,0.7710625529289246,0.9953374862670898,-5.82622766494751
1781638859984655400,16.4586552734375,-0.6859441995620728,3.660463333129883,-0.7703468799591064
1781638860033177300,16.50717724609375,-0.7403041124343872,-0.025954246520996094,-1.9892441034317017
1781638860081699300,16.55569921875,3.0379605293273926,1.6634750366210938,1.5066826343536377
1781638860130221300,16.60422119140625,2.3004517555236816,2.299290657043457,3.1325554847717285
1781638860178743600,16.65274365234375,3.5001349449157715,0.9086198806762695,0.3661794066429138
1781638860227265300,16.701265380859375,3.032972812652588,-2.8700618743896484,3.7542600631713867
1781638860275787500,16.74978759765625,-0.17995035648345947,-3.779391288757324,0.16236957907676697
1781638860372831200,16.846831298828125,-2.9514498710632324,0.09921455383300781,0.2044246792793274
1781638860421353500,16.895353515625,-4.16734504699707,-9.457630157470703,-0.3146015405654907
1781638860469875200,16.943875244140624,-2.6018264293670654,0.722559928894043,3.6751866340637207
1781638860518397200,16.992397216796874,0.8496520519256592,3.2935614585876465,0.15608477592468262
1781638860566919400,17.04091943359375,-0.2471020221710205,3.109426498413086,-1.6383228302001953
1781638860615441200,17.089441162109374,0.32479149103164673,3.2785840034484863,-0.04246330261230469
1781638860663963400,17.13796337890625,2.587294578552246,5.068085670471191,0.2595900297164917
1781638860712485400,17.1864853515625,-2.5514183044433594,-4.758852958679199,0.49106085300445557
1781638860761007000,17.235007080078127,4.038302421569824,-5.286293029785156,0.35034632682800293
1781638860809529000,17.283529052734377,-3.0056777000427246,-5.415600776672363,-1.6503101587295532
1781638860858051000,17.332051025390626,0.25703489780426025,1.7796430587768555,-0.6455895304679871
1781638860906573000,17.380572998046876,-0.35948169231414795,0.6640605926513672,-0.638991117477417
1781638860955095000,17.429094970703126,0.6372112035751343,-1.1611127853393555,-4.427743911743164
1781638861003617000,17.477616943359376,0.3268846273422241,3.1351728439331055,-2.751426935195923
1781638861052139000,17.526138916015626,-0.23775959014892578,0.9934282302856445,-0.15467220544815063
1781638861100661000,17.574660888671875,0.47983431816101074,-0.10133838653564453,0.3329262137413025
1781638861149183000,17.623182861328125,1.6982524394989014,2.39658784866333,0.7331249117851257
1781638861197705000,17.671705078125,4.343601226806641,2.800105571746826,-0.15256524085998535
1781638861246227000,17.72022705078125,5.524086952209473,-0.39168739318847656,1.8115315437316895
1781638861294749000,17.7687490234375,0.5751780271530151,-4.91585636138916,2.3157923221588135
1781638861343271000,17.81727099609375,-1.8408596515655518,-0.7299032211303711,-2.588961601257324
1781638861391793000,17.86579296875,-3.9180362224578857,3.0581483840942383,2.170063018798828
1781638861440315000,17.91431494140625,-3.771998167037964,-9.238776206970215,-0.8968615531921387
1781638861488836600,17.962836669921874,-3.0305519104003906,-2.4682884216308594,2.4220190048217773
1781638861585880800,18.059880859375,-0.18890434503555298,3.5459866523742676,-1.9682036638259888
1781638861634402600,18.108402587890627,1.2749392986297607,3.5065884590148926,-1.9811019897460938
1781638861682924500,18.156924560546877,2.0683953762054443,4.926233768463135,-0.1755610704421997
1781638861731446800,18.20544677734375,-1.353429913520813,-2.6335716247558594,0.8886380791664124
1781638861779968500,18.253968505859376,5.61180305480957,-5.922903060913086,1.126570463180542
1781638861828490500,18.302490478515626,-4.486116886138916,-3.813748359680176,1.6092418432235718
1781638861877012200,18.35101220703125,-0.520108699798584,-3.0647449493408203,-4.01001501083374
1781638861925534500,18.399534423828126,-0.766366720199585,2.3617076873779297,-0.8514030575752258
1781638861974056400,18.448056396484375,-0.2874943017959595,-1.671799659729004,-4.36442756652832
1781638862022578200,18.496578125,0.628398597240448,3.606672763824463,-4.202103614807129
1781638862071100400,18.545100341796875,-1.1187597513198853,1.7785301208496094,-0.19422703981399536
1781638862119622400,18.593622314453125,1.3464958667755127,-0.6144876480102539,0.6098958849906921
1781638862168144100,18.64214404296875,3.1949052810668945,3.6423683166503906,1.6608936786651611
1781638862216666000,18.690666015625,4.153352737426758,2.9863500595092773,1.7408580780029297
1781638862265188000,18.73918798828125,4.099421501159668,-3.298154830932617,3.3118209838867188
1781638862313710000,18.7877099609375,0.5820125341415405,-3.7879419326782227,1.9839154481887817
1781638862362232000,18.836232177734374,-2.007814407348633,2.0526556968688965,-2.681724786758423
1781638862410753800,18.88475390625,-4.4448065757751465,-1.8165740966796875,-0.2920810580253601
1781638862459276000,18.933276123046873,-4.918422222137451,-10.98819351196289,0.559270977973938
1781638862507797800,18.9817978515625,-1.527524471282959,0.7141132354736328,5.853245258331299
1781638862556320000,19.030320068359377,0.8888043165206909,4.2539825439453125,0.6506919860839844
1781638862604841700,19.078841796875,0.2332782745361328,2.985501289367676,-2.6567792892456055
1781638862653363700,19.12736376953125,1.412752628326416,3.668529987335205,-1.013135313987732
1781638862701885700,19.1758857421875,2.4225356578826904,5.54464864730835,-0.47048550844192505
1781638862750407700,19.22440771484375,-2.057250499725342,-3.908371925354004,0.7072444558143616
1781638862798929400,19.272929443359374,5.58809232711792,-3.7987632751464844,2.0184292793273926
1781638862847451400,19.321451416015623,-5.816917896270752,-6.272623062133789,-0.7056604027748108
1781638862895973400,19.369973388671873,0.3726196885108948,-0.44284629821777344,-2.0034444332122803
1781638862944495400,19.418495361328127,-1.3932973146438599,-0.8173179626464844,-1.4385497570037842
1781638862993017300,19.467017333984376,0.6469515562057495,-0.03767967224121094,-5.7047576904296875
1781638863041539300,19.515539306640626,0.46961361169815063,4.461699485778809,-2.5760321617126465
1781638863138583000,19.6125830078125,2.190737247467041,0.004195213317871094,0.513525128364563
1781638863187105000,19.66110498046875,3.7338171005249023,4.334110260009766,2.749133586883545
1781638863235626800,19.709626708984374,4.404645919799805,2.1832218170166016,1.4956425428390503
1781638863284149000,19.75814892578125,2.7663722038269043,-4.7168169021606445,4.135249137878418
1781638863332671000,19.8066708984375,0.282981276512146,-2.698838233947754,1.1225521564483643
1781638863381192700,19.855192626953126,-3.0328571796417236,3.167964458465576,-2.3228213787078857
1781638863429714700,19.903714599609376,-3.821805477142334,-3.907634735107422,-0.8624850511550903
1781638863478236700,19.952236572265626,-4.345561981201172,-9.577059745788574,1.9095486402511597
1781638863526758400,20.00075830078125,-1.2648699283599854,2.002747058868408,5.174820423126221
1781638863575280600,20.04928076171875,0.8500108122825623,2.682736396789551,-0.36675071716308594
1781638863623802400,20.09780224609375,-0.08792123198509216,3.49373722076416,-1.7444047927856445
1781638863672324400,20.146324462890625,1.573604941368103,4.595897197723389,0.4454961121082306
1781638863720846300,20.194846435546875,1.5540146827697754,5.912227630615234,0.8792874813079834
1781638863769368000,20.2433681640625,0.002008676528930664,-6.410606384277344,-0.764624834060669
1781638863817890000,20.29189013671875,2.6447410583496094,-3.9265594482421875,3.4145233631134033
1781638863866412000,20.340412109375,-5.288997650146484,-7.365076065063477,-3.512413501739502
1781638863914934000,20.38893408203125,0.5387027263641357,1.962916374206543,-1.3510385751724243
1781638863963456000,20.4374560546875,-1.7105737924575806,-2.3951921463012695,-2.117363452911377
1781638864011978000,20.48597802734375,1.3636195659637451,1.6592178344726562,-5.297579765319824
1781638864060499700,20.534499755859375,0.5359916687011719,4.137777328491211,-1.048419713973999
1781638864109021700,20.583021728515625,-0.36833977699279785,0.4856281280517578,-0.8408942222595215
1781638864157543700,20.631543701171875,2.2418198585510254,1.4103097915649414,1.0621899366378784
1781638864206065400,20.6800654296875,3.259122610092163,3.3924221992492676,1.9656914472579956
1781638864254587400,20.72858740234375,5.129123687744141,1.6904253959655762,3.26422381401062
1781638864303109000,20.777109130859376,2.420494318008423,-3.960169792175293,4.843571186065674
1781638864351631000,20.825631103515626,-1.3364654779434204,-2.739006996154785,-0.39665114879608154
1781638864400153000,20.874153076171876,-4.333162307739258,1.914623737335205,-0.609197735786438
1781638864448674800,20.9226748046875,-4.234343528747559,-7.52064323425293,-2.919677495956421
1781638864497196800,20.97119677734375,-4.094326972961426,-4.644018173217773,3.533062219619751
1781638864545719000,21.019718994140625,-0.07761253416538239,3.26524019241333,4.009844779968262
1781638864594240800,21.06824072265625,0.5356063842773438,3.4095611572265625,-1.0291064977645874
1781638864691284700,21.16528466796875,1.7712482213974,6.320831298828125,0.23139461874961853
1781638864739806500,21.213806396484376,0.05070751905441284,3.396820068359375,1.1956381797790527
1781638864788328400,21.262328369140626,-0.4215746223926544,-7.0071821212768555,0.16528446972370148
1781638864836850400,21.310850341796876,0.9991122484207153,-3.2717838287353516,4.341967582702637
1781638864885372200,21.3593720703125,-7.625394344329834,-8.94161605834961,-2.9534764289855957
1781638864933894100,21.40789404296875,0.622058093547821,1.6495590209960938,-1.793519139289856
1781638864982416000,21.456415771484377,-2.3331804275512695,-2.9148035049438477,-4.846436023712158
1781638865030937900,21.504937744140626,1.3412256240844727,2.6706743240356445,-6.904480457305908
1781638865079459800,21.5534599609375,0.736719012260437,1.8210725784301758,-1.8719584941864014
1781638865127981600,21.601981689453126,5.720553874969482,1.3570127487182617,1.4704372882843018
1781638865176503600,21.650503662109376,3.569859504699707,2.968708038330078,4.63701057434082
1781638865225025500,21.699025634765626,3.6538479328155518,0.4647789001464844,3.115577220916748
1781638865273547300,21.74754736328125,5.258978843688965,-2.661545753479004,5.66191291809082
1781638865322069200,21.7960693359375,1.1431074142456055,-2.109851837158203,4.792518615722656
1781638865370591200,21.84459130859375,-3.8788812160491943,1.786376953125,1.071854829788208
1781638865419113000,21.893113037109377,-6.858031749725342,-8.111715316772461,0.981544017791748
1781638865467635000,21.941635009765626,-4.375422954559326,-7.905731201171875,-0.6097112894058228
1781638865516156700,21.99015673828125,-1.6395292282104492,3.266354560852051,3.1394495964050293
1781638865564678700,22.0386787109375,1.1678357124328613,4.022699356079102,0.2405180037021637
1781638865613200400,22.087200439453124,-0.12263932824134827,2.514498233795166,1.536486268043518
1781638865661722400,22.135722412109374,-0.18606720864772797,3.3017468452453613,2.2707533836364746
1781638865710244400,22.184244384765623,2.731757879257202,4.9105963706970215,2.4694924354553223
1781638865758766300,22.232766357421873,-0.20280998945236206,-1.220322608947754,0.430541455745697
1781638865807288000,22.2812880859375,3.5658721923828125,-4.005451202392578,0.26379692554473877
1781638865855810000,22.32981005859375,-7.868572235107422,-8.41816520690918,-0.1533902883529663
1781638865904331800,22.378331787109374,0.5085561871528625,1.8852815628051758,-3.0955851078033447
1781638865952853800,22.426853759765624,-1.7193363904953003,-1.1637210845947266,-1.422356367111206
1781638866001375700,22.475375732421874,-0.29909002780914307,-1.06304931640625,-3.266339063644409
1781638866049897500,22.5238974609375,0.5405802726745605,3.418045997619629,-3.1688315868377686
1781638866098419500,22.57241943359375,1.1503734588623047,2.8755030632019043,-0.6570350527763367
1781638866146941400,22.62094140625,2.722916841506958,1.9957609176635742,1.183355689048767
1781638866243985200,22.717985107421875,4.144290924072266,0.6202383041381836,2.3288745880126953
1781638866292507100,22.766507080078124,1.997551679611206,-6.027576446533203,4.8022074699401855
1781638866341028900,22.81502880859375,0.9029058814048767,-2.7467737197875977,0.6720503568649292
1781638866389550800,22.86355078125,-4.631317615509033,3.5535049438476562,0.38509780168533325
1781638866438072300,22.912072265625,-4.2866363525390625,-4.843484878540039,-2.076779842376709
1781638866486594300,22.96059423828125,-3.051267623901367,-6.724739074707031,2.1504390239715576
1781638866535116300,23.0091162109375,-1.5647568702697754,2.6436638832092285,4.614998817443848
1781638866583638000,23.057637939453127,0.27750664949417114,3.5093822479248047,0.25691497325897217
1781638866632160000,23.106159912109376,0.4232277572154999,3.545475482940674,-2.510037422180176
1781638866680682000,23.154681884765626,1.4653149843215942,3.9655098915100098,-0.6958733201026917
1781638866729203700,23.20320361328125,2.060333251953125,4.616015911102295,0.4311561584472656
1781638866777725700,23.2517255859375,-0.26204192638397217,-7.686215400695801,-1.0605684518814087
1781638866826247400,23.300247314453124,1.950692057609558,-2.7786779403686523,2.323716402053833
1781638866874769200,23.34876904296875,-5.1050848960876465,-6.599465370178223,-3.684441089630127
1781638866923291100,23.397291015625,0.8733776211738586,3.050625801086426,-1.2602015733718872
1781638866971813000,23.445813232421877,-1.0682697296142578,-1.5793275833129883,-1.871347427368164
1781638867020334800,23.4943349609375,0.9922888875007629,0.8799839019775391,-4.308852195739746
1781638867068856800,23.54285693359375,-0.2973262071609497,3.8516321182250977,-0.9204455018043518
1781638867117378600,23.591378662109374,-0.32227420806884766,0.40336132049560547,-0.4318763017654419
1781638867165900500,23.639900634765624,2.040898084640503,1.5131206512451172,0.6054516434669495
1781638867214422500,23.688422607421874,3.023958683013916,3.9282875061035156,0.7110346555709839
1781638867262944300,23.7369443359375,5.240633964538574,0.1709604263305664,1.609572410583496
1781638867311466000,23.785466064453125,0.6382564306259155,-5.274218559265137,3.792724132537842
1781638867359988000,23.833988037109375,-1.540225863456726,-1.1309070587158203,-2.643362045288086
1781638867408509700,23.882509765625,-4.053882122039795,2.6926207542419434,-0.252578467130661
1781638867457031400,23.931031494140626,-4.498904228210449,-10.239263534545898,-1.1118686199188232
1781638867505553700,23.9795537109375,-3.698082208633423,-3.1116600036621094,4.190058708190918
1781638867554075400,24.028075439453126,1.2437971830368042,3.9602222442626953,1.7968857288360596
1781638867602597400,24.076597412109376,0.11692732572555542,3.5311813354492188,-2.552959680557251
1781638867651118800,24.125118896484373,0.7569504976272583,4.080996036529541,-1.5471453666687012
1781638867699640800,24.173640869140623,2.203246593475342,5.558943271636963,-0.5000296831130981
1781638867796684800,24.270684814453126,4.931435585021973,-7.6409912109375,0.07668673992156982
1781638867845206500,24.31920654296875,-2.7979378700256348,-4.812934875488281,2.266170024871826
1781638867893728300,24.367728271484374,-0.9362777471542358,-2.765561103820801,-4.324331283569336
1781638867942250000,24.41625,0.2919275760650635,2.569704055786133,-1.2583295106887817
1781638867990772000,24.46477197265625,-0.4077385663986206,-2.475160598754883,-4.466805458068848
1781638868039293700,24.513293701171875,1.2168761491775513,2.381870746612549,-5.455781936645508
1781638868087815700,24.561815673828125,-1.294832468032837,2.6259660720825195,-0.7667715549468994
1781638868136337400,24.61033740234375,0.6277579069137573,0.4381437301635742,-0.8810678124427795
1781638868184859400,24.658859375,2.4678473472595215,2.7665324211120605,0.8538423776626587
1781638868233381000,24.707381103515626,4.159673690795898,3.1348977088928223,2.1451516151428223
1781638868281903000,24.755903076171876,4.544116973876953,-1.758768081665039,0.8022741079330444
1781638868330424800,24.8044248046875,0.8379617929458618,-5.742183685302734,3.079678535461426
1781638868378946600,24.852946533203124,-1.8524967432022095,-0.21204662322998047,-1.7097725868225098
1781638868427468300,24.90146826171875,-4.224164962768555,2.6944503784179688,-1.441576361656189
1781638868475990300,24.949990234375,-3.897745370864868,-6.936252593994141,-2.4675896167755127
1781638868524512300,24.99851220703125,-3.4685492515563965,-3.87520694732666,5.598147392272949
1781638868573034000,25.047033935546875,1.2989120483398438,3.5063047409057617,3.5947396755218506
1781638868621555700,25.0955556640625,1.3022903203964233,2.583950996398926,-4.521777153015137
1781638868670077700,25.14407763671875,1.1790555715560913,3.037102699279785,-2.5697288513183594
1781638868718599400,25.192599365234376,1.5274407863616943,4.6078033447265625,-0.48992156982421875
1781638868767121200,25.24112109375,-0.48979780077934265,0.46671581268310547,0.4381335973739624
1781638868815643100,25.28964306640625,3.7880280017852783,-6.989368438720703,0.3567831516265869
1781638868864164900,25.338164794921877,-1.5666611194610596,-4.262743949890137,1.3311479091644287
1781638868912686800,25.386686767578126,-2.5624327659606934,-3.4882545471191406,-3.705127000808716
1781638868961208600,25.43520849609375,0.13547098636627197,2.9557528495788574,-0.4480999708175659
1781638869009730300,25.483730224609374,-1.0097795724868774,-1.9140710830688477,-3.0420472621917725
1781638869058252000,25.532251953125,1.7834850549697876,2.957798957824707,-5.423377990722656
1781638869106774000,25.58077392578125,-1.6245429515838623,3.3601536750793457,-1.1411995887756348
1781638869155295700,25.629295654296875,2.316275119781494,0.07013225555419922,-1.855526089668274
1781638869203817700,25.677817626953125,3.216552257537842,1.1273221969604492,4.782354354858398
1781638869252339500,25.72633935546875,1.317734956741333,2.247915267944336,2.209831714630127
1781638869300861400,25.774861328125,4.783650875091553,-0.9163885116577148,0.3045216202735901
1781638869397905000,25.87190478515625,-0.516879677772522,-1.2078704833984375,-1.0300095081329346
1781638869446426600,25.920426513671874,-3.911341667175293,3.410923957824707,-1.673981785774231
1781638869494948600,25.968948486328124,-3.652442455291748,-6.052660942077637,-3.2443103790283203
1781638869543470300,26.01747021484375,-4.981220722198486,-5.930695533752441,4.1043620109558105
1781638869591992300,26.065992431640623,1.4330613613128662,3.4556493759155273,5.426196098327637
1781638869640513800,26.114513671875,1.058467984199524,2.640951633453369,-2.8264307975769043
1781638869689035800,26.163035888671875,1.4177680015563965,3.2672362327575684,-4.5576276779174805
1781638869737557500,26.2115576171875,1.7298924922943115,4.554877758026123,-0.08230096101760864
1781638869786079200,26.260079345703126,0.6766142249107361,2.308384418487549,1.4526488780975342
1781638869834601200,26.308601318359376,1.2688547372817993,-8.761764526367188,0.7075326442718506
1781638869883123000,26.357123046875,0.6852916479110718,-3.892030715942383,2.181922435760498
1781638869931644700,26.405644775390623,-3.3818013668060303,-4.521853446960449,-4.438647747039795
1781638869980166700,26.454166748046877,1.148037075996399,4.339613914489746,-0.7540128231048584
1781638870028688400,26.5026884765625,-0.24656450748443604,-1.6316699981689453,-0.9022015333175659
1781638870077210000,26.551210205078124,1.6771008968353271,0.9810476303100586,-5.0514092445373535
1781638870125732000,26.599732177734374,-0.9572862386703491,4.457054138183594,-1.2325003147125244
1781638870174253800,26.64825390625,-0.21058952808380127,0.30051136016845703,-1.1344155073165894
1781638870222775600,26.696775634765626,2.54388165473938,1.1182012557983398,0.5317234992980957
1781638870271297300,26.74529736328125,3.1993327140808105,1.676835536956787,3.027556896209717
1781638870319819000,26.793819091796873,4.329972743988037,0.65728759765625,0.26911461353302
1781638870368341000,26.842341064453127,2.1592531204223633,-3.8588218688964844,2.668891191482544
1781638870416862700,26.89086279296875,-1.370518684387207,-2.1820478439331055,-2.4774441719055176
1781638870465384400,26.939384521484374,-4.498471736907959,3.542398452758789,-1.770113468170166
1781638870513906400,26.987906494140624,-4.269412040710449,-5.53971004486084,-2.156583547592163
1781638870562428200,27.03642822265625,-3.589883327484131,-7.624944686889648,4.260748386383057
1781638870610949600,27.08494970703125,0.6425694823265076,4.196177005767822,6.414491176605225
1781638870659471600,27.1334716796875,1.0417041778564453,2.6452813148498535,-2.783238410949707
1781638870707993300,27.181993408203127,1.391987681388855,3.0496292114257812,-3.981889247894287
1781638870756515300,27.230515380859377,1.6477539539337158,4.257479667663574,-0.11071550846099854
1781638870805036800,27.279036865234374,0.5663109421730042,2.504025936126709,0.862072765827179
1781638870853558800,27.327558837890624,1.1336004734039307,-7.729464530944824,0.9537599682807922
1781638870902080500,27.37608056640625,1.2645033597946167,-3.84912109375,1.6835663318634033
1781638870999124000,27.4731240234375,1.6321841478347778,3.5264406204223633,-0.5036966800689697
1781638871047646000,27.52164599609375,-0.40639615058898926,1.9736137390136719,-0.21664714813232422
1781638871096167700,27.570167724609377,0.5119621753692627,0.8037166595458984,-6.0214524269104
1781638871144689400,27.618689453125,-0.7166988849639893,2.51082181930542,-2.55319881439209
1781638871193211100,27.667211181640624,1.2397100925445557,0.05973052978515625,1.5062525272369385
1781638871241732900,27.71573291015625,1.637004017829895,0.8363723754882812,2.9620361328125
1781638871290254800,27.7642548828125,2.2204742431640625,2.0622787475585938,1.3599963188171387
1781638871338776600,27.812776611328125,5.325778007507324,1.4669609069824219,1.442516803741455
1781638871387298300,27.86129833984375,2.0140295028686523,-3.135660171508789,2.8648972511291504
1781638871435820000,27.909820068359377,-1.4295896291732788,-3.363471031188965,-2.00990629196167
1781638871484341800,27.958341796875,-3.7126429080963135,3.318612575531006,-1.3930513858795166
1781638871532863500,28.006863525390624,-4.245045185089111,-6.000166893005371,-1.9447141885757446
1781638871581385200,28.05538525390625,-4.063817501068115,-5.783317565917969,2.340325117111206
1781638871629907200,28.1039072265625,0.7060202360153198,3.939600944519043,5.442874431610107
1781638871678429000,28.152428955078125,0.7130169868469238,2.922506332397461,-2.2345354557037354
1781638871726950700,28.20095068359375,1.448873519897461,2.812791347503662,-4.224740982055664
1781638871775472400,28.249472412109377,1.9885607957839966,4.001298427581787,0.07977348566055298
1781638871823994000,28.297994140625,-1.001558780670166,0.8761787414550781,2.19114351272583
1781638871921037000,28.395037109375,0.9804306030273438,-2.18703556060791,3.1459195613861084
1781638871969559600,28.4435595703125,-4.584845542907715,-5.093527793884277,-4.909383773803711
1781638872018081300,28.492081298828126,2.0244505405426025,2.0811047554016113,-0.7817360162734985
1781638872066603000,28.54060302734375,-0.6402747631072998,2.1202712059020996,-1.4993621110916138
1781638872115124700,28.589124755859373,1.3746014833450317,1.8926239013671875,-7.317688941955566
1781638872163646500,28.637646484375,0.018187642097473145,2.45283842086792,-1.2674448490142822
1781638872212168200,28.686168212890625,0.13265717029571533,-1.2477169036865234,2.89522647857666
1781638872260690000,28.73468994140625,1.621806025505066,1.580404281616211,2.0133135318756104
1781638872309211600,28.783211669921876,3.338897228240967,2.0202765464782715,0.3381267189979553
1781638872357733400,28.8317333984375,5.501705169677734,0.7027130126953125,0.9044098258018494
1781638872406255000,28.880255126953124,0.6551108360290527,-3.7757158279418945,3.0733282566070557
1781638872454777000,28.928777099609373,-1.7288737297058105,-1.9724044799804688,-2.2382068634033203
1781638872551820300,29.0258203125,-3.152660369873047,-8.019270896911621,-1.4728378057479858
1781638872600342300,29.07434228515625,-4.457015037536621,-4.878472328186035,5.304421424865723
1781638872648863700,29.12286376953125,1.634121060371399,3.7803077697753906,4.22791862487793
1781638872697385700,29.1713857421875,1.0073307752609253,2.624847888946533,-3.8248965740203857
1781638872745907500,29.219907470703124,1.180185079574585,3.0779519081115723,-3.3871049880981445
1781638872794429200,29.26842919921875,2.1976490020751953,4.661746978759766,-0.027112126350402832
1781638872842951000,29.316950927734375,-1.959841251373291,-0.3338594436645508,1.6220383644104004
1781638872891472100,29.36547216796875,4.672836780548096,-6.850405693054199,-0.2926066219806671
1781638872939994400,29.413994384765626,-0.08085304498672485,-0.9445018768310547,3.4954776763916016
1781638872988516000,29.46251611328125,-5.095160961151123,-5.923541069030762,-5.3592729568481445
1781638873037037800,29.511037841796874,2.254659652709961,3.437230110168457,-0.3383861780166626
1781638873085559600,29.5595595703125,-0.8071917295455933,0.5652608871459961,-0.9086167812347412
1781638873134081300,29.608081298828125,0.12866592407226562,1.602339744567871,-6.812451362609863
1781638873182603000,29.65660302734375,0.3075188398361206,1.8807110786437988,-0.7700818777084351
1781638873231124700,29.705124755859377,1.158804178237915,-0.7148351669311523,2.2702548503875732
1781638873279646500,29.753646484375,2.2350027561187744,1.9131660461425781,2.361758232116699
1781638873328168200,29.802168212890624,2.7290570735931396,2.1118721961975098,2.139594554901123
1781638873376690000,29.85068994140625,5.012041091918945,0.17751407623291016,2.359304904937744
1781638873425211600,29.899211669921876,0.9333295822143555,-3.667074203491211,2.6620166301727295
1781638873473733400,29.9477333984375,-1.433863878250122,-1.275181770324707,-3.0549795627593994
1781638873522255000,29.996255126953123,-4.071194171905518,4.013300895690918,-0.8492491841316223
1781638873570776800,30.04477685546875,-3.882737636566162,-9.183242797851562,-2.141982078552246
1781638873619298600,30.093298583984375,-3.9884896278381348,-4.655329704284668,5.32777738571167
1781638873667820300,30.1418203125,1.8475013971328735,4.475844383239746,4.7797393798828125
1781638873716342000,30.190342041015626,0.7742223739624023,2.2660951614379883,-3.3012189865112305
1781638873764863700,30.23886376953125,1.2533674240112305,2.888329029083252,-3.897080659866333
1781638873813385500,30.287385498046874,2.1280770301818848,4.833164691925049,-0.31647560000419617
1781638873910428400,30.384428466796876,3.886509656906128,-6.31594181060791,0.5125877857208252
1781638873958950700,30.43295068359375,-0.5315012335777283,-2.5790023803710938,3.531191349029541
1781638874007472400,30.481472412109376,-4.046867847442627,-5.520804405212402,-5.54937219619751
1781638874055994000,30.529994140625,1.9646518230438232,3.8513336181640625,-1.266329050064087
1781638874104515800,30.578515869140624,-0.08987677097320557,0.6740665435791016,-2.070420265197754
1781638874201559000,30.67555908203125,-1.2276527881622314,1.769979476928711,-1.7155736684799194
1781638874250081000,30.7240810546875,0.947772204875946,-1.1303691864013672,1.9811832904815674
1781638874298602800,30.772602783203126,2.399216651916504,2.0897669792175293,3.327479362487793
1781638874347124200,30.821124267578124,2.525299310684204,2.190829277038574,1.058054804801941
1781638874395646200,30.869646240234374,5.500848770141602,-0.04867076873779297,1.1510350704193115
1781638874444167700,30.918167724609376,1.990373969078064,-3.944342613220215,3.194035053253174
1781638874492689400,30.966689453125,-1.153214931488037,-2.2213869094848633,-1.2800705432891846
1781638874541211100,31.015211181640623,-4.036430358886719,3.9462952613830566,-2.2264914512634277
1781638874589732900,31.06373291015625,-3.1081628799438477,-4.836621284484863,-2.6443586349487305
1781638874638254600,31.112254638671875,-5.71948766708374,-6.984166145324707,4.43327522277832
1781638874686776300,31.1607763671875,1.3746600151062012,3.1212921142578125,5.3123979568481445
1781638874735298000,31.209298095703126,0.9093427062034607,2.3113317489624023,-2.548527240753174
1781638874783819500,31.257819580078124,1.4193806648254395,3.326962471008301,-3.9816720485687256
1781638874832341500,31.306341552734374,1.905801773071289,5.115447998046875,-0.27356821298599243
1781638874880862700,31.35486279296875,-0.05809831619262695,1.2753143310546875,1.7148551940917969
1781638874977906400,31.451906494140626,2.921935558319092,-1.5787897109985352,3.4953739643096924
1781638875026428200,31.50042822265625,-5.513351917266846,-5.980603218078613,-4.993156433105469
1781638875074950000,31.548949951171874,1.540390968322754,2.514659881591797,-1.0543015003204346
1781638875123471400,31.597471435546876,-0.5919334888458252,1.8863229751586914,0.12764334678649902
1781638875171993300,31.645993408203125,1.1798300743103027,0.7142457962036133,-5.408290863037109
1781638875220514800,31.694514892578123,-1.144316554069519,2.931424617767334,-2.3750832080841064
1781638875269036800,31.743036865234377,0.5024826526641846,-0.7512588500976562,0.9636909365653992
1781638875317558300,31.791558349609375,2.186953544616699,1.1026668548583984,2.405322790145874
1781638875366080000,31.840080078125,2.3118293285369873,2.5374717712402344,2.0531723499298096
1781638875414601500,31.8886015625,4.367457389831543,0.6087703704833984,0.8588870167732239
1781638875463123500,31.93712353515625,2.801359176635742,-3.203693389892578,2.6872427463531494
1781638875511645000,31.98564501953125,-0.47566771507263184,-2.623232841491699,0.575360119342804
1781638875560167000,32.0341669921875,-3.3339450359344482,1.6455135345458984,-0.7572221159934998
1781638875608688400,32.0826884765625,-3.481180429458618,-1.3440637588500977,-3.340484142303467
1781638875657210000,32.131210205078126,-4.6932220458984375,-6.765654563903809,1.0974619388580322
1781638875754253300,32.22825341796875,0.7482357621192932,3.2261438369750977,-0.802009642124176
1781638875802775000,32.276775146484376,1.303301215171814,2.651638984680176,-4.343070030212402
1781638875851297000,32.32529711914062,1.133953332901001,3.962233066558838,-0.23099368810653687
1781638875899818500,32.37381860351562,1.9890415668487549,3.8939590454101562,1.116347074508667
1781638875948340200,32.42234033203125,-2.242668628692627,-7.306793212890625,1.2968450784683228
1781638875996861700,32.47086181640625,5.509633541107178,-2.554112434387207,2.627094268798828
1781638876045383700,32.5193837890625,-4.194647312164307,-4.592277526855469,-2.916205406188965
1781638876093905200,32.5679052734375,-0.4369776248931885,-0.8494663238525391,-2.617145538330078
1781638876142427000,32.61642700195313,0.24584555625915527,2.705747127532959,1.1439883708953857
1781638876190948600,32.66494848632812,0.33519983291625977,0.6260604858398438,-5.061301231384277
1781638876239470300,32.71347021484375,1.0279045104980469,3.3340187072753906,-3.820138931274414
1781638876287991800,32.76199169921875,-0.09904623031616211,0.056715965270996094,1.6299623250961304
1781638876336513500,32.81051342773438,1.0631449222564697,0.7216739654541016,2.252326011657715
1781638876385034800,32.85903466796875,1.7387871742248535,1.396942138671875,1.2529346942901611
1781638876482078500,32.95607836914063,4.177720546722412,-0.9218530654907227,2.1649160385131836
1781638876530600200,33.00460009765625,-0.08314108848571777,-5.005618095397949,1.7947800159454346
1781638876579122000,33.053121826171875,-2.177759885787964,0.034216880798339844,-1.2393815517425537
1781638876627643600,33.1016435546875,-3.8218421936035156,1.4310598373413086,-1.9259822368621826
1781638876676165000,33.1501650390625,-3.502514362335205,-6.502779006958008,-2.568413257598877
1781638876724686800,33.198686767578124,-2.9026713371276855,-1.700571060180664,5.352170467376709
1781638876773208600,33.24720849609375,0.9019137620925903,3.707155704498291,2.035025119781494
1781638876821730300,33.29573022460937,0.9671609401702881,2.698667049407959,-4.090730667114258
1781638876870251800,33.34425170898437,0.9010659456253052,3.006000518798828,-1.4401566982269287
1781638876918773500,33.3927734375,2.3212924003601074,4.287318706512451,0.6155529618263245
1781638876967295200,33.44129516601563,-3.418530225753784,-2.7423439025878906,1.710303544998169
1781638877015816700,33.48981665039062,6.33876371383667,-5.359762191772461,0.9065076112747192
1781638877064338400,33.53833837890625,-2.6724746227264404,-4.1642608642578125,0.912469744682312
1781638877161382000,33.6353818359375,1.3282501697540283,3.8143343925476074,0.9659075736999512
1781638877209903600,33.683903564453125,0.2687337398529053,0.020843505859375,-2.539419174194336
1781638877258425000,33.73242504882813,-0.13976287841796875,2.9567527770996094,-5.850879192352295
1781638877355468500,33.829468505859374,1.4754270315170288,-0.24240875244140625,2.9140865802764893
1781638877403990000,33.877989990234376,1.3542373180389404,1.394805908203125,1.5375887155532837
1781638877452511700,33.92651171875,3.1550159454345703,1.4379892349243164,0.5607492327690125
1781638877501033500,33.97503344726562,5.606696128845215,0.010997772216796875,2.0797719955444336
1781638877549555000,34.023554931640625,0.0407106876373291,-3.920098304748535,3.4343504905700684
1781638877598076700,34.07207666015625,-2.2751078605651855,-1.2870359420776367,-1.0830073356628418
1781638877646598400,34.12059838867187,-3.9829349517822266,1.8051776885986328,-2.5242159366607666
1781638877695120100,34.1691201171875,-3.295560359954834,-6.347650527954102,-2.6729495525360107
1781638877743641600,34.2176416015625,-3.8322858810424805,-2.6931724548339844,5.497150897979736
1781638877792163300,34.26616333007812,1.021875023841858,3.6579294204711914,3.2172937393188477
1781638877840684800,34.31468481445312,1.1766384840011597,2.6767778396606445,-4.002447128295898
1781638877889206500,34.36320654296875,1.2037947177886963,3.203547477722168,-2.2384233474731445
1781638877937728000,34.41172802734375,2.2624127864837646,4.627046585083008,0.9524683952331543
1781638877986250000,34.46025,-2.6415531635284424,-2.613345146179199,1.7496192455291748
1781638878034771500,34.508771484375,5.705075263977051,-5.80678653717041,0.36517536640167236
1781638878083293200,34.55729321289063,-1.8651363849639893,-2.671966552734375,1.859327793121338
1781638878131814700,34.60581469726562,-3.230985164642334,-5.036778450012207,-5.31205940246582
1781638878180336400,34.65433642578125,1.8769099712371826,3.4045772552490234,0.24089038372039795
1781638878228857900,34.70285791015625,-0.4152868986129761,1.0824737548828125,-1.2069497108459473
1781638878325901300,34.7999013671875,-0.8137519359588623,2.2067737579345703,-0.03575015068054199
1781638878374423000,34.848423095703126,0.6843547821044922,-1.1449012756347656,3.0330123901367188
1781638878422944500,34.89694458007813,1.5573914051055908,1.6750926971435547,1.5659739971160889
1781638878471466200,34.94546630859375,2.830106496810913,1.9683761596679688,0.6109620928764343
1781638878519987700,34.99398779296875,5.735748291015625,0.28998374938964844,0.41359132528305054
1781638878568509400,35.04250952148438,0.8948367834091187,-3.7914228439331055,2.3294119834899902
1781638878617031200,35.09103125,-1.9466121196746826,-2.265631675720215,-1.6309490203857422
1781638878665553000,35.139552978515624,-4.798183917999268,2.855787754058838,-0.48401445150375366
1781638878714074400,35.188074462890626,-3.8347887992858887,-7.335781097412109,-1.8775378465652466
1781638878762596000,35.23659619140625,-3.0527284145355225,-3.85906982421875,3.519399642944336
1781638878811117600,35.28511767578125,0.12259653210639954,3.9989681243896484,3.8029162883758545
1781638878859639300,35.333639404296875,0.7593863010406494,3.40720796585083,-1.863025188446045
1781638878908160800,35.382160888671876,1.2151002883911133,3.5240683555603027,-2.791635751724243
1781638878956682500,35.4306826171875,2.5272982120513916,4.227471351623535,0.3652411997318268
1781638879005204000,35.47920385742187,-2.8787009716033936,-2.5295915603637695,2.708592176437378
1781638879053725700,35.5277255859375,5.179356098175049,-6.091303825378418,-0.1981363296508789
1781638879102247200,35.5762470703125,-0.6772875189781189,-1.951918601989746,3.018754482269287
1781638879150769000,35.62476879882813,-4.050404071807861,-4.400165557861328,-4.479444980621338
1781638879199290400,35.67329028320312,1.9242874383926392,2.284735679626465,-0.8651707768440247
1781638879247812000,35.72181201171875,-1.1855493783950806,1.367934226989746,-2.185469388961792
1781638879296333800,35.77033374023438,0.5792407989501953,2.2311668395996094,-5.113398551940918
1781638879344855600,35.81885546875,0.2149120569229126,1.5440893173217773,-0.38001900911331177
1781638879393377000,35.867376953125,0.42519986629486084,-0.7203683853149414,2.379305124282837
1781638879441898800,35.91589868164063,2.142194986343384,1.366429328918457,1.839294195175171
1781638879490420200,35.96442016601563,3.2055392265319824,2.3882761001586914,1.156980037689209
1781638879538941700,36.01294165039062,5.657438278198242,0.7401561737060547,1.7604924440383911
1781638879587463400,36.06146337890625,0.26321351528167725,-4.727994918823242,2.979203701019287
1781638879635985200,36.10998510742188,-1.7423779964447021,-1.5065488815307617,-2.379833698272705
1781638879684506600,36.15850659179687,-3.7728395462036133,3.138199806213379,-0.7082388401031494
1781638879733028400,36.2070283203125,-4.149608135223389,-7.246758460998535,-1.9535980224609375
1781638879781549800,36.2555498046875,-3.3524787425994873,-3.6581859588623047,3.80059552192688
1781638879878593000,36.35259301757812,1.2712775468826294,2.7707414627075195,-3.5868992805480957
1781638879927114800,36.40111474609375,0.9234893918037415,3.4839229583740234,-2.296050786972046
1781638879975636200,36.44963623046875,2.405919313430786,4.7447285652160645,0.6323099732398987
1781638880024158000,36.49815795898437,-3.0988950729370117,-3.0713605880737305,1.6740108728408813
1781638880072679400,36.54667944335937,5.190999984741211,-6.253016471862793,0.16621363162994385
1781638880121201200,36.595201171875,-0.22200143337249756,-1.598337173461914,2.3245091438293457
1781638880169722600,36.64372265625,-3.8468494415283203,-4.25728702545166,-5.38569450378418
1781638880218244400,36.69224438476562,2.092869758605957,2.850001811981201,0.5664145946502686
1781638880266766000,36.74076611328125,-1.6868752241134644,0.7923488616943359,-1.651471495628357
1781638880315287600,36.78928759765625,1.9855536222457886,2.386754035949707,-6.339492321014404
1781638880363809000,36.83780908203125,-0.14288675785064697,1.8722262382507324,1.036358118057251
1781638880412330800,36.88633081054687,-0.05964076519012451,-0.7914791107177734,2.498126983642578
1781638880460852200,36.934852294921875,2.0080366134643555,1.2933616638183594,1.579566240310669
1781638880509374000,36.9833740234375,2.9078259468078613,1.8145365715026855,0.8069759011268616
1781638880557895400,37.0318955078125,5.530088424682617,0.8186492919921875,0.35759207606315613
1781638880606417200,37.080417236328124,0.4993247985839844,-4.294281005859375,2.3764455318450928
1781638880654938600,37.128938720703125,-1.473853588104248,-1.9952831268310547,-2.1563937664031982
1781638880703460400,37.17746044921875,-4.055121421813965,3.6987152099609375,-0.6711751818656921
1781638880751981800,37.22598193359375,-3.6179282665252686,-5.559998512268066,-2.3033716678619385
1781638880800503600,37.274503662109375,-3.693166494369507,-5.396459579467773,3.227569818496704
1781638880849025000,37.32302490234375,0.219203382730484,3.1919198036193848,4.691462516784668
1781638880897546500,37.37154638671875,0.31529858708381653,2.7596874237060547,-2.547299861907959
1781638880946068200,37.42006811523437,1.4255681037902832,3.2550787925720215,-3.3378539085388184
1781638880994590000,37.46858984375,2.2283236980438232,4.4921464920043945,0.8759874105453491
1781638881043111400,37.517111328125,-0.16305282711982727,0.6847944259643555,2.1541152000427246
1781638881091633200,37.56563305664063,0.7885672450065613,-7.358154296875,0.18007558584213257
1781638881140154600,37.61415454101562,2.7529125213623047,-2.9602746963500977,2.6387367248535156
1781638881188676000,37.662676025390624,-4.473114490509033,-3.786442756652832,-4.392531394958496
1781638881237197800,37.71119775390625,0.794581949710846,1.4760923385620117,-0.2200506329536438
1781638881285719300,37.75971923828125,-0.3784034252166748,1.740605354309082,0.1818171739578247
1781638881334241000,37.80824096679687,1.1401666402816772,1.3480920791625977,-4.795390605926514
1781638881382762800,37.8567626953125,0.45511090755462646,3.027981758117676,-1.7380306720733643
1781638881479805700,37.9538056640625,1.4816789627075195,0.664860725402832,1.980183720588684
1781638881528327400,38.002327392578124,2.510004997253418,1.6102333068847656,1.1738331317901611
1781638881576849000,38.050848876953125,5.029918193817139,1.8058710098266602,0.2629813551902771
1781638881625370400,38.09937036132813,1.9906859397888184,-3.027324676513672,2.419130563735962
1781638881673892000,38.14789208984375,-0.8323138952255249,-4.271384239196777,-0.6357368230819702
1781638881722413600,38.19641357421875,-3.974616289138794,3.3820624351501465,-0.057158589363098145
1781638881770935300,38.244935302734376,-2.863938331604004,-2.0001373291015625,-2.102778196334839
1781638881819456800,38.29345678710938,-4.75031852722168,-7.675205230712891,1.1440528631210327
1781638881867978200,38.34197827148437,-0.050010740756988525,2.4704203605651855,5.215689659118652
1781638881916500000,38.3905,0.40565136075019836,2.8971786499023438,-0.3329394459724426
1781638881965021400,38.439021484375,1.3656010627746582,2.8863162994384766,-4.051441669464111
1781638882013543200,38.48754321289063,1.3544445037841797,3.873837471008301,-0.3584194481372833
1781638882062065000,38.53606494140625,1.6491072177886963,3.027409076690674,1.5819497108459473
1781638882110586000,38.584586181640624,-1.5603305101394653,-8.218612670898438,0.1958256959915161
1781638882159107800,38.63310791015625,4.423928260803223,-2.2583608627319336,2.755679130554199
1781638882207629300,38.68162939453125,-4.812487602233887,-4.593277931213379,-2.786851167678833
1781638882256150800,38.73015087890625,0.8536063432693481,0.048023223876953125,-1.865108847618103
1781638882304672500,38.778672607421875,-0.4013235569000244,3.360841751098633,0.355985164642334
1781638882353194000,38.827194091796876,0.7776690125465393,0.17023754119873047,-4.808468341827393
1781638882401715700,38.8757158203125,0.4902588129043579,3.311005115509033,-2.4309983253479004
1781638882450237200,38.9242373046875,-0.3676227331161499,-0.6058149337768555,2.0377604961395264
1781638882498759000,38.972759033203126,2.2914867401123047,1.134913444519043,2.071626663208008
1781638882547280400,39.0212802734375,2.4300577640533447,2.017563819885254,0.6158053278923035
1781638882595801900,39.0698017578125,4.855966567993164,1.4006032943725586,1.2972431182861328
1781638882644323300,39.1183232421875,1.892662763595581,-3.473708152770996,3.263237714767456
1781638882692845000,39.166844970703124,-1.0592622756958008,-3.9777326583862305,-0.31862854957580566
1781638882741366800,39.21536669921875,-3.6897008419036865,3.189009666442871,-0.6802778840065002
1781638882789888300,39.26388818359375,-2.8179855346679688,-2.664609909057617,-3.5057740211486816
1781638882838409700,39.31240966796875,-5.050294399261475,-6.486371040344238,1.9418543577194214
1781638882886931500,39.360931396484375,0.290744811296463,2.241607666015625,4.856357574462891
1781638882935452700,39.40945263671875,0.488620400428772,3.507589340209961,-0.8170697689056396
1781638882983974400,39.45797436523438,1.5342352390289307,3.1692333221435547,-4.151497840881348
1781638883032495900,39.50649584960937,1.7491093873977661,3.5793371200561523,-0.5306954979896545
1781638883129539000,39.6035390625,0.24394996464252472,-7.22835636138916,0.1755199432373047
1781638883178060800,39.65206079101562,2.5885348320007324,-3.358255386352539,2.890594959259033
1781638883226582000,39.70058203125,-4.106757164001465,-4.060067176818848,-4.282320022583008
1781638883275103700,39.749103759765624,0.273215651512146,1.238572120666504,-0.8760539889335632
1781638883323625200,39.797625244140626,-0.0044977664947509766,2.3832554817199707,0.08388876914978027
1781638883372147000,39.84614697265625,1.2977749109268188,0.551823616027832,-4.065682888031006
1781638883420668400,39.89466845703125,0.20920419692993164,2.7150893211364746,-2.0863821506500244
1781638883469190100,39.943190185546875,-0.3726440668106079,-0.4295520782470703,1.2340295314788818
1781638883517711400,39.99171142578125,2.55387544631958,1.0845270156860352,2.5027596950531006
1781638883566233000,40.04023315429688,2.438127040863037,2.2317309379577637,1.2649933099746704
1781638883614754600,40.08875463867187,4.326842308044434,0.988194465637207,-0.30602124333381653
1781638883663276300,40.1372763671875,2.4765512943267822,-3.97869873046875,2.9103314876556396
1781638883711797800,40.1857978515625,-1.1463942527770996,-3.486377716064453,0.1815192550420761
1781638883760319200,40.2343193359375,-3.6405978202819824,2.9062538146972656,-1.0762954950332642
1781638883808840700,40.2828408203125,-2.865854501724243,-0.8622608184814453,-3.263064384460449
1781638883857362400,40.331362548828125,-4.867185115814209,-7.124561309814453,1.0550236701965332
1781638883905884000,40.3798837890625,-0.3618713915348053,1.4133176803588867,5.5180792808532715
1781638883954405400,40.4284052734375,0.49998316168785095,3.2127885818481445,0.0621410608291626
1781638884002926800,40.4769267578125,1.233490228652954,2.6015167236328125,-4.3279876708984375
1781638884051448300,40.5254482421875,1.6746680736541748,3.7561583518981934,-0.7615090608596802
1781638884099970000,40.573969970703125,1.321592092514038,2.873563289642334,1.5179109573364258
1781638884148491800,40.62249169921875,-1.0473084449768066,-7.433677673339844,0.4669199585914612
1781638884197013200,40.67101318359375,4.364933967590332,-2.648484230041504,3.5356383323669434
1781638884245534700,40.71953466796875,-3.8082222938537598,-3.2336997985839844,-2.6178393363952637
1781638884294056200,40.76805615234375,-1.0666593313217163,-0.7635154724121094,-3.19472074508667
1781638884342577700,40.81657763671875,1.114899754524231,3.334420680999756,0.9537237882614136
1781638884391099400,40.86509936523437,-0.27091264724731445,0.1542949676513672,-2.9484622478485107
1781638884439620900,40.91362084960937,-0.03131985664367676,3.1951146125793457,-3.970867395401001
1781638884488142300,40.962142333984374,-0.49096930027008057,0.14258861541748047,1.0702916383743286
1781638884536664000,41.0106640625,1.7372827529907227,0.06142902374267578,2.332526445388794
1781638884585185500,41.059185546875,2.5525147914886475,2.423356056213379,1.687861442565918
1781638884633707000,41.10770703125,3.844111919403076,1.035151481628418,1.3449848890304565
1781638884730750000,41.20475,-0.17185091972351074,-3.531625747680664,1.503187656402588
1781638884779271700,41.25327172851563,-2.599275588989258,1.9377741813659668,-1.4107555150985718
1781638884827793000,41.30179296875,-2.4585859775543213,1.5903196334838867,-3.3328936100006104
1781638884876314600,41.350314697265624,-3.880176067352295,-8.063272476196289,-0.6651808023452759
1781638884924836400,41.39883642578125,-2.525933265686035,-1.1768798828125,5.159270763397217
1781638884973357600,41.44735766601563,1.1329429149627686,3.953855037689209,1.8892362117767334
1781638885021879000,41.49587915039063,1.2752515077590942,3.3001198768615723,-3.2382149696350098
1781638885070400800,41.54440087890625,1.0617951154708862,3.4725170135498047,-1.897254228591919
1781638885118922200,41.592922119140624,2.778348207473755,4.137921333312988,1.663398027420044
1781638885167443700,41.641443603515626,-3.407639265060425,-6.750669479370117,1.3340742588043213
1781638885215965200,41.68996508789063,4.364802837371826,-4.5927734375,1.9477626085281372
1781638885264487000,41.73848681640625,-3.341391086578369,-4.356625556945801,-2.3210864067077637
1781638885313008400,41.78700830078125,-0.1214909553527832,-0.19034290313720703,-2.634911060333252
1781638885361529900,41.83552978515625,1.0874276161193848,2.9857726097106934,0.6082584857940674
1781638885410051300,41.88405126953125,0.9768651127815247,0.31699466705322266,-3.7456202507019043
1781638885458573000,41.93257299804687,-0.08199203014373779,3.3699498176574707,-3.635819435119629
1781638885507094500,41.981094482421874,-0.08355700969696045,0.33858680725097656,0.24996250867843628
1781638885555616000,42.029615966796875,2.346958637237549,0.35650062561035156,3.1985273361206055
1781638885604137500,42.07813745117188,2.3466312885284424,2.3821401596069336,1.3598966598510742
1781638885652659000,42.12665893554688,4.123893737792969,0.9852409362792969,-0.6443901062011719
1781638885701180400,42.17518041992187,3.81988263130188,-3.1762351989746094,1.6894540786743164
1781638885749702100,42.2237021484375,-0.5969384908676147,-4.241884231567383,0.23738209903240204
1781638885798223600,42.2722236328125,-3.254511833190918,1.6269035339355469,0.0071372538805007935
1781638885846745000,42.3207451171875,-4.027919769287109,0.3466520309448242,-2.7308216094970703
1781638885895266600,42.3692666015625,-3.4990861415863037,-6.645308494567871,-0.6662368178367615
1781638885943788300,42.417788330078125,-1.5682580471038818,0.5871620178222656,5.7778191566467285
1781638885992309800,42.466309814453126,0.9930380582809448,2.964120388031006,1.2002382278442383
1781638886040831200,42.51483129882813,1.7097879648208618,2.453817367553711,-4.629534721374512
1781638886089352700,42.56335278320312,1.234875202178955,3.438929557800293,-1.5778007507324219
1781638886137874200,42.61187426757812,1.4760949611663818,3.307553291320801,0.3740841746330261
1781638886186395600,42.660395751953125,-0.7649334073066711,-6.296065330505371,0.058663249015808105
1781638886234917400,42.70891748046875,4.625816822052002,-2.993650436401367,2.2979421615600586
1781638886331960300,42.80596020507812,-0.7994087934494019,-0.30228328704833984,-1.5753912925720215
1781638886380481800,42.854481689453124,0.39639151096343994,4.038480281829834,-0.37207525968551636
1781638886429003300,42.903003173828125,0.6815000772476196,0.1893596649169922,-4.544827461242676
1781638886477524700,42.95152465820313,-0.6420369148254395,2.8397417068481445,-2.261115550994873
1781638886526046200,43.00004614257813,0.006669878959655762,-0.4330177307128906,1.7850853204727173
1781638886574567700,43.04856762695312,2.210275173187256,0.8130016326904297,2.599102020263672
1781638886623089200,43.097089111328124,2.1671876907348633,2.4887495040893555,1.2799382209777832
1781638886671610600,43.145610595703126,4.46385383605957,1.0395212173461914,0.8766997456550598
1781638886720132400,43.19413232421875,2.808842420578003,-3.65828800201416,2.4812824726104736
1781638886768653800,43.24265380859375,-0.5021613836288452,-3.725595474243164,0.2384231984615326
1781638886817175300,43.29117529296875,-3.398925542831421,2.087151527404785,-0.5490111708641052
1781638886865696800,43.33969677734375,-3.4987850189208984,0.4385242462158203,-3.312595844268799
1781638886914218200,43.38821826171875,-4.391159534454346,-7.356649398803711,0.6476186513900757
1781638886962739700,43.43673974609375,-1.6292550563812256,0.03566932678222656,5.423007488250732
1781638887011261200,43.48526123046875,0.9980993866920471,3.150118350982666,1.0142011642456055
1781638887059782700,43.53378271484375,1.0009082555770874,3.4454503059387207,-3.517788887023926
1781638887108304400,43.58230444335938,1.1905298233032227,4.192477226257324,-1.3111844062805176
1781638887156825600,43.63082568359375,2.4211559295654297,3.9353103637695312,0.9350498914718628
1781638887205347300,43.67934741210937,-2.7509970664978027,-6.868508338928223,1.7374544143676758
1781638887253868800,43.727868896484374,4.857252597808838,-3.2960309982299805,3.9708986282348633
1781638887302390300,43.776390380859375,-3.482898235321045,-4.599429130554199,-0.4680156707763672
1781638887350911700,43.82491186523438,-0.8265441656112671,-0.9287271499633789,-3.750545024871826
1781638887399433200,43.87343310546875,0.6865888833999634,3.0373449325561523,-0.7842051982879639
1781638887447954700,43.92195458984375,-0.7589327096939087,-0.9290761947631836,-3.8136844635009766
1781638887496476200,43.97047607421875,2.050844669342041,3.523533344268799,-1.822860598564148
1781638887544997600,44.01899755859375,-1.7231783866882324,1.2273597717285156,0.6108843088150024
1781638887593519000,44.06751904296875,1.560560703277588,-0.4038829803466797,-0.03331775963306427
1781638887642040800,44.11604077148438,3.4092841148376465,3.0452303886413574,2.134819984436035
1781638887690562000,44.16456201171875,3.138301372528076,0.8253374099731445,2.7816662788391113
1781638887739083800,44.213083740234374,3.344240188598633,-2.23606014251709,1.5217686891555786
1781638887787605000,44.26160498046875,0.7373731136322021,-3.6748456954956055,1.890815258026123
1781638887836126700,44.31012670898438,-1.828827142715454,0.11350059509277344,-1.1115379333496094
1781638887933169700,44.40716967773437,-3.7443745136260986,-5.650931358337402,-1.4636473655700684
1781638887981691100,44.455691162109375,-2.4915030002593994,-1.076279640197754,4.169482231140137
1781638888030212600,44.504212646484376,0.785219132900238,3.119835376739502,2.133817195892334
1781638888078734000,44.55273413085938,0.8864995241165161,3.5764217376708984,-2.585537910461426
1781638888127255600,44.60125561523437,1.0656814575195312,3.5501880645751953,-1.250035047531128
1781638888175777000,44.64977709960937,2.2520294189453125,4.153371334075928,1.2854069471359253
1781638888224298500,44.698298583984375,-3.515864849090576,-4.6779584884643555,0.6715490818023682
1781638888272820000,44.746820068359376,5.008157253265381,-4.646455764770508,1.030319094657898
1781638888321341400,44.79534155273438,-4.249875068664551,-4.8785505294799805,1.2753329277038574
1781638888418384400,44.89238427734375,-1.4112164974212646,-0.26513004302978516,-2.509852886199951
1781638888466905900,44.94090576171875,0.6058295965194702,-0.3691530227661133,-5.090407848358154
1781638888515427300,44.98942724609375,1.0893346071243286,2.5981712341308594,-1.231405258178711
1781638888563948800,45.03794873046875,-0.5379079580307007,1.3421754837036133,0.03789997100830078
1781638888612470500,45.08647045898437,2.1042816638946533,-0.056143760681152344,1.5363816022872925
1781638888660991700,45.13499169921875,2.5400290489196777,3.08590030670166,1.8395764827728271
1781638888709513200,45.18351318359375,3.3729515075683594,2.2982215881347656,1.4835641384124756
1781638888758034700,45.23203466796875,4.348390579223633,-2.7026214599609375,2.934131622314453
1781638888806556200,45.28055615234375,1.0044761896133423,-3.4003992080688477,3.0179615020751953
1781638888855077600,45.32907763671875,-3.7185094356536865,-0.36199188232421875,2.3745548725128174
1781638888903599000,45.37759912109375,-4.801812171936035,-2.2016992568969727,-4.642890453338623
1781638888952120800,45.426120849609376,-3.633847713470459,-5.72666072845459,2.571229934692383
1781638889000642000,45.47464208984375,-1.9381076097488403,0.48338890075683594,4.525270938873291
1781638889049163500,45.52316357421875,1.7690234184265137,3.6727662086486816,-0.8034767508506775
1781638889097685000,45.57168505859375,0.7266096472740173,3.170210838317871,-1.0829535722732544
1781638889146206500,45.62020654296875,1.0698221921920776,4.156311511993408,0.6141126155853271
1781638889194728000,45.66872802734375,2.7742061614990234,5.109136581420898,1.1852424144744873
1781638889243249700,45.71724975585938,-2.2637147903442383,-0.3944244384765625,3.2454147338867188
1781638889291771000,45.76577099609375,2.253674268722534,-5.280008316040039,1.2466057538986206
1781638889340292400,45.81429223632812,-0.15118035674095154,-2.2964677810668945,4.8408708572387695
1781638889388813800,45.86281372070312,-3.125333070755005,-6.947113990783691,-6.019528865814209
1781638889437335300,45.911335205078124,2.3468692302703857,2.7573704719543457,-5.102184772491455
1781638889534378200,46.00837817382813,-0.19501805305480957,0.49576568603515625,-3.8322973251342773
1781638889582899700,46.05689965820312,1.5975406169891357,2.830951690673828,-1.1110773086547852
1781638889631421200,46.10542114257812,-1.6282347440719604,0.6199188232421875,1.5930397510528564
1781638889679942700,46.153942626953125,3.679068088531494,2.249640464782715,-0.0334094762802124
1781638889728464100,46.202464111328126,3.4657087326049805,2.6053543090820312,-0.7773755192756653
1781638889776985300,46.2509853515625,5.18061637878418,-0.27611541748046875,1.4984891414642334
1781638889825507000,46.29950708007812,1.5637140274047852,-5.397909164428711,4.192665100097656
1781638889874028300,46.3480283203125,-0.37658798694610596,-1.5755949020385742,-0.04812219738960266
1781638889922550000,46.396550048828125,-3.5070090293884277,2.0894570350646973,-1.832916021347046
1781638889971071200,46.4450712890625,-3.619588613510132,-4.353468894958496,-1.1491985321044922
1781638890019593000,46.49359301757813,-4.440573692321777,-4.9239301681518555,2.9957332611083984
1781638890068114400,46.54211450195312,0.9074309468269348,3.4911751747131348,0.9275401830673218
1781638890116635600,46.5906357421875,0.39845791459083557,2.52197265625,-1.785012125968933
1781638890165157000,46.6391572265625,0.8320703506469727,3.8982691764831543,-1.2777040004730225
1781638890213678800,46.68767895507813,2.3505067825317383,4.922447204589844,-0.7136922478675842
1781638890262200300,46.73620043945313,-0.2712201178073883,0.7124032974243164,1.906074047088623
1781638890310721500,46.78472143554688,1.9186381101608276,-8.100908279418945,-1.2853713035583496
1781638890359243000,46.83324291992187,-0.835197389125824,-5.423467636108398,0.7258274555206299
1781638890407764500,46.881764404296874,0.6687707901000977,-0.4539003372192383,-3.119997501373291
1781638890456286000,46.930285888671875,-0.3644822835922241,1.6647615432739258,-1.2094247341156006
1781638890504807400,46.97880737304688,-0.011908411979675293,-2.166210174560547,-2.80613374710083
1781638890553329000,47.02732885742188,1.7440335750579834,1.8588829040527344,-3.324338912963867
1781638890601850400,47.07585034179687,0.27325284481048584,2.8839588165283203,0.19746780395507812
1781638890650371800,47.124371826171874,0.018206000328063965,2.014653205871582,-0.8769968152046204
1781638890698893300,47.172893310546876,1.9288430213928223,1.3763999938964844,1.0304688215255737
1781638890747414800,47.22141479492188,2.771052122116089,1.9633545875549316,-0.6722562909126282
1781638890795936000,47.26993603515625,5.536596775054932,-0.43003273010253906,-0.4074136018753052
1781638890892979000,47.36697900390625,-1.92772376537323,-2.342099189758301,-0.9743655920028687
1781638890941500400,47.41550048828125,-3.0985915660858154,2.3086977005004883,-1.3968955278396606
1781638890990022000,47.46402197265625,-2.198568344116211,-3.6922378540039062,-2.039494037628174
1781638891038543400,47.51254345703125,-5.416283130645752,-5.5620880126953125,4.059023857116699
1781638891135586300,47.60958642578125,0.6692200303077698,2.6563339233398438,-1.8566606044769287
1781638891184107500,47.658107421875,1.0623438358306885,3.5613722801208496,-2.1673660278320312
1781638891232629000,47.70662890625,1.9069738388061523,4.952004432678223,-0.4882718026638031
1781638891281150500,47.755150390625,0.6205785274505615,2.1452808380126953,0.9718577265739441
1781638891329672000,47.803671875,0.5635075569152832,-8.29731559753418,-0.3256669044494629
1781638891378193200,47.85219311523438,1.4856023788452148,-1.9562921524047852,3.543595790863037
1781638891426715000,47.90071484375,-2.393127202987671,-3.5351266860961914,-3.5585806369781494
1781638891475236000,47.949236083984374,0.7906201481819153,0.6922616958618164,-1.9749295711517334
1781638891523757800,47.9977578125,-1.1072204113006592,-0.7586660385131836,-1.797804355621338
1781638891572279000,48.04627905273438,1.4341814517974854,0.48260498046875,-4.737651348114014
1781638891620800500,48.09480053710938,0.06172537803649902,3.2896995544433594,-1.304756999015808
1781638891669322000,48.14332202148437,-1.1068859100341797,0.9305973052978516,-0.7248468399047852
1781638891717843500,48.191843505859374,2.2063961029052734,1.526071548461914,0.6530436277389526
1781638891766364700,48.24036474609375,3.8830366134643555,3.5003504753112793,1.758760929107666
1781638891814886400,48.28888647460938,4.374790191650391,-0.26583099365234375,2.6929240226745605
1781638891863407900,48.33740795898437,1.3058054447174072,-5.631411552429199,3.9976344108581543
1781638891911929000,48.38592919921875,0.8239092826843262,-3.1096601486206055,0.44326141476631165
1781638891960450600,48.43445043945312,-1.9890925884246826,2.5098958015441895,-1.323301911354065
1781638892008972000,48.482971923828124,-2.881795644760132,-0.9008035659790039,-2.974414587020874
1781638892057493500,48.531493408203126,-4.465322971343994,-6.981578826904297,0.933289647102356
1781638892106014700,48.5800146484375,-1.2433202266693115,1.2540321350097656,3.521650791168213
1781638892154536400,48.62853637695312,1.3218039274215698,3.597324848175049,-0.6594812870025635
1781638892203057700,48.6770576171875,0.7077722549438477,3.6780872344970703,-2.5622363090515137
1781638892251579100,48.7255791015625,1.6588391065597534,4.220273494720459,-1.375023603439331
1781638892300100600,48.7741005859375,2.052847146987915,3.333184242248535,0.7903996109962463
1781638892348622000,48.8226220703125,-2.5650925636291504,-8.097359657287598,1.077832579612732
1781638892397143300,48.87114331054688,3.9496350288391113,-2.81398868560791,3.2195932865142822
1781638892445665000,48.9196650390625,-3.0120580196380615,-4.373106002807617,-1.4976240396499634
1781638892494186200,48.96818627929687,0.5128014087677002,0.019997596740722656,-3.8938560485839844
1781638892542707700,49.016707763671874,0.28841304779052734,0.6517858505249023,-1.240472674369812
1781638892591229200,49.065229248046876,0.4693875312805176,-0.2111530303955078,-3.6454997062683105
1781638892639750700,49.11375073242188,1.7628083229064941,3.458280086517334,-1.6108980178833008
1781638892736793300,49.21079345703125,1.7440762519836426,0.7072057723999023,0.542885422706604
1781638892785314800,49.25931469726562,2.731802463531494,2.7046313285827637,1.7655177116394043
1781638892833836300,49.307836181640624,4.2295026779174805,0.3139810562133789,2.1981754302978516
1781638892882357500,49.356357421875,3.6518430709838867,-3.6129751205444336,2.8707666397094727
1781638892930879000,49.40487890625,0.3845010995864868,-4.344674110412598,1.5952023267745972
1781638892979400400,49.453400390625,-2.2108314037323,1.5426025390625,-1.210585117340088
1781638893027922000,49.501921875,-3.223080635070801,0.812469482421875,-3.5455880165100098
1781638893076443100,49.55044311523437,-4.1901350021362305,-6.087566375732422,-0.8490122556686401
1781638893124964600,49.598964599609374,-2.499018430709839,0.0936422348022461,4.530423164367676
1781638893173486000,49.647486083984376,0.09976831078529358,2.7270565032958984,1.1389853954315186
1781638893222007600,49.69600756835938,0.833237886428833,3.599149227142334,-2.357725143432617
1781638893270529000,49.74452905273437,1.306485652923584,4.683393955230713,-0.6432719230651855
1781638893319050200,49.79305029296875,2.325745105743408,4.063227653503418,0.7401480674743652
1781638893367571700,49.84157177734375,-2.4174399375915527,-7.88681697845459,0.8758529424667358
1781638893416093200,49.89009326171875,3.7533085346221924,-3.307662010192871,3.004380464553833
1781638893464614400,49.938614501953126,-3.538832426071167,-4.359896659851074,-1.6343038082122803
1781638893513135900,49.98713598632813,-0.16618096828460693,-0.25972652435302734,-2.7405338287353516
1781638893561657300,50.0356572265625,-0.31640625,1.3473596572875977,-1.2787690162658691
1781638893610178800,50.0841787109375,0.4904208183288574,-0.08647632598876953,-4.297554016113281
1781638893658700000,50.13269995117187,1.154528021812439,3.6561617851257324,-1.2837779521942139
1781638893707221500,50.181221435546874,-1.8562326431274414,1.3637256622314453,-0.5317418575286865
1781638893755743200,50.2297431640625,2.2262442111968994,-0.42609119415283203,0.8499637842178345
1781638893804264400,50.27826440429688,2.9740047454833984,2.502901077270508,2.0150961875915527
1781638893852786000,50.32678588867188,4.531213283538818,1.769392490386963,1.6053515672683716
1781638893901307100,50.37530712890625,2.74226975440979,-3.9022531509399414,4.346601486206055
1781638893949828600,50.42382861328125,0.1287018060684204,-3.3421382904052734,1.6948589086532593
1781638893998350000,50.47235009765625,-1.988171100616455,2.3254055976867676,-1.5982218980789185
1781638894046871600,50.52087158203125,-3.2637031078338623,-1.4016265869140625,-2.420128345489502
1781638894095392800,50.56939282226563,-4.653470516204834,-7.313328742980957,0.3575895428657532
1781638894143914200,50.61791430664063,-1.7429383993148804,0.8070869445800781,4.243288993835449
1781638894192435500,50.666435546875,1.2775390148162842,3.260138988494873,0.0431671142578125
1781638894240957200,50.714957275390624,0.6415407657623291,3.9456796646118164,-2.8246030807495117
1781638894338000000,50.811999755859375,1.8419071435928345,3.556058883666992,0.8435198068618774
1781638894386521000,50.86052099609375,-1.1287785768508911,-7.567705154418945,0.3130037188529968
1781638894435042800,50.90904272460938,2.6540913581848145,-4.840349197387695,2.4801042079925537
1781638894483564000,50.95756396484375,-2.9381964206695557,-4.009687423706055,-2.020712375640869
1781638894532085500,51.00608544921875,-0.046930909156799316,1.659555435180664,-0.920251190662384
1781638894580606700,51.054606689453124,-0.22686457633972168,-1.9096317291259766,-2.600684642791748
1781638894629128400,51.10312841796875,1.106701135635376,2.1939663887023926,-4.455035209655762
1781638894677649700,51.15164965820313,0.9496466517448425,4.124683856964111,-0.17378199100494385
1781638894726171100,51.20017114257813,-0.6140118837356567,1.7559843063354492,0.2121352255344391
1781638894774692400,51.2486923828125,1.5880799293518066,0.5492954254150391,1.1256746053695679
1781638894823213800,51.2972138671875,2.1691105365753174,1.2843189239501953,1.9859768152236938
1781638894871735000,51.34573510742187,5.052576065063477,1.3476266860961914,0.3078218698501587
1781638894920256500,51.394256591796875,2.9885032176971436,-3.182745933532715,2.8184218406677246
1781638894968778000,51.44277807617188,0.09581911563873291,-3.656618118286133,0.32475733757019043
1781638895017299500,51.49129956054688,-2.721439838409424,1.8283090591430664,-0.022464364767074585
1781638895065820700,51.53982055664063,-3.5286598205566406,-1.5930814743041992,-1.322378158569336
1781638895114342100,51.58834204101562,-4.617917060852051,-7.063196182250977,-0.617755651473999
1781638895162863600,51.63686352539062,-0.589596688747406,1.5499544143676758,4.112180709838867
1781638895211385000,51.685385009765625,0.25896281003952026,3.470953941345215,0.4507572054862976
1781638895259906300,51.73390625,0.47956275939941406,3.504922866821289,-3.1456146240234375
1781638895308427800,51.782427734375,0.9849708676338196,3.90775728225708,-0.925778865814209
1781638895356949000,51.83094897460938,2.506284475326538,3.85335636138916,1.3691359758377075
1781638895405470500,51.87947045898437,-2.1305510997772217,-8.479199409484863,1.7288293838500977
1781638895453992000,51.92799194335937,3.1551735401153564,-3.0848045349121094,3.258124589920044
1781638895502513400,51.976513427734375,-3.0588436126708984,-4.061117172241211,-2.5115151405334473
1781638895551034600,52.02503466796875,0.11848902702331543,0.544856071472168,-3.584648609161377
1781638895599556000,52.07355615234375,-0.5625835657119751,0.13263607025146484,-2.100966453552246
1781638895648077600,52.12207763671875,1.0415784120559692,0.2516136169433594,-3.976235866546631
1781638895696598800,52.17059887695312,1.7403700351715088,3.1658496856689453,-1.221490740776062
1781638895745120300,52.21912036132812,-1.5472723245620728,1.3093633651733398,0.551222562789917
1781638895842163000,52.316162841796874,2.8780808448791504,2.864201545715332,1.677897572517395
1781638895890684400,52.364684326171876,4.97025728225708,1.443486213684082,1.9230464696884155
1781638895939206000,52.41320581054688,2.5370898246765137,-4.826987266540527,3.796286106109619
1781638895987727000,52.46172705078125,-0.5879102945327759,-3.241434097290039,1.1647697687149048
1781638896036248600,52.51024853515625,-2.2989661693573,3.123833179473877,-1.1895678043365479
1781638896084769800,52.55876977539062,-2.929917573928833,-2.7940425872802734,-3.7210819721221924
1781638896133291300,52.607291259765624,-5.089639186859131,-7.454799652099609,2.348038673400879
1781638896181812700,52.655812744140626,-0.6504174470901489,2.0413475036621094,4.257293224334717
1781638896230334200,52.70433422851563,0.945480465888977,3.687946319580078,-1.404947280883789
1781638896278855400,52.75285546875,0.8924564719200134,4.024293899536133,-3.157618761062622
1781638896327377000,52.801376953125,1.774849534034729,4.130611896514893,-1.1991708278656006
1781638896375898000,52.84989819335937,0.5458275675773621,2.5918736457824707,1.2373473644256592
1781638896424419600,52.898419677734374,-0.3336682617664337,-8.027694702148438,0.026001721620559692
1781638896472941000,52.946941162109376,1.9770236015319824,-2.9880475997924805,3.9208884239196777
1781638896521462500,52.99546264648438,-3.56050968170166,-4.776524543762207,-3.493821382522583
1781638896569983700,53.04398364257813,0.569161057472229,1.972151756286621,-1.758026123046875
1781638896618505200,53.09250512695313,-0.9692704677581787,-1.322901725769043,-1.7183244228363037
1781638896667026400,53.1410263671875,1.7275861501693726,1.5841178894042969,-4.862958908081055
1781638896715548000,53.1895478515625,0.9790953397750854,4.301374435424805,0.17920434474945068
1781638896764069000,53.23806909179687,-1.0696660280227661,0.7297992706298828,0.34612488746643066
1781638896812590600,53.286590576171875,2.191433906555176,1.2113256454467773,1.387019157409668
1781638896861112000,53.33511206054688,2.8669490814208984,1.625596046447754,2.680720806121826
1781638896909633500,53.38363354492188,4.678211688995361,-0.6958351135253906,2.3667893409729004
1781638896958154800,53.43215478515625,2.2873284816741943,-4.708095550537109,5.2402825355529785
1781638897006676200,53.48067626953125,-0.16309082508087158,-1.8874244689941406,-1.2239669561386108
1781638897055197400,53.52919750976562,-2.447549819946289,4.4543657302856445,-3.243183135986328
1781638897103719000,53.577718994140625,-2.9416110515594482,-3.6598358154296875,-2.035249710083008
1781638897152240000,53.626240234375,-5.3095526695251465,-7.649284362792969,0.3931991755962372
1781638897200761600,53.67476171875,-0.24133585393428802,2.6805267333984375,4.340546607971191
1781638897249282800,53.72328271484375,0.8229328393936157,4.164728164672852,-0.3399156332015991
1781638897297804300,53.77180419921875,1.2679550647735596,3.55165958404541,-2.6179392337799072
1781638897394847200,53.86884716796875,0.38284337520599365,2.6059927940368652,1.496558427810669
1781638897443368400,53.917368408203124,0.7016174793243408,-9.371546745300293,-0.014014363288879395
1781638897491890000,53.965889892578126,-0.9665282964706421,-4.873993873596191,3.0381031036376953
1781638897540411100,54.0144111328125,-0.3203740119934082,-1.7670164108276367,-4.080533981323242
1781638897588932600,54.0629326171875,-0.6238771677017212,1.13818359375,-1.4132955074310303
1781638897637454000,54.1114541015625,0.06185603141784668,-1.4294614791870117,-2.7218775749206543
1781638897685975300,54.15997534179687,2.230836868286133,2.6631579399108887,-3.53924298286438
1781638897734496500,54.20849658203125,0.7018646597862244,3.3071937561035156,1.080808162689209
1781638897783018000,54.25701806640625,0.6345183849334717,1.6357641220092773,0.424307644367218
1781638897831539200,54.305539306640625,1.8862512111663818,1.2071523666381836,1.7228398323059082
1781638897880060700,54.35406079101563,3.6185574531555176,1.151850700378418,1.3900279998779297
1781638897928582100,54.40258203125,5.408888816833496,-0.34510040283203125,1.3439137935638428
1781638898025624800,54.49962475585937,-1.8305673599243164,-1.4232425689697266,-2.0940396785736084
1781638898074146300,54.548146240234374,-3.6028175354003906,0.3939828872680664,-0.931513249874115
1781638898122667800,54.596667724609375,-3.590590238571167,-5.700286865234375,-1.4364941120147705
1781638898171189000,54.64518896484375,-2.5938010215759277,-1.2241535186767578,4.056682586669922
1781638898219710500,54.69371044921875,1.0238056182861328,3.5577025413513184,1.4978435039520264
1781638898268231700,54.74223168945313,0.5744972229003906,3.3863844871520996,-2.802553415298462
1781638898316753000,54.7907529296875,1.5417311191558838,3.956552505493164,-1.670630693435669
1781638898365274400,54.8392744140625,2.5046632289886475,4.6172895431518555,0.05391579866409302
1781638898413795800,54.8877958984375,-1.9284870624542236,-3.711541175842285,0.033026933670043945
1781638898462317000,54.936317138671875,5.373475551605225,-4.277976989746094,3.204530715942383
1781638898510838500,54.984838623046876,-4.937395095825195,-6.066235542297363,0.4294416904449463
1781638898559359700,55.03335986328125,-0.2216353416442871,-1.1001825332641602,-3.630153179168701
1781638898607881200,55.08188110351563,-1.0242432355880737,-0.4394712448120117,-2.7195537090301514
1781638898656402400,55.13040234375,0.6245872974395752,0.17146873474121094,-4.372689723968506
1781638898704924000,55.178923828125,1.0656607151031494,4.520293235778809,-2.1759636402130127
1781638898753445000,55.22744506835937,-1.9707406759262085,1.0061359405517578,-1.041174292564392
1781638898801966600,55.275966552734374,3.624565362930298,1.0650453567504883,1.250349998474121
1781638898850487800,55.32448779296875,2.851996421813965,3.842154026031494,3.290886640548706
1781638898899009300,55.37300927734375,4.026454925537109,-0.9468212127685547,1.1145591735839844
1781638898996052000,55.47005200195313,0.5258736610412598,-2.4808692932128906,-0.2327607274055481
1781638899044573200,55.5185732421875,-2.4524121284484863,4.602682590484619,-0.11198064684867859
1781638899093094700,55.5670947265625,-3.509007453918457,-3.704014778137207,-1.6077347993850708
1781638899141615900,55.615615966796874,-5.067720413208008,-8.602072715759277,-0.18663854897022247
1781638899190137300,55.664137451171875,-0.5665076971054077,2.5039567947387695,4.221624374389648
1781638899238658600,55.712658447265625,0.4774947464466095,3.564197063446045,-0.00545269250869751
1781638899287180000,55.761179931640626,1.0681513547897339,3.695861339569092,-3.06496524810791
1781638899335701200,55.809701171875,1.4098315238952637,4.045470714569092,-0.850385308265686
1781638899384222700,55.85822265625,1.2255439758300781,3.230714797973633,1.0050477981567383
1781638899432744000,55.90674389648437,0.025834351778030396,-7.720213890075684,-0.544171929359436
1781638899481265400,55.95526538085937,2.6686019897460938,-3.269876480102539,4.195275783538818
1781638899529786600,56.00378662109375,-4.0056376457214355,-5.039839744567871,-3.008477210998535
1781638899578308000,56.05230810546875,0.37129485607147217,1.8246097564697266,-2.463562488555908
1781638899626829300,56.100829345703126,-0.993444561958313,-0.9243125915527344,-2.248192310333252
1781638899675350800,56.14935083007813,1.23521089553833,0.6179132461547852,-2.9731600284576416
1781638899723872000,56.1978720703125,0.8330222368240356,4.436445713043213,-0.2873002886772156
1781638899772393500,56.2463935546875,-1.030799150466919,1.4613513946533203,0.22768056392669678
1781638899820914700,56.29491479492187,1.9823100566864014,0.7993183135986328,1.1893572807312012
1781638899869436200,56.343436279296874,2.2866313457489014,2.328597068786621,1.8132212162017822
1781638899917957400,56.391957275390624,5.154962062835693,0.404205322265625,1.1724698543548584
1781638899966478800,56.440478759765625,2.048363208770752,-4.725874900817871,2.5548219680786133
1781638900015000000,56.489,0.9911912083625793,-3.142396926879883,0.2822872996330261
1781638900063521500,56.537521484375,-2.3842411041259766,3.0434212684631348,-0.8211155533790588
1781638900112042800,56.58604272460938,-3.3163490295410156,-0.4904937744140625,-0.8317079544067383
1781638900160564200,56.63456420898437,-3.8382809162139893,-7.575868606567383,-0.96748948097229
1781638900209085400,56.68308544921875,-1.4218026399612427,1.281315803527832,4.20170783996582
1781638900257607000,56.73160693359375,0.7847141027450562,2.880763053894043,0.48251914978027344
1781638900306128100,56.780128173828125,0.2624140977859497,3.637845516204834,-3.3280181884765625
1781638900354649600,56.828649658203126,1.039557933807373,3.5871524810791016,-0.9861261248588562
1781638900403170800,56.8771708984375,1.8432817459106445,3.7000279426574707,0.858436644077301
1781638900451692300,56.9256923828125,-0.1737528145313263,-7.669593811035156,0.0372883677482605
1781638900500213800,56.9742138671875,3.4304189682006836,-2.536553382873535,4.77610445022583
1781638900597256200,57.07125610351562,0.3318024277687073,0.3353004455566406,-2.841289758682251
1781638900645777700,57.119777587890624,-0.6078231334686279,0.18977737426757812,-1.8165937662124634
1781638900694299000,57.168298828125,0.40328729152679443,0.047588348388671875,-4.500882148742676
1781638900742820000,57.216820068359375,1.1155872344970703,3.793724536895752,-1.4394782781600952
1781638900791341600,57.26534155273438,-1.3971996307373047,1.5021533966064453,-0.18793770670890808
1781638900839862800,57.31386279296875,1.6911066770553589,0.6021862030029297,0.6708379983901978
1781638900888384000,57.36238403320313,2.7417914867401123,2.9269280433654785,1.9418590068817139
1781638900936905500,57.41090551757812,4.464048385620117,0.9759092330932617,1.7355765104293823
1781638900985427000,57.459427001953124,2.7685489654541016,-3.8725738525390625,2.9805655479431152
1781638901033948200,57.5079482421875,1.3524281978607178,-3.089064598083496,1.4327771663665771
1781638901082469600,57.5564697265625,-2.500570774078369,1.985391616821289,-1.4433512687683105
1781638901130990800,57.604990966796876,-3.634751081466675,-0.1800861358642578,-0.9839922189712524
1781638901179512000,57.653511962890626,-4.583741188049316,-9.03972053527832,-1.9919195175170898
1781638901228033500,57.70203344726563,-1.5966376066207886,0.3321714401245117,4.881819725036621
1781638901276555000,57.75055493164062,0.8210927248001099,3.2229437828063965,1.7886273860931396
1781638901325076200,57.799076171875,0.625304102897644,3.7759146690368652,-2.8709990978240967
1781638901373597400,57.84759741210937,1.4067039489746094,3.8268918991088867,-0.5664498805999756
1781638901422118700,57.89611865234375,2.649563789367676,5.1524529457092285,1.1321558952331543
1781638901470640000,57.94464013671875,-1.6701686382293701,-6.573797225952148,1.138980507850647
1781638901519161300,57.993161376953125,3.8289411067962646,-3.9790048599243164,2.6685166358947754
1781638901567682800,58.04168286132813,-4.776356220245361,-5.715208053588867,-1.8342055082321167
1781638901616204000,58.0902041015625,0.8263067603111267,0.6811885833740234,-2.5243020057678223
1781638901664725500,58.1387255859375,-1.0267269611358643,-0.39078617095947266,-1.513904094696045
1781638901713246700,58.18724682617187,0.6652289628982544,0.3924245834350586,-4.876771450042725
1781638901761768200,58.235768310546874,1.3738105297088623,4.290572166442871,-1.016240119934082
1781638901810289400,58.28428930664062,-1.2633188962936401,1.8738079071044922,-0.6919670701026917
1781638901858811000,58.332810791015625,2.7774641513824463,0.3823518753051758,0.9399055242538452
1781638901907332000,58.38133203125,2.5142714977264404,2.2237462997436523,4.342132568359375
1781638901955853300,58.429853271484376,4.090863227844238,0.418304443359375,1.5428707599639893
1781638902004374500,58.47837451171875,2.593761444091797,-4.579097747802734,3.7447733879089355
1781638902052896000,58.52689599609375,-0.006377577781677246,-2.2365598678588867,1.3758087158203125
1781638902149938700,58.62393872070312,-3.8416366577148438,-2.374601364135742,-3.449167251586914
1781638902198460000,58.6724599609375,-4.844322204589844,-6.42331600189209,0.791969895362854
1781638902246981400,58.7209814453125,-1.0726606845855713,1.2229442596435547,5.310423851013184
1781638902295502600,58.769502685546875,1.2914572954177856,3.417764663696289,-0.7106098532676697
1781638902344023800,58.81802392578125,0.7549864053726196,3.529301643371582,-3.227297782897949
1781638902392545000,58.866544921875,1.0386879444122314,4.409801483154297,-1.0452958345413208
1781638902441066500,58.91506640625,1.7936806678771973,4.419330596923828,1.225759506225586
1781638902489587700,58.96358764648438,-1.1443654298782349,-7.225262641906738,1.0448553562164307
1781638902538109200,59.01210913085937,2.613459587097168,-4.172652244567871,4.261048316955566
1781638902586630400,59.06063037109375,-3.1460771560668945,-5.23176383972168,-3.0657238960266113
1781638902635152000,59.10915185546875,0.7859718203544617,2.143181800842285,-1.7702937126159668
1781638902683673000,59.157673095703124,-1.0065600872039795,-1.4467811584472656,-2.03224515914917
1781638902732194300,59.2061943359375,1.0280119180679321,0.7196464538574219,-4.192564010620117
1781638902780715500,59.254715576171876,1.1352654695510864,3.4439005851745605,-1.2049322128295898
1781638902829237000,59.30323706054688,-0.7313555479049683,2.0380287170410156,-0.4149162471294403
1781638902877758200,59.35175830078125,1.6993714570999146,0.5172080993652344,1.2424060106277466
1781638902926279700,59.40027978515625,1.8981331586837769,2.298394203186035,2.1645286083221436
1781638902974801000,59.44880078125,4.468416690826416,1.4716415405273438,1.6551353931427002
1781638903023322400,59.497322265625,3.5653553009033203,-3.634396553039551,2.976717948913574
1781638903071843600,59.545843505859374,0.2463698387145996,-3.65592098236084,1.7359308004379272
1781638903120364800,59.59436474609375,-2.3156590461730957,1.9849929809570312,-2.0849857330322266
1781638903168886000,59.642885986328125,-2.9266226291656494,-0.292388916015625,-2.014582395553589
1781638903217407500,59.691407470703126,-4.766467571258545,-8.310930252075195,-0.8896437287330627
1781638903265928700,59.7399287109375,-1.95563805103302,0.1368398666381836,5.478963851928711
1781638903314450200,59.7884501953125,1.3560142517089844,3.070507049560547,0.7174670696258545
1781638903362971400,59.83697143554687,0.7231081128120422,3.3532676696777344,-3.607879638671875
1781638903411492900,59.88549291992187,1.3327540159225464,4.535191059112549,-1.1267383098602295
1781638903460013800,59.93401391601562,2.8581905364990234,5.457329750061035,0.11102035641670227
1781638903508535300,59.982535400390624,-2.2863900661468506,-5.350598335266113,0.6664105653762817
1781638903557056500,60.031056396484374,4.174888610839844,-4.65371036529541,3.4715476036071777
1781638903605578000,60.079577880859375,-3.4380269050598145,-6.624547958374023,-0.7353734970092773
1781638903702620700,60.17662060546875,0.3025764226913452,1.8512811660766602,-0.3789680302143097
1781638903751142000,60.22514184570313,-0.16155755519866943,-2.1764469146728516,-4.147103309631348
1781638903799663000,60.2736630859375,1.4809989929199219,3.9191112518310547,-2.4119138717651367
1781638903848184300,60.32218432617187,-1.4001054763793945,2.1973323822021484,0.18061155080795288
1781638903896705800,60.37070581054687,1.6400789022445679,0.5800323486328125,0.011121049523353577
1781638903945227000,60.41922705078125,3.198392152786255,3.024587631225586,1.8376861810684204
1781638903993748500,60.46774853515625,4.016704082489014,1.2364892959594727,2.160478353500366
1781638904042269700,60.516269775390626,4.138205528259277,-2.023101806640625,0.8952646255493164
1781638904090791000,60.564791015625,1.5716828107833862,-3.493967056274414,1.3261682987213135
1781638904139312000,60.61331201171875,-1.8343281745910645,0.6308383941650391,-1.533996820449829
1781638904187833600,60.66183349609375,-4.722035884857178,-1.3561105728149414,0.1924540102481842
1781638904236354800,60.71035473632813,-4.670047760009766,-9.383378028869629,-2.107419490814209
1781638904284876000,60.7588759765625,-1.7660565376281738,0.10042190551757812,4.538103103637695
1781638904333397200,60.80739721679687,0.8706265687942505,3.934602737426758,0.9168564677238464
1781638904381918700,60.85591870117187,0.5609111189842224,4.226180076599121,-4.0004119873046875
1781638904430440000,60.90443994140625,1.1279196739196777,4.221677303314209,-2.263484001159668
1781638904478961400,60.95296142578125,2.4246315956115723,4.775703430175781,0.6713738441467285
1781638904527482600,61.001482666015626,-2.2960281372070312,-5.513052940368652,1.963897943496704
1781638904576003800,61.05000390625,3.841416120529175,-5.715417861938477,2.2092666625976562
1781638904624525300,61.098525390625,-3.605375051498413,-5.606834411621094,-0.7521995306015015
1781638904673046500,61.14704663085938,0.5639815330505371,0.6223478317260742,-2.4852466583251953
1781638904721567700,61.19556762695313,-0.3180805444717407,0.5158805847167969,-1.3077527284622192
1781638904770089200,61.24408911132812,0.1512964963912964,-0.6893892288208008,-4.668318271636963
1781638904818610400,61.2926103515625,1.6814931631088257,3.761850357055664,-1.179997444152832
1781638904867131600,61.341131591796874,-0.9703654050827026,2.4542593955993652,0.43729257583618164
1781638904915653000,61.389653076171875,1.2107040882110596,0.3976449966430664,0.1483134627342224
1781638904964174300,61.43817431640625,2.8148064613342285,2.2979907989501953,2.673495292663574
1781638905012695600,61.486695556640626,4.004489421844482,1.795762538909912,2.6542248725891113
1781638905061216800,61.535216796875,2.56296443939209,-4.490978240966797,1.275173544883728
1781638905109738200,61.58373828125,1.4843276739120483,-3.4408655166625977,1.8375259637832642
1781638905158259500,61.63225952148437,-0.9055324792861938,0.6048049926757812,-0.8466514348983765
1781638905206780700,61.68078076171875,-3.9268972873687744,1.8428421020507812,-0.10030105710029602
1781638905303823000,61.77782299804687,-3.281447172164917,-1.8849058151245117,4.53873348236084
1781638905352344600,61.826344482421874,1.2163373231887817,3.4412665367126465,1.7851057052612305
1781638905400866000,61.874865966796875,0.27866679430007935,2.508291721343994,-3.4487204551696777
1781638905449387000,61.923386962890625,0.8854432106018066,3.339437484741211,-1.972877860069275
1781638905497908500,61.971908447265626,2.1417016983032227,5.346394062042236,0.8867208361625671
1781638905546429700,62.0204296875,-1.5465645790100098,-2.0459909439086914,1.2180958986282349
1781638905594951200,62.068951171875,4.32418155670166,-6.844250679016113,0.21754813194274902
1781638905643472400,62.11747241210937,-2.5266854763031006,-5.6182098388671875,0.7907840013504028
1781638905691993600,62.16599365234375,-0.22081512212753296,-0.032050132751464844,-1.2139720916748047
1781638905740514800,62.21451489257812,-1.1644526720046997,2.1321582794189453,-1.0084179639816284
1781638905789036300,62.263036376953124,0.051419734954833984,-1.6001110076904297,-3.5664446353912354
1781638905837557500,62.3115576171875,2.0007498264312744,3.2306017875671387,-2.5734968185424805
1781638905886078700,62.36007861328125,0.2119671106338501,3.125121593475342,0.5096904039382935
1781638905934600000,62.408599853515625,0.7631263136863708,0.6143321990966797,0.41540488600730896
1781638905983121400,62.45712133789063,1.261703610420227,1.3670682907104492,1.9419559240341187
1781638906031642400,62.505642333984376,3.539090633392334,1.693943977355957,1.7065138816833496
1781638906080163800,62.55416381835938,4.349834442138672,0.054785728454589844,1.6123093366622925
1781638906128685000,62.60268505859375,0.8938494920730591,-5.45170783996582,2.2521278858184814
1781638906177206500,62.65120654296875,-0.9120357632637024,-1.3548164367675781,-0.46630945801734924
1781638906225727700,62.69972778320312,-3.534856081008911,3.0380778312683105,-0.33675163984298706
1781638906274249000,62.7482490234375,-3.540611743927002,-6.090372085571289,-2.7578749656677246
1781638906322770200,62.796770263671874,-3.984941244125366,-4.532474517822266,2.9222235679626465
1781638906371291600,62.845291748046876,-0.28453439474105835,2.8116354942321777,3.251107692718506
1781638906419812900,62.893812744140625,0.6695171594619751,4.330427169799805,-1.874297857284546
1781638906468334000,62.942333984375,0.9191493988037109,3.8700242042541504,-1.3904852867126465
1781638906516855300,62.990855224609376,2.1748063564300537,4.668881893157959,-0.18274438381195068
1781638906565376500,63.03937646484375,0.6175422668457031,-0.1609201431274414,1.985013484954834
1781638906613897700,63.08789770507813,1.3727056980133057,-7.674585342407227,1.1203043460845947
1781638906662419200,63.13641918945312,-0.491170197725296,-3.809131622314453,2.7247977256774902
1781638906710940200,63.18494018554688,-1.9691059589385986,-3.069303512573242,-3.8725242614746094
1781638906759461600,63.23346166992187,0.7581848502159119,2.239959239959717,-1.565149188041687
1781638906807982600,63.28198266601562,-0.9147900342941284,-1.0979700088500977,-2.9762141704559326
1781638906905025300,63.379025390625,-0.5603528022766113,3.6459717750549316,0.11389759182929993
1781638906953546500,63.42754638671875,-0.17033147811889648,0.6568317413330078,-0.9229965209960938
1781638907002067700,63.476067626953125,3.2829322814941406,2.1461896896362305,2.207822561264038
