time,seconds_elapsed,z,y,x
1781638843743114200,0.2171142578125,8.491828918457031,4.17936372756958,-0.07208377867937088
1781638843791636500,0.265636474609375,8.139185905456543,4.105485439300537,0.38255253434181213
1781638843840158500,0.314158447265625,8.50708293914795,4.598706245422363,0.6173482537269592
1781638843888680700,0.3626806640625,9.607481956481934,5.244768142700195,1.3151551485061646
1781638843937202700,0.41120263671875,8.27587604522705,5.54177713394165,-0.8093722462654114
1781638843985725000,0.459724853515625,6.414260387420654,6.365506649017334,-2.016252279281616
1781638844034247200,0.5082470703125,8.889934539794922,6.186044692993164,-1.2667005062103271
1781638844082769200,0.55676904296875,10.456933975219727,5.515157222747803,0.6756733059883118
1781638844131291100,0.605291015625,6.099903106689453,7.802097320556641,-0.0032901312224566936
1781638844179813400,0.6538134765625,6.86470890045166,6.974479675292969,3.213859796524048
1781638844228335400,0.70233544921875,3.448655605316162,7.380661487579346,-0.2587239444255829
1781638844276857600,0.750857666015625,5.197809219360352,7.396214962005615,1.7422740459442139
1781638844325379600,0.799379638671875,1.048953652381897,7.607381343841553,-2.1062822341918945
1781638844373901800,0.84790185546875,1.2218350172042847,7.518248558044434,3.8102710247039795
1781638844422423800,0.896423828125,2.255833625793457,10.069596290588379,4.8227338790893555
1781638844470946000,0.944946044921875,1.662413477897644,9.760024070739746,1.968395709991455
1781638844519468000,0.993468017578125,2.426621198654175,10.37348461151123,0.15613168478012085
1781638844567990300,1.041990234375,-1.6917256116867065,10.033703804016113,1.688734531402588
1781638844616512300,1.09051220703125,-2.846860647201538,9.326624870300293,1.311864972114563
1781638844665034500,1.139034423828125,0.6005984544754028,8.515756607055664,1.0298110246658325
1781638844713556500,1.187556396484375,1.1853444576263428,8.738588333129883,2.9398818016052246
1781638844762078700,1.23607861328125,2.6554348468780518,9.433703422546387,2.535494804382324
1781638844810600700,1.2846005859375,3.6924245357513428,9.538688659667969,2.938685417175293
1781638844859122700,1.333122802734375,3.1208388805389404,8.873783111572266,3.1402807235717773
1781638844907645000,1.38164501953125,2.7574288845062256,8.756834030151367,2.6075785160064697
1781638844956167200,1.430167236328125,2.129014015197754,8.59322452545166,2.4140589237213135
1781638845004689200,1.478689208984375,2.2887349128723145,8.040183067321777,3.2333016395568848
1781638845053211100,1.527211181640625,1.5852450132369995,8.440083503723145,1.827817440032959
1781638845101733400,1.5757333984375,3.4887354373931885,8.96650505065918,-0.11844471842050552
1781638845150255400,1.62425537109375,5.913861274719238,7.976474285125732,-0.41186460852622986
1781638845198777300,1.67277734375,7.500302791595459,7.685746192932129,0.32572299242019653
1781638845247299600,1.721299560546875,7.385148048400879,7.483552932739258,1.2508480548858643
1781638845295821600,1.769821533203125,7.851748466491699,7.253243446350098,1.7473586797714233
1781638845344343800,1.81834375,6.927221775054932,7.032505512237549,1.674676775932312
1781638845392865800,1.86686572265625,6.5521464347839355,7.095317363739014,1.1168500185012817
1781638845441387800,1.9153876953125,6.286543369293213,6.957430839538574,0.5751747488975525
1781638845489910000,1.963909912109375,6.722635269165039,6.664609432220459,0.7639086246490479
1781638845538432000,2.012431884765625,7.466504096984863,6.221638202667236,1.0474581718444824
1781638845586954200,2.060954345703125,7.910970687866211,5.712265968322754,0.4345964193344116
1781638845635476200,2.109476318359375,8.878568649291992,5.240281581878662,0.638883650302887
1781638845683998200,2.157998291015625,8.534600257873535,5.402395248413086,0.4492524564266205
1781638845732520400,2.2065205078125,8.077570915222168,5.548656463623047,0.5880361795425415
1781638845781042400,2.25504248046875,8.373085021972656,5.638686656951904,0.4944169819355011
1781638845829564700,2.303564697265625,8.03210735321045,5.551348686218262,0.6475576162338257
1781638845878086700,2.352086669921875,8.12662410736084,5.6344990730285645,0.7004988193511963
1781638845926608600,2.400608642578125,7.704888820648193,5.631208896636963,0.7085745930671692
1781638845975131000,2.449130859375,8.056933403015137,5.434698581695557,0.5033900737762451
1781638846023652900,2.49765283203125,8.285746574401855,5.469693660736084,0.6275177597999573
1781638846072174800,2.5461748046875,7.944769382476807,5.850152492523193,0.3155534863471985
1781638846120697000,2.594697021484375,7.798209190368652,6.0864434242248535,0.06041877344250679
1781638846169219000,2.643218994140625,7.967202186584473,5.802595138549805,0.33379876613616943
1781638846217741000,2.691740966796875,8.024031639099121,5.782854080200195,-0.10857433080673218
1781638846266263300,2.74026318359375,8.02492904663086,5.542674541473389,0.11066804826259613
1781638846314785300,2.788785400390625,7.8780694007873535,5.61027193069458,-0.3245265781879425
1781638846363307300,2.837307373046875,8.084749221801758,5.554339408874512,-0.12053844332695007
1781638846411829500,2.88582958984375,7.829614639282227,5.575276851654053,-0.2437688112258911
1781638846460351500,2.9343515625,8.051250457763672,5.584847927093506,0.11186445504426956
1781638846508873500,2.98287353515625,7.7455668449401855,5.614160060882568,0.12831512093544006
1781638846557395700,3.031395751953125,8.112865447998047,5.330610752105713,0.02183450572192669
1781638846605917700,3.079917724609375,7.9280195236206055,5.49930477142334,0.20129621028900146
1781638846654439700,3.128439697265625,8.152944564819336,5.405386447906494,0.4905286431312561
1781638846702961700,3.176961669921875,7.309773921966553,5.652146339416504,0.797109067440033
1781638846751483400,3.2254833984375,6.436692714691162,5.611468315124512,0.7830511927604675
1781638846800006000,3.274005859375,6.935596466064453,5.43918514251709,0.875174880027771
1781638846848528000,3.32252783203125,7.340282440185547,5.621039390563965,0.9278169870376587
1781638846897049900,3.3710498046875,7.563114166259766,4.8436713218688965,0.6681957244873047
1781638846945572000,3.419572021484375,8.393424034118652,4.001996040344238,0.727418065071106
1781638846994094000,3.468093994140625,9.485447883605957,3.7363924980163574,1.555932879447937
1781638847042616300,3.5166162109375,8.487939834594727,3.0846474170684814,0.7573283910751343
1781638847091138000,3.565137939453125,8.896215438842773,2.237887382507324,0.10378868132829666
1781638847139660300,3.613660400390625,9.178568840026855,1.135095238685608,0.7435696125030518
1781638847188182300,3.662182373046875,8.938090324401855,-0.5742774605751038,2.0491535663604736
1781638847236704500,3.71070458984375,10.710872650146484,-0.7947162389755249,4.00827693939209
1781638847285226500,3.7592265625,8.398807525634766,-0.41126638650894165,5.817250728607178
1781638847333748500,3.80774853515625,9.924830436706543,-0.8479565382003784,6.597311019897461
1781638847382270500,3.8562705078125,7.4964141845703125,-0.9170492887496948,8.86361312866211
1781638847430792400,3.90479248046875,6.748358249664307,-2.917748212814331,7.3304123878479
1781638847479314700,3.953314697265625,5.202594757080078,-3.7812578678131104,6.710371971130371
1781638847527836700,4.001836669921875,3.462414264678955,-3.6684961318969727,6.559325218200684
1781638847576358700,4.050358642578125,7.255636692047119,-6.170790672302246,5.424828052520752
1781638847662585300,4.13658544921875,5.098506927490234,-7.8092756271362305,5.7221360206604
1781638847711107300,4.185107421875,8.959625244140625,-11.281261444091797,1.7626129388809204
1781638847759629300,4.23362939453125,8.412566184997559,-12.447463035583496,5.687739372253418
1781638847808151300,4.2821513671875,2.1311075687408447,-10.733304977416992,8.72183895111084
1781638847856673500,4.330673583984375,3.469592809677124,-10.337891578674316,7.214958667755127
1781638847905195500,4.379195556640625,3.6568312644958496,-7.691429138183594,1.9558334350585938
1781638847953717500,4.427717529296875,2.9398818016052246,-4.335794448852539,-0.9278169870376587
1781638848002239500,4.476239501953125,1.2290135622024536,-3.600599765777588,-1.6360924243927002
1781638848050760400,4.524760498046875,1.6504493951797485,-6.933502674102783,-1.236491084098816
1781638848147805200,4.62180517578125,1.537089467048645,-9.204590797424316,4.942076206207275
1781638848196327400,4.670327392578125,2.692523717880249,-8.594420433044434,3.228515863418579
1781638848244849700,4.718849609375,-2.210070848464966,-8.410173416137695,0.4100699722766876
1781638848293371100,4.76737109375,-0.6813562512397766,-16.90289878845215,-0.5126622319221497
1781638848341893600,4.8158935546875,0.18125630915164948,-15.709479331970215,3.358625650405884
1781638848390414800,4.864414794921875,-1.413260817527771,-7.861020565032959,0.5488536953926086
1781638848438937600,4.9129375,-0.9173483848571777,-9.599406242370605,0.7145566344261169
1781638848487459800,4.9614599609375,-1.6295121908187866,-8.507381439208984,1.0256235599517822
1781638848535981800,5.00998193359375,-1.8083757162094116,-4.458725929260254,-0.3684946894645691
1781638848584503800,5.05850390625,-0.5952146053314209,-6.2638115882873535,1.1030912399291992
1781638848633026000,5.107026123046875,-1.0630114078521729,-14.86810302734375,1.6615161895751953
1781638848681547800,5.1555478515625,-1.7485551834106445,-14.188541412353516,2.0889341831207275
1781638848730070000,5.204070068359375,-1.4572290182113647,-12.065210342407227,0.4298107624053955
1781638848778592000,5.252592041015625,-0.7752745151519775,-10.904092788696289,0.7447660565376282
1781638848827114000,5.301114013671875,-1.6525431871414185,-7.873283863067627,-0.2144567221403122
1781638848924158200,5.398158203125,-1.77607262134552,-9.499505996704102,-0.08614161610603333
1781638848972680000,5.446679931640625,-1.679761528968811,-9.642477035522461,0.39870408177375793
1781638849021202200,5.4952021484375,-2.026122570037842,-11.239985466003418,1.2696914672851562
1781638849069724400,5.543724365234375,-1.6758731603622437,-10.038787841796875,0.6125625967979431
1781638849118246100,5.59224609375,-2.3201406002044678,-11.507981300354004,0.9649057388305664
1781638849166768400,5.640768310546875,-2.8154549598693848,-7.3058857917785645,-1.1524431705474854
1781638849215290000,5.6892900390625,-0.8940183520317078,-11.208878517150879,1.4467604160308838
1781638849263812400,5.737812255859375,-0.9514461159706116,-7.594819068908691,0.5030909776687622
1781638849312334300,5.786334228515625,-1.9453648328781128,-9.484550476074219,1.200299620628357
1781638849360856300,5.834856201171875,-1.633699655532837,-10.236495018005371,0.804885745048523
1781638849409378300,5.88337841796875,-1.8032909631729126,-9.681360244750977,1.0633105039596558
1781638849457900300,5.931900390625,-1.755434513092041,-6.832406044006348,0.6834499835968018
1781638849506422500,5.980422607421875,-2.3617160320281982,-12.852747917175293,0.13698910176753998
1781638849554944500,6.028944580078125,-2.5597219467163086,-10.232307434082031,-1.04715895652771
1781638849603466200,6.07746630859375,-1.5640087127685547,-9.569794654846191,-0.32123643159866333
1781638849651988500,6.125988525390625,-1.6836497783660889,-9.553045272827148,-0.0014955141814425588
1781638849700510500,6.174510498046875,-1.573580026626587,-9.936494827270508,0.33080771565437317
1781638849749032400,6.223032470703125,-1.7653049230575562,-9.764211654663086,0.742672324180603
1781638849797554700,6.2715546875,-1.3513466119766235,-9.719047546386719,0.5120640397071838
1781638849846076700,6.32007666015625,-1.576870083808899,-9.638887405395508,0.6852445602416992
1781638849894598400,6.368598388671875,-1.5337992906570435,-10.134202003479004,0.6658028960227966
1781638849943120600,6.41712060546875,-1.1120643615722656,-9.713364601135254,1.5481562614440918
1781638849991643000,6.465642822265625,-0.9840483069419861,-9.527322769165039,1.3630115985870361
1781638850040164600,6.51416455078125,-1.1303095817565918,-9.97418212890625,0.7354938387870789
1781638850088686800,6.562686767578125,-1.5131611824035645,-9.564111709594727,0.2027917206287384
1781638850137208800,6.611208740234375,-1.7309080362319946,-10.01456069946289,0.125922292470932
1781638850185730800,6.659730712890625,-1.8592232465744019,-9.836296081542969,-0.031106693670153618
1781638850234252500,6.70825244140625,-1.7697914838790894,-9.832108497619629,-0.20877377688884735
1781638850282774800,6.75677490234375,-2.0165512561798096,-9.926325798034668,-0.3358924686908722
1781638850331297000,6.805297119140625,-1.3462618589401245,-9.835099220275879,0.6275177597999573
1781638850379818800,6.85381884765625,-1.428515076637268,-9.622138023376465,0.50907301902771
1781638850428341000,6.902341064453125,-1.4087743759155273,-10.39202880859375,0.6828517913818359
1781638850476863000,6.950863037109375,-1.3920245170593262,-9.794720649719238,0.771087110042572
1781638850525385000,6.999385009765625,-1.1826525926589966,-9.743574142456055,0.45523449778556824
1781638850622429000,7.096428955078125,-1.5418751239776611,-10.050752639770508,0.14267204701900482
1781638850670951200,7.144951171875,-1.3884353637695312,-9.932008743286133,0.30568310618400574
1781638850719473000,7.193472900390625,-1.4374881982803345,-9.797113418579102,0.30239295959472656
1781638850767995100,7.2419951171875,-1.3992030620574951,-9.860821723937988,0.2991028428077698
1781638850816517400,7.290517333984375,-1.4365909099578857,-9.830613136291504,0.3454637825489044
1781638850865039000,7.3390390625,-1.425524115562439,-9.872187614440918,0.4504488706588745
1781638850913561300,7.387561279296875,-1.41834557056427,-9.952646255493164,0.397208571434021
1781638850962083300,7.436083251953125,-1.246660590171814,-9.779465675354004,0.3158525824546814
1781638851010605300,7.484605224609375,-1.3725829124450684,-9.80399227142334,0.26889345049858093
1781638851059127600,7.53312744140625,-1.4294124841690063,-9.915857315063477,0.2560320198535919
1781638851107649300,7.581649169921875,-1.4036896228790283,-9.839286804199219,0.27427729964256287
1781638851156171500,7.630171630859375,-1.4315061569213867,-9.853643417358398,0.4019941985607147
1781638851204693500,7.678693603515625,-1.4916257858276367,-9.896714210510254,0.3535395562648773
1781638851253215200,7.72721533203125,-1.4916257858276367,-9.807581901550293,0.3930211067199707
1781638851301737500,7.775737548828125,-1.5026925802230835,-9.842277526855469,0.23449662327766418
1781638851350259500,7.824259521484375,-1.4691931009292603,-9.835099220275879,0.26171496510505676
1781638851398781400,7.872781494140625,-1.5131611824035645,-9.879067420959473,0.27816563844680786
1781638851447303700,7.9213037109375,-1.4673985242843628,-9.785747528076172,0.24556341767311096
1781638851495825700,7.96982568359375,-1.46500563621521,-9.807581901550293,0.32602208852767944
1781638851544347600,8.01834765625,-1.4590235948562622,-9.915258407592773,0.2632105052471161
1781638851592870000,8.066869873046874,-1.4949159622192383,-9.81535816192627,0.31345975399017334
1781638851641391900,8.115391845703124,-1.4054841995239258,-9.806385040283203,0.3044866919517517
1781638851689913900,8.163913818359376,-1.4395818710327148,-9.856036186218262,0.30628129839897156
1781638851738435800,8.212435791015626,-1.4706885814666748,-9.830613136291504,0.3574278950691223
1781638851786957800,8.260957763671875,-1.4213366508483887,-9.83838939666748,0.3158525824546814
1781638851835479800,8.309479736328125,-1.4222339391708374,-9.814760208129883,0.2910270392894745
1781638851884002000,8.358001953125,-1.4434702396392822,-9.808777809143066,0.3119642436504364
1781638851932524000,8.40652392578125,-1.4075778722763062,-9.88415241241455,0.32123643159866333
1781638851981046300,8.45504638671875,-1.4171491861343384,-9.876974105834961,0.33409786224365234
1781638852029568000,8.503568115234375,-1.3591232299804688,-9.806385040283203,0.3484548032283783
1781638852126612200,8.6006123046875,-1.415055513381958,-9.836296081542969,0.3475574851036072
1781638852223656400,8.697656494140626,-1.3854442834854126,-9.87667465209961,0.34995031356811523
1781638852272178400,8.746178466796875,-1.311864972114563,-9.84556770324707,0.3643072545528412
1781638852320700400,8.794700439453125,-1.311864972114563,-9.867103576660156,0.37477585673332214
1781638852369222700,8.84322265625,-1.3127623796463013,-9.869794845581055,0.3445664644241333
1781638852417744600,8.89174462890625,-1.3103694915771484,-9.912567138671875,0.3684946894645691
1781638852466266600,8.9402666015625,-1.2987045049667358,-9.857831001281738,0.39571303129196167
1781638852514788600,8.98878857421875,-1.3408780097961426,-9.865608215332031,0.38703906536102295
1781638852563310600,9.037310546875,-1.3058829307556152,-9.843174934387207,0.32721850275993347
1781638852611832800,9.085832763671876,-1.3908281326293945,-9.878469467163086,0.2718844711780548
1781638852660354800,9.134354736328126,-1.2999008893966675,-9.823433876037598,0.2958126962184906
1781638852708876800,9.182876708984375,-1.3088740110397339,-9.850652694702148,0.3535395562648773
1781638852757399000,9.23139892578125,-1.3639088869094849,-9.89850902557373,0.3484548032283783
1781638852805920800,9.279920654296875,-1.2897313833236694,-9.856635093688965,0.32602208852767944
1781638852854443000,9.328443115234375,-1.3423734903335571,-9.873384475708008,0.3684946894645691
1781638852902965200,9.37696533203125,-1.3310075998306274,-9.878170013427734,0.3128615617752075
1781638852951487200,9.4254873046875,-1.3040883541107178,-9.840782165527344,0.3756731450557709
1781638853000009200,9.47400927734375,-1.2987045049667358,-9.862616539001465,0.34636107087135315
1781638853048531200,9.52253125,-1.3465609550476074,-9.862616539001465,0.34695929288864136
1781638853097053200,9.57105322265625,-1.2831511497497559,-9.86231803894043,0.33020952343940735
1781638853145575400,9.619575439453126,-1.3178470134735107,-9.876974105834961,0.41156548261642456
1781638853194097400,9.668097412109375,-1.2954143285751343,-9.882955551147461,0.4061816334724426
1781638853242619600,9.71661962890625,-1.3310075998306274,-9.85274600982666,0.4301098585128784
1781638853291141600,9.7651416015625,-1.3265210390090942,-9.868897438049316,0.38225340843200684
1781638853339663600,9.81366357421875,-1.2834502458572388,-9.86949634552002,0.4145565330982208
1781638853388185600,9.862185546875,-1.2987045049667358,-9.832108497619629,0.43609192967414856
1781638853436707600,9.91070751953125,-1.3414762020111084,-9.900602340698242,0.43489551544189453
1781638853485229800,9.959229736328124,-1.342971682548523,-9.854242324829102,0.3885345757007599
1781638853533751800,10.007751708984374,-1.3001999855041504,-9.84556770324707,0.43220359086990356
1781638853582273800,10.056273681640626,-1.353440284729004,-9.870393753051758,0.42352959513664246
1781638853630796000,10.104796142578126,-1.327418327331543,-9.851250648498535,0.40677985548973083
1781638853679318000,10.153318115234375,-1.2987045049667358,-9.835099220275879,0.4178466498851776
1781638853727840000,10.201840087890625,-1.3088740110397339,-9.842277526855469,0.3981058597564697
1781638853776362200,10.2503623046875,-1.3369896411895752,-9.909276962280273,0.39541393518447876
1781638853873406200,10.34740625,-1.267298698425293,-9.839884757995605,0.4408775866031647
1781638853921928400,10.395928466796875,-1.3671990633010864,-9.909575462341309,0.46749773621559143
1781638853970450400,10.444450439453124,-1.324128270149231,-9.870393753051758,0.4307080805301666
1781638854018972400,10.492972412109374,-1.297807216644287,-9.850353240966797,0.3981058597564697
1781638854067494400,10.541494384765626,-1.2634103298187256,-9.852148056030273,0.38344982266426086
1781638854116016600,10.5900166015625,-1.2921242713928223,-9.846465110778809,0.45613181591033936
1781638854164538600,10.63853857421875,-1.285843014717102,-9.888040542602539,0.401096910238266
1781638854213060600,10.687060546875,-1.2768700122833252,-9.853643417358398,0.3924229145050049
1781638854261582800,10.735582763671875,-1.2864413261413574,-9.858428955078125,0.4387838542461395
1781638854310104800,10.784104736328125,-1.2903295755386353,-9.900901794433594,0.4211367964744568
1781638854358626800,10.832626708984375,-1.297807216644287,-9.855138778686523,0.44327038526535034
1781638854407148800,10.881148681640624,-1.2460623979568481,-9.8207426071167,0.376570463180542
1781638854455671000,10.929671142578124,-1.2577273845672607,-9.904491424560547,0.35024940967559814
1781638854504193000,10.978193115234374,-1.2433704137802124,-9.872187614440918,0.38344982266426086
1781638854552715300,11.02671533203125,-1.2472587823867798,-9.893723487854004,0.4417748749256134
1781638854601237200,11.0752373046875,-1.2610175609588623,-9.860821723937988,0.4139583110809326
1781638854649759200,11.12375927734375,-1.2634103298187256,-9.869794845581055,0.41964125633239746
1781638854698281200,11.17228125,-1.2245270013809204,-9.870991706848145,0.4061816334724426
1781638854795325200,11.2693251953125,-1.3058829307556152,-9.91286563873291,0.4169493317604065
1781638854843847400,11.317847412109375,-1.205384373664856,-9.802796363830566,0.4579264223575592
1781638854892369400,11.366369384765624,-1.2442678213119507,-9.814460754394531,0.4713860750198364
1781638854940891400,11.414891357421874,-1.2424731254577637,-9.972387313842773,0.4097708761692047
1781638854989413600,11.46341357421875,-1.3094722032546997,-9.952646255493164,0.4169493317604065
1781638855037935600,11.511935546875,-1.184447169303894,-9.787242889404297,0.4576273262500763
1781638855086457600,11.56045751953125,-1.2667005062103271,-9.851848602294922,0.3574278950691223
1781638855134979600,11.6089794921875,-1.2610175609588623,-9.865009307861328,0.3517449200153351
1781638855183501800,11.657501708984375,-1.2044870853424072,-9.907781600952148,0.35832518339157104
1781638855232023800,11.70602392578125,-1.2194422483444214,-9.826425552368164,0.3526422381401062
1781638855329068000,11.803068115234375,-1.287936806678772,-9.885647773742676,0.28235307335853577
1781638855426112300,11.9001123046875,-1.306481122970581,-9.941280364990234,0.36281174421310425
1781638855474634000,11.948634033203126,-1.3438689708709717,-9.891928672790527,0.40677985548973083
1781638855523156200,11.99715625,-1.423729419708252,-9.965209007263184,0.384347140789032
1781638855571678200,12.04567822265625,-1.3639088869094849,-9.875179290771484,0.29431718587875366
1781638855620200400,12.094200439453125,-1.3824533224105835,-9.830613136291504,0.27846473455429077
1781638855668722400,12.142722412109375,-1.327418327331543,-9.816853523254395,0.4259224236011505
1781638855717244400,12.191244384765625,-1.2484551668167114,-9.721440315246582,0.5805585980415344
1781638855765766700,12.2397666015625,-1.5912270545959473,-9.717252731323242,0.5365904569625854
1781638855814288600,12.28828857421875,-1.474876046180725,-9.705886840820312,0.6086742877960205
1781638855862810600,12.336810546875,-1.6767704486846924,-9.734601020812988,0.6269195079803467
1781638855911332600,12.38533251953125,-1.1395817995071411,-9.367302894592285,0.6143572330474854
1781638855959854600,12.4338544921875,-0.031106693670153618,-8.888737678527832,1.4362918138504028
1781638856008376800,12.482376953125,-1.0944172143936157,-11.599507331848145,2.295614242553711
1781638856056898800,12.53089892578125,-1.2729816436767578,-10.99442195892334,1.3001999855041504
1781638856105420800,12.5794208984375,-0.1704886108636856,-9.531210899353027,1.2113664150238037
1781638856153942800,12.62794287109375,0.45942193269729614,-9.302696228027344,1.4530415534973145
1781638856202464800,12.67646484375,0.8910273313522339,-8.8740816116333,1.83828604221344
1781638856299509000,12.773509033203124,0.9628120064735413,-8.732905387878418,2.527418851852417
1781638856348031000,12.822031005859374,1.1509476900100708,-9.574281692504883,2.9991040229797363
1781638856396553000,12.870552978515626,1.581655740737915,-11.925230026245117,3.2033913135528564
1781638856445075200,12.9190751953125,1.459621787071228,-11.715259552001953,2.2603201866149902
1781638856493597200,12.96759716796875,-3.4322049617767334,-13.628022193908691,-0.8608179688453674
1781638856542119200,13.016119140625,-3.317349433898926,-10.258928298950195,-1.7650058269500732
1781638856590641200,13.06464111328125,-2.270190477371216,-8.02492904663086,-1.0671988725662231
1781638856639163400,13.113163330078125,-1.072582721710205,-9.873384475708008,-2.480459690093994
1781638856687685400,13.161685302734375,-2.1017956733703613,-8.051848411560059,-0.5838487148284912
1781638856736207400,13.210207275390625,-2.281855583190918,-9.88086223602295,0.24257239699363708
1781638856784729300,13.258729248046874,0.4531407952308655,-9.18305492401123,2.578864574432373
1781638856833251300,13.307251220703124,-1.1542378664016724,-10.412068367004395,1.542473316192627
1781638856881773600,13.355773681640626,0.26979073882102966,-8.745168685913086,1.3265210390090942
1781638856930295600,13.404295654296876,0.33439695835113525,-6.314659118652344,0.8584251403808594
1781638856978817500,13.452817626953125,1.654337763786316,-10.859227180480957,-0.7719843983650208
1781638857027339800,13.50133984375,0.6263213157653809,-12.735499382019043,2.5076780319213867
1781638857124383700,13.5983837890625,-3.595515012741089,-7.045068264007568,0.04127619042992592
1781638857172905700,13.64690576171875,-2.0985054969787598,-15.54377555847168,1.2323036193847656
1781638857221427700,13.695427734375,-3.384049415588379,-15.216557502746582,2.234896421432495
1781638857269950000,13.743949951171874,0.21774685382843018,-7.906484127044678,3.5518460273742676
1781638857318472000,13.792471923828124,1.1494522094726562,-8.178668022155762,-0.22073788940906525
1781638857366994000,13.840993896484376,0.587138831615448,-7.9316086769104,-1.2251251935958862
1781638857415516000,13.889515869140626,1.329512119293213,-7.323532581329346,0.8536394834518433
1781638857464038000,13.938037841796875,2.822035312652588,-6.214160442352295,1.4730814695358276
1781638857512559900,13.986559814453125,-1.4724832773208618,-12.132208824157715,2.171187400817871
1781638857561082000,14.03508203125,3.963411569595337,-12.757633209228516,1.892722725868225
1781638857609603800,14.083603759765625,-3.9457645416259766,-15.173786163330078,1.4877375364303589
1781638857658126000,14.1321259765625,-1.1802598237991333,-10.197611808776855,-1.5864413976669312
1781638857706648000,14.18064794921875,-0.7289136052131653,-8.252246856689453,0.626022219657898
1781638857755170000,14.229170166015624,-0.8844470977783203,-11.81755256652832,-2.5986053943634033
1781638857803692000,14.277692138671876,-0.19232311844825745,-7.6043901443481445,-0.44327038526535034
1781638857852214000,14.326214111328126,-2.257328987121582,-8.260024070739746,0.5748756527900696
1781638857900736300,14.374736328125,1.887937068939209,-8.166703224182129,0.11246266216039658
1781638857997780200,14.4717802734375,-0.5497509837150574,-10.91755199432373,1.4318052530288696
1781638858046302200,14.52030224609375,1.677966833114624,-8.647661209106445,0.5177469849586487
1781638858094824200,14.56882421875,2.7861428260803223,-10.029216766357422,1.4075778722763062
1781638858143346400,14.617346435546875,-0.3128615617752075,-11.921042442321777,2.755634307861328
1781638858191868400,14.665868408203124,-3.735196113586426,-8.554939270019531,-1.7117655277252197
1781638858240390400,14.714390380859374,-2.344068765640259,-10.217950820922852,-1.1207382678985596
1781638858288912400,14.762912353515626,-3.139383316040039,-19.9576358795166,1.1303095817565918
1781638858337434400,14.811434326171875,-1.8218353986740112,-9.776474952697754,5.401497840881348
1781638858385956000,14.8599560546875,1.4659029245376587,-5.6309099197387695,1.6597216129302979
1781638858434478300,14.908478271484375,1.423729419708252,-7.974679470062256,-2.061715841293335
1781638858483000300,14.957000244140625,1.4165509939193726,-7.077371120452881,0.7546364665031433
1781638858531522600,15.0055224609375,3.02123761177063,-5.376672267913818,1.2490534782409668
1781638858580044500,15.05404443359375,-2.5061826705932617,-11.922837257385254,3.923630952835083
1781638858628566500,15.10256640625,4.712963104248047,-15.084952354431152,0.973878800868988
1781638858677088500,15.151088623046874,-2.5283162593841553,-14.647065162658691,2.652743101119995
1781638858774132500,15.248132568359376,-0.6981059908866882,-7.067500591278076,1.7635103464126587
1781638858822654500,15.296654541015625,-0.7283154129981995,-11.423933982849121,-2.170290231704712
1781638858871176400,15.345176513671875,0.672383189201355,-7.337291717529297,-3.7199418544769287
1781638858919698400,15.393698486328125,-2.3401806354522705,-8.196015357971191,0.47916272282600403
1781638858968220400,15.442220458984375,-1.0534402132034302,-10.109077453613281,0.31764721870422363
1781638859016742400,15.490742431640625,-0.19322042167186737,-8.098807334899902,1.2340983152389526
1781638859065264600,15.5392646484375,0.5153541564941406,-7.6839518547058105,0.6897311210632324
1781638859113786400,15.587786376953124,4.316651821136475,-8.302495956420898,1.3609179258346558
1781638859162308600,15.63630859375,0.008973085321485996,-15.128321647644043,3.9212381839752197
1781638859210830600,15.68483056640625,-1.8218353986740112,-12.68435287475586,-0.2072782665491104
1781638859259352600,15.7333525390625,-4.047160625457764,-8.150551795959473,-0.3125624656677246
1781638859307874600,15.78187451171875,-2.5124638080596924,-15.147464752197266,-0.5880361795425415
1781638859356396300,15.830396240234375,-4.143471717834473,-14.44487190246582,4.47068977355957
1781638859404918500,15.87891845703125,0.27696922421455383,-6.466902256011963,1.9390836954116821
1781638859453440500,15.9274404296875,0.6675975322723389,-6.75792932510376,-1.2490534782409668
1781638859501962500,15.97596240234375,1.0235298871994019,-6.6367926597595215,0.6005984544754028
1781638859550484500,16.024484375,1.583450436592102,-6.222236156463623,0.836590588092804
1781638859599006500,16.07300634765625,2.2070798873901367,-7.622037410736084,1.4841482639312744
1781638859647528400,16.121528564453126,0.39571303129196167,-17.30878257751465,-0.6059823632240295
1781638859696050700,16.17005078125,1.8143577575683594,-12.994522094726562,3.6355948448181152
1781638859744572400,16.218572509765625,-4.579862594604492,-13.532309532165527,-0.4612165689468384
1781638859793094400,16.267094482421875,-1.444367527961731,-7.394719123840332,1.090528964996338
1781638859841616400,16.315616455078125,-2.1134605407714844,-11.275877952575684,-1.3256237506866455
1781638859890138600,16.364138671875,-0.22013968229293823,-8.88125991821289,-4.782355308532715
1781638859938660400,16.412660400390624,-1.812264084815979,-6.174080848693848,0.07986045628786087
1781638859987182300,16.461182373046874,-2.1272194385528564,-9.847362518310547,-1.41834557056427
1781638860035704300,16.509704345703124,1.291226863861084,-8.076375007629395,2.026122570037842
1781638860084226300,16.558226318359374,0.35802608728408813,-7.348358154296875,3.9825541973114014
1781638860132748300,16.606748291015624,1.3836497068405151,-8.691329956054688,1.0959128141403198
1781638860181270500,16.6552705078125,0.9912267923355103,-12.53300666809082,4.211368083953857
1781638860229792300,16.703792236328123,-1.612762451171875,-13.600205421447754,0.6038886308670044
1781638860278314500,16.752314453125,-2.947359323501587,-7.76889705657959,-1.8146568536758423
1781638860375358200,16.849358154296876,-3.438486099243164,-19.449460983276367,-0.10857433080673218
1781638860423880400,16.89788037109375,-2.0808584690093994,-9.242876052856445,4.500301361083984
1781638860472402200,16.946402099609376,1.4605190753936768,-6.5889363288879395,1.348056435585022
1781638860520924200,16.994924072265626,0.35892340540885925,-6.745965003967285,-0.5718846321105957
1781638860569446400,17.0434462890625,0.8078767657279968,-6.565905570983887,0.7746763229370117
1781638860617968000,17.091968017578125,3.0005996227264404,-4.726722240447998,0.9484550952911377
1781638860666490400,17.140490478515623,-2.1918256282806396,-14.598012924194336,1.3926228284835815
1781638860715012400,17.189012451171877,4.095614910125732,-15.189638137817383,1.3537393808364868
1781638860763534000,17.2375341796875,-3.6053855419158936,-15.329916954040527,-0.31734809279441833
1781638860812056000,17.28605615234375,-0.6514459848403931,-8.067999839782715,0.8213363885879517
1781638860860578000,17.334578125,-1.5984054803848267,-9.14865779876709,0.7585247755050659
1781638860909100000,17.38310009765625,-0.4049852192401886,-11.049456596374512,-3.3954153060913086
1781638860957622000,17.4316220703125,-0.6370890140533447,-6.7310099601745605,-1.8535401821136475
1781638861006144000,17.48014404296875,-1.394417405128479,-8.85643482208252,0.5365904569625854
1781638861054666000,17.528666015625,-1.1754741668701172,-9.886245727539062,0.9332008361816406
1781638861103188000,17.57718798828125,-0.5368895530700684,-7.222136974334717,1.547558069229126
1781638861151710000,17.6257099609375,2.0665013790130615,-6.736692905426025,0.8988040089607239
1781638861200232000,17.67423193359375,3.312563896179199,-9.968499183654785,2.480459690093994
1781638861248754000,17.72275390625,-1.2658032178878784,-14.635101318359375,2.9629125595092773
1781638861297276000,17.77127587890625,-2.4053850173950195,-10.63669490814209,-2.490330219268799
1781638861345798000,17.8197978515625,-3.5452659130096436,-6.816553592681885,2.079961061477661
1781638861394320000,17.86831982421875,-3.1489546298980713,-19.214365005493164,-0.7800601720809937
1781638861442841900,17.916841796875,-2.5746772289276123,-12.463615417480469,3.0729825496673584
1781638861491363600,17.965363525390625,1.32711923122406,-6.167201042175293,3.541377544403076
1781638861588407800,18.06240771484375,1.6525431871414185,-6.334698677062988,-1.072582721710205
1781638861636929500,18.110929443359375,2.431107759475708,-4.869992256164551,0.5416752099990845
1781638861685451500,18.159451416015624,-0.9475577473640442,-12.446565628051758,1.7889339923858643
1781638861733973800,18.207973876953126,5.7786664962768555,-15.825531005859375,1.9621145725250244
1781638861782495500,18.25649560546875,-5.07218599319458,-13.698012351989746,2.958127021789551
1781638861831017500,18.305017578125,-1.6947166919708252,-12.896716117858887,-2.45204496383667
1781638861879539200,18.353539306640624,-2.1846470832824707,-7.4377899169921875,0.5066801905632019
1781638861928061400,18.4020615234375,-1.4964114427566528,-11.562119483947754,-3.4025938510894775
1781638861976583400,18.45058349609375,-0.5072783827781677,-6.258128643035889,-3.431307554244995
1781638862025105200,18.499105224609377,-2.6464617252349854,-8.024629592895508,0.4082753658294678
1781638862073627400,18.54762744140625,-0.6574280261993408,-10.346565246582031,1.0058828592300415
1781638862122149400,18.5961494140625,0.9038887619972229,-5.96590518951416,2.17836594581604
1781638862170671000,18.644671142578126,1.7880367040634155,-6.5404815673828125,2.4717857837677
1781638862219193000,18.693193115234376,1.8496519327163696,-12.903894424438477,3.7022948265075684
1781638862267715000,18.741715087890626,-1.036690354347229,-13.569099426269531,2.3330020904541016
1781638862316237000,18.790237060546875,-2.173281192779541,-7.837989807128906,-2.954537868499756
1781638862364759000,18.838759033203125,-3.702594041824341,-11.69133186340332,-0.776171863079071
1781638862413280800,18.88728076171875,-4.357928276062012,-21.020050048828125,0.3604189157485962
1781638862461803000,18.935802978515625,-1.1572288274765015,-9.306285858154297,6.4289164543151855
1781638862510324700,18.98432470703125,1.2729816436767578,-5.681458473205566,1.6328023672103882
1781638862558847000,19.032846923828124,0.5925226807594299,-6.922435760498047,-1.8059829473495483
1781638862607368700,19.08136865234375,1.6812570095062256,-6.210870265960693,-0.3655036687850952
1781638862655890700,19.129890625,2.6422743797302246,-4.271188259124756,0.09242277592420578
1781638862704412700,19.17841259765625,-1.7889339923858643,-13.75633716583252,1.5026925802230835
1781638862752934700,19.2269345703125,5.715855121612549,-13.692329406738281,2.9114668369293213
1781638862801456400,19.275456298828125,-6.617650032043457,-16.151552200317383,0.7465606927871704
1781638862849978400,19.323978271484375,-0.8560323119163513,-10.258628845214844,-0.4211367964744568
1781638862898500400,19.372500244140625,-2.8298118114471436,-10.65105152130127,-0.09631111472845078
1781638862947022300,19.421022216796874,-0.6741777658462524,-9.91825008392334,-4.689932346343994
1781638862995544300,19.46954443359375,-0.882951557636261,-5.374279499053955,-1.7748762369155884
1781638863044066300,19.51806640625,-3.100200891494751,-8.947661399841309,-0.5688936114311218
1781638863141110000,19.615110107421874,1.3743774890899658,-5.24327278137207,3.3882367610931396
1781638863189632000,19.663632080078123,2.002194404602051,-7.345367431640625,2.0919251441955566
1781638863238153700,19.71215380859375,0.4546363055706024,-14.334503173828125,4.436293125152588
1781638863286676000,19.760676025390627,-1.217348575592041,-12.51147174835205,1.3615161180496216
1781638863335198000,19.809197998046876,-3.069094181060791,-6.716653347015381,-2.6662025451660156
1781638863383719700,19.8577197265625,-3.1507492065429688,-13.81226921081543,-1.2999008893966675
1781638863432241700,19.90624169921875,-3.8276188373565674,-19.618154525756836,1.8343976736068726
1781638863480763600,19.954763671875,-0.8096713423728943,-7.999804496765137,5.807380676269531
1781638863529285400,20.003285400390624,1.3513466119766235,-7.263712406158447,0.5273182988166809
1781638863577807600,20.0518076171875,0.3535395562648773,-6.4289164543151855,-1.0998010635375977
1781638863626329600,20.10032958984375,2.058724880218506,-5.282754421234131,0.786640465259552
1781638863674851300,20.148851318359377,1.9516459703445435,-3.8922250270843506,1.337587833404541
1781638863723373300,20.197373291015627,0.36610186100006104,-16.289440155029297,-0.16749759018421173
1781638863771895000,20.24589501953125,2.7981069087982178,-13.843077659606934,4.302295207977295
1781638863820417000,20.2944169921875,-6.0747785568237305,-17.28096580505371,-2.092224359512329
1781638863868939000,20.34293896484375,-0.5892325639724731,-7.897810459136963,0.027816563844680786
1781638863917461000,20.3914609375,-3.171088218688965,-12.281461715698242,-1.0498509407043457
1781638863965983000,20.43998291015625,0.06789634376764297,-8.248956680297852,-4.530510425567627
1781638864014505000,20.4885048828125,-0.9433703422546387,-5.698806285858154,-0.397208571434021
1781638864063026700,20.537026611328123,-2.1720848083496094,-9.303893089294434,-0.42771705985069275
1781638864111548700,20.585548583984377,-0.06699903309345245,-8.25523853302002,1.2376874685287476
1781638864160070700,20.634070556640626,0.7474579811096191,-6.162415504455566,2.376072883605957
1781638864208592400,20.68259228515625,2.6147570610046387,-7.829914093017578,3.5850465297698975
1781638864257114400,20.7311142578125,0.10588239878416061,-13.578670501708984,4.9501519203186035
1781638864305636000,20.779635986328124,-2.580958366394043,-12.591032981872559,-0.39870408177375793
1781638864354158000,20.828157958984374,-4.5257248878479,-7.986344814300537,-0.905982494354248
1781638864402680000,20.87668017578125,-3.9008991718292236,-17.50439453125,-3.4241292476654053
1781638864451202000,20.9252021484375,-3.85483717918396,-14.698511123657227,3.3756744861602783
1781638864499723800,20.973723876953127,0.20907287299633026,-6.742076873779297,4.40757942199707
1781638864548246000,21.02224609375,0.8859425783157349,-6.547360897064209,-0.5240281820297241
1781638864596767700,21.070767822265626,1.2218350172042847,-5.397609710693359,-1.0193424224853516
1781638864693811700,21.167811767578126,0.9083753228187561,-6.359524250030518,0.953240692615509
1781638864742333400,21.21633349609375,0.20159530639648438,-16.867904663085938,-0.13968102633953094
1781638864790855400,21.26485546875,1.5619150400161743,-13.182957649230957,4.385146617889404
1781638864839377400,21.31337744140625,-8.23549747467041,-18.953548431396484,-2.441277265548706
1781638864887899100,21.361899169921877,-0.22791635990142822,-8.331210136413574,-1.49611234664917
1781638864936421000,21.410421142578127,-3.239283561706543,-12.934701919555664,-4.942076206207275
1781638864984942800,21.45894287109375,0.19561325013637543,-7.287939548492432,-7.151249408721924
1781638865033464800,21.50746484375,-0.7887341380119324,-8.059624671936035,-2.2307088375091553
1781638865081986800,21.55598681640625,4.052544116973877,-8.4529447555542,0.7959126234054565
1781638865130508500,21.604508544921874,1.673181176185608,-6.748358249664307,3.9544384479522705
1781638865179030500,21.653030517578124,1.5547364950180054,-9.191729545593262,2.435295343399048
1781638865227552500,21.701552490234373,3.2608189582824707,-12.346366882324219,4.891826629638672
1781638865276074200,21.75007421875,-0.06131608039140701,-11.933006286621094,3.8901314735412598
1781638865324596200,21.79859619140625,-3.791726589202881,-8.038089752197266,-0.24795624613761902
1781638865373118200,21.8471181640625,-6.703193664550781,-18.052350997924805,-0.1986042857170105
1781638865421640000,21.895639892578124,-4.216751575469971,-17.971593856811523,-1.5514464378356934
1781638865470162000,21.944161865234374,-1.3010972738265991,-6.783652305603027,2.661417007446289
1781638865518683600,21.99268359375,1.7787644863128662,-5.974279880523682,0.07746763527393341
1781638865567205600,22.04120556640625,0.4992026388645172,-7.451249599456787,1.5137593746185303
1781638865615727400,22.089727294921875,0.20039889216423035,-6.63350248336792,2.185544490814209
1781638865664249600,22.13824951171875,2.7891337871551514,-4.969892501831055,2.4185454845428467
1781638865712771300,22.186771240234375,0.15463615953922272,-11.106884956359863,0.6789634227752686
1781638865761293300,22.235293212890625,3.8877387046813965,-13.940585136413574,0.6637091636657715
1781638865809815000,22.28381494140625,-8.493622779846191,-18.415761947631836,0.7743772268295288
1781638865858337000,22.3323369140625,-0.40259242057800293,-8.05513858795166,-2.1000008583068848
1781638865906858800,22.380858642578126,-2.8277182579040527,-11.117951393127441,-0.6287141442298889
1781638865955380700,22.429380615234376,-1.5640087127685547,-11.01745319366455,-2.577967405319214
1781638866003902700,22.47790283203125,-0.9397810697555542,-6.464808464050293,-2.5588247776031494
1781638866052424700,22.5264248046875,-0.5781657695770264,-6.936792850494385,-0.21595224738121033
1781638866100946400,22.574946533203125,0.8192426562309265,-7.750950813293457,1.6654045581817627
1781638866149468400,22.623468505859375,-0.6637091636657715,-5.979663848876953,1.9157536029815674
1781638866246512000,22.72051220703125,0.1381855010986328,-15.788741111755371,5.339284420013428
1781638866295034000,22.7690341796875,-0.027816563844680786,-12.68136215209961,1.041775107383728
1781638866343555800,22.817555908203126,-4.393820762634277,-6.382256031036377,0.4163511395454407
1781638866392077800,22.866077880859375,-3.672982692718506,-14.820545196533203,-2.0416758060455322
1781638866440599300,22.914599365234373,-2.478964328765869,-16.781463623046875,2.521436929702759
1781638866489121300,22.963121337890627,-1.0663015842437744,-7.343572616577148,5.631208896636963
1781638866537643300,23.011643310546877,0.8144569993019104,-6.396912097930908,1.572981834411621
1781638866586165000,23.0601650390625,0.9053842425346375,-6.339484691619873,-1.3902299404144287
1781638866634687000,23.10868701171875,1.9348962306976318,-5.896812438964844,0.1540379524230957
1781638866683209000,23.157208984375,2.5986053943634033,-5.177170753479004,1.3821542263031006
1781638866731730700,23.205730712890624,0.05832505226135254,-17.576778411865234,-0.031106693670153618
1781638866780252700,23.254252685546874,1.968694806098938,-12.68136215209961,3.6236307621002197
1781638866828774400,23.3027744140625,-5.918945789337158,-16.4880428314209,-1.9827526807785034
1781638866877296000,23.351296142578125,-0.12053844332695007,-6.795616149902344,0.34277185797691345
1781638866925818000,23.399818115234375,-2.035693883895874,-11.496017456054688,-0.6107679605484009
1781638866974340000,23.448340087890625,0.09571290761232376,-9.048757553100586,-3.249453067779541
1781638867022861800,23.49686181640625,-1.4270195960998535,-6.008377552032471,0.09421738982200623
1781638867071383800,23.5453837890625,-1.8909281492233276,-9.398110389709473,0.5168496966362
1781638867119905500,23.593905517578126,-0.022133609279990196,-8.179265975952148,1.4811571836471558
1781638867168427500,23.642427490234375,0.8309076428413391,-5.657230854034424,1.791326880455017
1781638867216949500,23.690949462890625,3.119642496109009,-9.434001922607422,2.511566400527954
1781638867265471200,23.73947119140625,-1.1733803749084473,-15.0215425491333,4.574478626251221
1781638867313993000,23.787992919921876,-2.066800594329834,-11.069197654724121,-2.2722842693328857
1781638867362515000,23.836514892578126,-3.4097721576690674,-7.2080793380737305,-0.251844584941864
1781638867411036700,23.88503662109375,-3.61017107963562,-20.244775772094727,-1.0091729164123535
1781638867459558400,23.933558349609374,-3.1695926189422607,-13.154841423034668,4.952544689178467
1781638867508080600,23.98208056640625,1.703689694404602,-5.971588134765625,3.19441819190979
1781638867556602400,24.030602294921874,0.6765705943107605,-6.33798885345459,-1.1001001596450806
1781638867605124400,24.079124267578123,1.28255295753479,-5.761019706726074,-0.2718844711780548
1781638867653645800,24.127645751953125,2.734398126602173,-4.230510234832764,0.6326025128364563
1781638867702167800,24.176167724609375,-1.6671991348266602,-10.165308952331543,2.1640090942382812
1781638867799211800,24.273211669921874,-3.1854450702667236,-14.656935691833496,4.191328048706055
1781638867847733500,24.3217333984375,-2.030609130859375,-12.51865005493164,-2.1104695796966553
1781638867896255200,24.370255126953126,-1.023230791091919,-7.141977310180664,0.8548358678817749
1781638867944777000,24.41877685546875,-1.657328724861145,-12.29671573638916,-2.7580273151397705
1781638867993299000,24.467298828125,0.0487537607550621,-7.4470624923706055,-3.9936211109161377
1781638868041820700,24.515820556640627,-2.678166627883911,-7.168896675109863,0.5072783827781677
1781638868090342700,24.5643427734375,-1.083051323890686,-9.32722282409668,0.13310076296329498
1781638868138864400,24.612864501953126,0.4244269132614136,-6.873981475830078,2.045863389968872
1781638868187386400,24.661386474609376,2.1367905139923096,-6.4217376708984375,3.634697675704956
1781638868235908000,24.709908203125,2.4981069564819336,-11.383255958557129,1.820937991142273
1781638868284430000,24.75843017578125,-0.8063812255859375,-15.527624130249023,4.000799655914307
1781638868332951800,24.806951904296874,-2.276172637939453,-10.16171932220459,-1.2843475341796875
1781638868381473500,24.8554736328125,-3.4953157901763916,-7.207779884338379,-1.324128270149231
1781638868429995300,24.903995361328125,-2.879462957382202,-16.892431259155273,-2.228316068649292
1781638868478517200,24.952517333984375,-2.704786777496338,-13.864612579345703,6.539584159851074
1781638868527039200,25.001039306640624,1.7688941955566406,-6.372983932495117,5.24327278137207
1781638868575561000,25.04956103515625,1.8807586431503296,-7.240681171417236,-2.830709218978882
1781638868624082700,25.098082763671876,1.673181176185608,-6.785147666931152,-1.1001001596450806
1781638868672604700,25.146604736328126,2.013261079788208,-5.196313381195068,0.6849454641342163
1781638868721126400,25.19512646484375,-0.005383851006627083,-9.32004451751709,1.7078771591186523
1781638868769648000,25.243648193359373,3.917948007583618,-16.878372192382812,1.6136597394943237
1781638868818170000,25.292170166015627,-1.9794625043869019,-14.143376350402832,2.9823544025421143
1781638868866691800,25.34069189453125,-3.6523447036743164,-13.303495407104492,-1.7691932916641235
1781638868915213800,25.3892138671875,-1.2197413444519043,-6.8004021644592285,1.4228321313858032
1781638868963735600,25.437735595703124,-2.394318103790283,-11.749357223510742,-1.536790370941162
1781638869012257300,25.48625732421875,0.5353940725326538,-6.883253574371338,-4.182055950164795
1781638869060779000,25.534779052734375,-2.9599215984344482,-6.445366859436035,-0.046061836183071136
1781638869109301000,25.583301025390625,0.8168498277664185,-9.730711936950684,-1.0304092168807983
1781638869157822700,25.63182275390625,1.5194423198699951,-8.607880592346191,5.797211170196533
1781638869206344700,25.6803447265625,-0.6738786697387695,-7.375576496124268,3.4591243267059326
1781638869254866400,25.728866455078126,2.7580273151397705,-10.569994926452637,1.212562918663025
1781638869303388400,25.777388427734376,-0.14895321428775787,-13.630414962768555,4.31515645980835
1781638869400431900,25.874431884765624,-3.4713873863220215,-6.50189733505249,-1.7787644863128662
1781638869448953600,25.92295361328125,-2.643171787261963,-15.995421409606934,-3.3786656856536865
1781638869497475600,25.9714755859375,-4.450650215148926,-15.971492767333984,4.633102893829346
1781638869545997300,26.019997314453125,1.6911274194717407,-6.486044883728027,6.766005039215088
1781638869594519300,26.068519287109375,1.3543375730514526,-7.2349982261657715,-1.3055838346481323
1781638869643040800,26.117040771484376,1.734796404838562,-6.594020843505859,-3.281157970428467
1781638869691562800,26.165562744140626,2.1287147998809814,-5.275575637817383,0.9451649188995361
1781638869740084500,26.21408447265625,1.191625714302063,-7.481758117675781,2.555534601211548
1781638869788606200,26.262606201171874,1.2690932750701904,-18.670597076416016,1.8693926334381104
1781638869837128200,26.311128173828124,0.254536509513855,-13.790434837341309,3.7393836975097656
1781638869885650000,26.35964990234375,-4.563711166381836,-14.35274887084961,-2.5537400245666504
1781638869934171600,26.408171630859375,-0.2306082844734192,-5.44426965713501,0.9254241585731506
1781638869982693600,26.456693603515625,-1.5894324779510498,-11.485548973083496,0.48514479398727417
1781638870031215400,26.50521533203125,0.4378865361213684,-8.903095245361328,-3.977768659591675
1781638870079737000,26.553737060546876,-2.3467607498168945,-5.3470611572265625,-0.125324085354805
1781638870128259000,26.602259033203126,-1.913360834121704,-9.470791816711426,-0.23599213361740112
1781638870176780800,26.65078076171875,0.43489551544189453,-8.568099975585938,1.2451651096343994
1781638870225302500,26.699302490234373,1.0010972023010254,-7.935497283935547,4.048057556152344
1781638870273824300,26.74782421875,2.0093727111816406,-8.933005332946777,0.9786644577980042
1781638870322346000,26.796345947265625,0.12442677468061447,-13.567304611206055,3.248854875564575
1781638870370868000,26.844867919921874,-2.2764716148376465,-12.100503921508789,-2.1720848083496094
1781638870419389700,26.8933896484375,-4.097110748291016,-6.363412857055664,-2.043470621109009
1781638870467911400,26.941911376953126,-3.376272678375244,-15.479767799377441,-2.4113669395446777
1781638870516433400,26.990433349609376,-3.002394199371338,-17.680566787719727,4.599005222320557
1781638870564955100,27.038955078125,0.9101698994636536,-5.769992828369141,7.554141044616699
1781638870613476600,27.0874765625,1.4039887189865112,-7.259823799133301,-1.477268934249878
1781638870661998600,27.13599853515625,1.7204394340515137,-6.841977119445801,-2.918346405029297
1781638870710520300,27.184520263671875,2.046461582183838,-5.607879161834717,0.6302096843719482
1781638870759042300,27.233042236328124,0.9275178909301758,-7.3298139572143555,1.6348960399627686
1781638870807563800,27.281563720703126,1.0247262716293335,-17.66142463684082,1.80508553981781
1781638870856085800,27.330085693359376,0.6571289300918579,-13.783256530761719,2.833101987838745
1781638870904607500,27.378607421875,-4.928616523742676,-15.718451499938965,-3.0948169231414795
1781638871001651000,27.47565087890625,-1.8335003852844238,-7.856534004211426,1.064207911491394
1781638871050173000,27.5241728515625,-0.8676972985267639,-9.053842544555664,-5.090431213378906
1781638871098694700,27.572694580078124,-2.242074728012085,-7.306783199310303,-1.7883358001708984
1781638871147216400,27.62121630859375,-0.4408775866031647,-9.738189697265625,2.1598215103149414
1781638871195738000,27.669738037109376,-0.3397808074951172,-8.89801025390625,3.5467612743377686
1781638871244259800,27.718259765625,-0.09810572862625122,-7.543672561645508,2.228316068649292
1781638871292781800,27.76678173828125,2.999702215194702,-8.117949485778809,2.1302103996276855
1781638871341303600,27.815303466796873,-0.05114658549427986,-12.827323913574219,3.3690943717956543
1781638871389825300,27.8638251953125,-2.4655046463012695,-13.273585319519043,-1.8161523342132568
1781638871438347000,27.912346923828125,-3.3744781017303467,-6.593123912811279,-1.714158296585083
1781638871486868700,27.96086865234375,-3.483949661254883,-15.964015007019043,-2.1367905139923096
1781638871535390500,28.009390380859376,-3.5668013095855713,-15.829419136047363,2.7340989112854004
1781638871583912200,28.057912109375,1.0184451341629028,-6.0146589279174805,6.585945129394531
1781638871632434200,28.10643408203125,1.1180464029312134,-6.963712215423584,-0.8967102766036987
1781638871680956000,28.154955810546873,1.835893154144287,-7.063612461090088,-3.1360931396484375
1781638871729477600,28.2034775390625,2.3712873458862305,-5.856732368469238,0.8356932997703552
1781638871777999400,28.251999267578125,-0.6445665955543518,-8.963513374328613,3.069094181060791
1781638871826521000,28.30052099609375,2.618645191192627,-17.58156394958496,0.750449001789093
1781638871923564000,28.39756396484375,-6.124728679656982,-14.922240257263184,-3.328416347503662
1781638871972086500,28.44608642578125,0.14297115802764893,-7.643572807312012,0.8670991063117981
1781638872020608300,28.494608154296873,-2.145763635635376,-7.698607921600342,-0.2350948303937912
1781638872069130000,28.5431298828125,0.12203395366668701,-7.973782539367676,-6.491727828979492
1781638872117651700,28.591651611328125,-1.3989039659500122,-7.363612651824951,-0.4992026388645172
1781638872166173400,28.64017333984375,-1.6160526275634766,-11.029417037963867,3.655634880065918
1781638872214695200,28.688695068359376,-0.5129613280296326,-8.102097511291504,2.7702903747558594
1781638872263217000,28.737216796875,1.0893324613571167,-7.58225679397583,1.3046865463256836
1781638872311738600,28.785738525390624,3.3005998134613037,-8.911768913269043,1.578664779663086
1781638872360260400,28.83426025390625,-1.2203395366668701,-13.515559196472168,3.6155550479888916
1781638872408782000,28.882781982421875,-2.3922245502471924,-11.909078598022461,-2.1134605407714844
1781638872457304000,28.931303955078125,-3.286242723464966,-6.420541286468506,-1.3399807214736938
1781638872554347300,29.02834716796875,-3.8356947898864746,-14.915360450744629,5.851946830749512
1781638872602869200,29.076869140625,1.9932212829589844,-6.1695942878723145,5.445466041564941
1781638872651390700,29.125390625,1.4506487846374512,-7.271788120269775,-2.5220351219177246
1781638872699912700,29.17391259765625,1.4850455522537231,-6.816254615783691,-2.3874387741088867
1781638872748434400,29.222434326171875,2.573779821395874,-5.2013983726501465,0.615553617477417
1781638872796956200,29.2709560546875,-1.7333009243011475,-10.199706077575684,2.3670997619628906
1781638872845478000,29.319477783203126,4.35254430770874,-16.803895950317383,0.36999019980430603
1781638872893999000,29.3679990234375,-0.6693921089172363,-10.875378608703613,4.478765964508057
1781638872942521300,29.416521240234374,-6.553941249847412,-15.795919418334961,-4.012165546417236
1781638872991043000,29.46504296875,0.6014958024024963,-6.352046966552734,1.0345966815948486
1781638873039564800,29.513564697265625,-2.097907304763794,-9.315258979797363,0.09990034252405167
1781638873088086500,29.56208642578125,-1.197009563446045,-8.278268814086914,-6.177370548248291
1781638873136608300,29.610608154296877,-1.3456636667251587,-7.926823139190674,-0.1618146300315857
1781638873185130000,29.6591298828125,-0.771087110042572,-10.486246109008789,2.754737138748169
1781638873233651700,29.707651611328124,0.046061836183071136,-7.778468132019043,2.743072032928467
1781638873282173400,29.75617333984375,0.3358924686908722,-7.485347270965576,2.7631118297576904
1781638873330695200,29.804695068359376,2.665006160736084,-9.426225662231445,2.755634307861328
1781638873379217000,29.853216796875,-1.098903775215149,-13.386048316955566,3.10109806060791
1781638873427738600,29.901738525390623,-2.172683000564575,-11.2037935256958,-3.027817964553833
1781638873476260400,29.95026025390625,-3.47019100189209,-5.8582282066345215,-1.355234980583191
1781638873524782000,29.998781982421875,-3.0239295959472656,-19.15514373779297,-2.4951157569885254
1781638873573303800,30.0473037109375,-3.5365917682647705,-14.712569236755371,5.679962635040283
1781638873621825500,30.095825439453126,2.1424734592437744,-5.4897332191467285,5.819344520568848
1781638873670347300,30.14434716796875,1.179661512374878,-7.6474609375,-2.129014015197754
1781638873718869000,30.192868896484374,1.6136597394943237,-7.007680416107178,-2.924926519393921
1781638873767390700,30.241390625,2.4329023361206055,-5.029115200042725,0.35024940967559814
1781638873815912400,30.289912353515625,-1.2993026971817017,-10.588838577270508,2.1960129737854004
1781638873912955400,30.386955322265624,-1.1925230026245117,-12.49143123626709,4.814957141876221
1781638873961477600,30.4354775390625,-5.560022354125977,-15.332609176635742,-3.8036906719207764
1781638874009999400,30.483999267578124,0.2392822653055191,-5.882455348968506,0.4052843451499939
1781638874058521000,30.53252099609375,-1.425225019454956,-9.174979209899902,-0.8452646136283875
1781638874107042800,30.581042724609375,-0.5120640397071838,-8.161917686462402,-5.228915691375732
1781638874204086000,30.6780859375,-0.8476574420928955,-10.917851448059082,2.709273338317871
1781638874252608000,30.72660791015625,0.31016963720321655,-7.613064289093018,4.002295017242432
1781638874301129700,30.775129638671874,0.1905284970998764,-7.403393268585205,1.9543378353118896
1781638874349651200,30.823651123046876,3.136990547180176,-9.638289451599121,1.8239290714263916
1781638874398173200,30.872173095703126,-0.10827522724866867,-13.652548789978027,3.692723512649536
1781638874446694700,30.920694580078123,-2.163111686706543,-12.141779899597168,-1.0615159273147583
1781638874495216400,30.96921630859375,-3.7405800819396973,-5.968596935272217,-2.4990041255950928
1781638874543738000,31.017738037109375,-2.061715841293335,-14.757434844970703,-2.9542386531829834
1781638874592259800,31.066259765625,-5.01206636428833,-17.0207462310791,4.696512699127197
1781638874640781600,31.114781494140626,1.807478427886963,-6.850651264190674,6.327520370483398
1781638874689303300,31.16330322265625,1.3782658576965332,-7.606184959411621,-1.352842092514038
1781638874737825000,31.211824951171874,1.8897316455841064,-6.565307140350342,-2.978466033935547
1781638874786346500,31.260346435546875,2.4233310222625732,-4.7386860847473145,0.39960137009620667
1781638874834868500,31.308868408203125,0.508773922920227,-8.559724807739258,2.415255308151245
1781638874883389700,31.3573896484375,1.04715895652771,-17.995820999145508,0.9323035478591919
1781638874980433400,31.454433349609374,-6.837790012359619,-15.883556365966797,-3.696911096572876
1781638875028955100,31.502955078125,-0.012861421331763268,-7.3058857917785645,0.3332005441188812
1781638875077476900,31.551476806640625,-1.9540387392044067,-7.976175308227539,1.225723385810852
1781638875125998300,31.599998291015623,0.07896314561367035,-9.201898574829102,-4.716851711273193
1781638875174520300,31.648520263671877,-2.470888376235962,-6.926324367523193,-1.7802600860595703
1781638875223042000,31.6970419921875,-1.1611171960830688,-10.569994926452637,1.5020943880081177
1781638875271563800,31.745563720703124,0.2991028428077698,-8.661120414733887,2.8755745887756348
1781638875320085200,31.794085205078126,0.1657029688358307,-7.122535705566406,2.74755859375
1781638875368607000,31.84260693359375,2.108675003051758,-9.011968612670898,1.4554343223571777
1781638875417128400,31.89112841796875,0.641276478767395,-12.894023895263672,2.9991040229797363
1781638875465650400,31.939650390625,-1.8218353986740112,-12.498311042785645,0.6738786697387695
1781638875514172000,31.988171875,-3.508775234222412,-8.293522834777832,-1.1135598421096802
1781638875562694000,32.03669384765625,-2.7335007190704346,-11.267203330993652,-3.8087754249572754
1781638875611215400,32.08521533203125,-4.0695929527282715,-16.789838790893555,1.0336993932724
1781638875659737000,32.13373706054688,-0.4181457459926605,-9.417252540588379,7.042974472045898
1781638875756780300,32.2307802734375,1.7691932916641235,-7.250252723693848,-3.3538401126861572
1781638875805302000,32.27930200195313,1.6480566263198853,-5.909673690795898,0.5033900737762451
1781638875853824000,32.32782397460937,2.5761725902557373,-5.934200286865234,1.7476578950881958
1781638875902345500,32.376345458984375,-2.2444677352905273,-17.23490333557129,2.083550214767456
1781638875950867200,32.4248671875,5.280361175537109,-12.510574340820312,3.441477060317993
1781638875999388700,32.473388671875,-5.337789058685303,-14.510674476623535,-1.7545372247695923
1781638876047910700,32.52191064453125,-1.9573289155960083,-10.694122314453125,-1.2251251935958862
1781638876096432000,32.57043212890625,-1.4467604160308838,-7.09800910949707,2.383849620819092
1781638876144953900,32.61895385742187,-1.0121639966964722,-9.263513565063477,-4.272085666656494
1781638876193475600,32.6674755859375,-0.37088751792907715,-6.515655994415283,-3.235694408416748
1781638876241997300,32.715997314453126,-1.6773686408996582,-9.76660442352295,2.2133610248565674
1781638876290518800,32.76451879882813,-0.9649057388305664,-9.013164520263672,2.7427730560302734
1781638876339040500,32.81304052734375,-0.582054078578949,-8.242376327514648,1.8831514120101929
1781638876387561700,32.861561767578124,1.9061822891235352,-7.41625452041626,1.3510475158691406
1781638876436083500,32.91008349609375,1.9286150932312012,-10.554142951965332,2.4502503871917725
1781638876484605400,32.95860546875,-1.8080766201019287,-14.810076713562012,2.0656042098999023
1781638876533127200,33.007127197265625,-2.822932481765747,-9.904491424560547,-1.3615161180496216
1781638876581649000,33.05564892578125,-3.507878065109253,-8.500203132629395,-2.24057936668396
1781638876630170600,33.10417065429687,-2.9030921459198,-16.50509262084961,-2.674278497695923
1781638876678692000,33.152692138671874,-2.4574289321899414,-11.717652320861816,5.9452667236328125
1781638876727214000,33.20121411132813,1.2460623979568481,-6.225227355957031,3.1543383598327637
1781638876775735600,33.24973559570312,1.4371891021728516,-7.1958160400390625,-3.0302107334136963
1781638876824257300,33.29825732421875,1.3079767227172852,-6.879364967346191,-0.6753742098808289
1781638876872778800,33.34677880859375,2.7340989112854004,-5.562714576721191,1.0992028713226318
1781638876921300500,33.39530053710938,-3.321237802505493,-12.629916191101074,2.3096721172332764
1781638876969822200,33.443822265625,6.1695942878723145,-15.3158597946167,1.454836130142212
1781638877018343700,33.49234375,-3.4896326065063477,-14.11705493927002,1.8337994813919067
1781638877066865400,33.54086547851563,-3.55005145072937,-13.243675231933594,-1.9160526990890503
1781638877163908900,33.637908935546875,-1.1279168128967285,-9.877572059631348,-1.8864415884017944
1781638877212430600,33.6864306640625,-1.5960127115249634,-6.905087947845459,-5.432604789733887
1781638877260952000,33.7349521484375,-1.4060823917388916,-7.953144073486328,-0.19770696759223938
1781638877357995500,33.83199560546875,-0.9804590940475464,-8.249555587768555,2.015354871749878
1781638877406517000,33.88051708984375,0.6810571551322937,-8.132307052612305,1.2266206741333008
1781638877455038700,33.92903881835937,3.2141590118408203,-9.580862045288086,2.384746789932251
1781638877503560400,33.977560546875,-1.8783657550811768,-13.670793533325195,3.6457643508911133
1781638877552082000,34.02608203125,-3.098107099533081,-11.209775924682617,-1.2705888748168945
1781638877600603600,34.07460375976562,-3.720839262008667,-8.114958763122559,-3.0188448429107666
1781638877649125400,34.12312548828125,-2.7798616886138916,-16.342979431152344,-3.0326035022735596
1781638877697647000,34.17164721679688,-3.5213375091552734,-12.732807159423828,5.819942951202393
1781638877746168600,34.22016845703125,1.1829516887664795,-6.302096843719482,4.175475597381592
1781638877794690300,34.26869018554687,1.4482558965682983,-7.241578578948975,-3.035893678665161
1781638877843211800,34.317211669921875,1.4419747591018677,-6.695117950439453,-1.5284154415130615
1781638877891733500,34.3657333984375,2.610569477081299,-5.2268218994140625,1.394118309020996
1781638877940255000,34.4142548828125,-2.539682149887085,-12.495320320129395,2.4017956256866455
1781638877988777000,34.46277685546875,5.370391368865967,-15.756138801574707,0.9936196208000183
1781638878037298400,34.51129833984375,-2.744567632675171,-12.595818519592285,2.8594231605529785
1781638878085820200,34.55982006835937,-4.875675201416016,-14.891133308410645,-4.026223182678223
1781638878134341600,34.60834155273437,-0.10588239878416061,-6.3514485359191895,1.4333007335662842
1781638878182863400,34.65686328125,-2.0042879581451416,-8.765806198120117,-0.34695929288864136
1781638878231384800,34.705384765625,0.11246266216039658,-7.06271505355835,-5.222634315490723
1781638878328428300,34.80242822265625,-1.1958130598068237,-10.913663864135742,3.506382465362549
1781638878376950000,34.85094995117188,-0.7513462901115417,-7.978568077087402,1.989033818244934
1781638878425471500,34.89947143554687,0.39960137009620667,-7.6043901443481445,1.329512119293213
1781638878473993200,34.9479931640625,3.4019956588745117,-9.304191589355469,0.8081758618354797
1781638878522514700,34.9965146484375,-1.0241280794143677,-13.529617309570312,2.523829698562622
1781638878571036400,35.04503637695313,-2.604886531829834,-12.19920825958252,-1.862214207649231
1781638878619558100,35.09355810546875,-4.3055853843688965,-7.037291526794434,-1.0043872594833374
1781638878668079900,35.142079833984376,-3.074777126312256,-17.310575485229492,-2.1822543144226074
1781638878716601300,35.19060131835938,-2.4496521949768066,-13.893326759338379,3.7887356281280518
1781638878765123000,35.239123046875,0.4450650215148926,-5.96590518951416,4.693222522735596
1781638878813644500,35.28764453125,1.184447169303894,-6.500401973724365,-0.8844470977783203
1781638878862166300,35.336166259765626,1.5840486288070679,-6.3631134033203125,-2.0955145359039307
1781638878910687700,35.38468774414063,2.9781668186187744,-5.621338367462158,0.7513462901115417
1781638878959209500,35.43320947265625,-2.6673989295959473,-12.410075187683105,3.2853455543518066
1781638879007731000,35.48173095703125,4.922933578491211,-16.046268463134766,0.37088751792907715
1781638879056252700,35.53025268554688,-1.329512119293213,-11.894721031188965,3.8985064029693604
1781638879104774100,35.57877416992188,-5.505885124206543,-14.274981498718262,-3.2440693378448486
1781638879153296000,35.6272958984375,0.268594354391098,-7.523632526397705,0.37507495284080505
1781638879201817300,35.6758173828125,-2.539682149887085,-8.511270523071289,-1.3486546277999878
1781638879250339000,35.72433911132813,-0.6786643266677856,-7.648358345031738,-4.572085857391357
1781638879298860800,35.77286083984375,-1.2604193687438965,-8.285447120666504,0.15643078088760376
1781638879347382500,35.821382568359375,-1.4557334184646606,-10.491929054260254,2.8755745887756348
1781638879395904000,35.86990405273438,-0.1498505175113678,-8.294121742248535,2.3458635807037354
1781638879444425700,35.91842578125,0.7591229677200317,-7.1799635887146,1.8918254375457764
1781638879492947200,35.966947265625,3.2838499546051025,-8.839685440063477,2.1649062633514404
1781638879541468700,36.01546875,-1.719542145729065,-14.458032608032227,3.3541390895843506
1781638879589990400,36.06399047851563,-2.4472594261169434,-11.438589096069336,-2.501995086669922
1781638879638512000,36.11251220703125,-3.3613176345825195,-6.762714862823486,-1.083051323890686
1781638879687033600,36.16103369140625,-3.4193434715270996,-17.222640991210938,-2.1439690589904785
1781638879735555300,36.20955541992188,-2.837289333343506,-13.686945915222168,4.204189300537109
1781638879784076800,36.25807690429688,0.8533403873443604,-6.236293792724609,4.41057014465332
1781638879881120000,36.3551201171875,1.3414762020111084,-6.40020227432251,-1.5251253843307495
1781638879929641700,36.40364184570313,2.9377880096435547,-5.092525005340576,1.1515458822250366
1781638879978163200,36.4521630859375,-2.8824539184570312,-12.94666576385498,2.4038894176483154
1781638880026685000,36.50068481445312,4.845465660095215,-16.211374282836914,0.7447660565376282
1781638880075206400,36.549206298828125,-0.838983416557312,-11.548359870910645,3.1585259437561035
1781638880123728100,36.59772802734375,-5.2268218994140625,-14.14307689666748,-4.173680782318115
1781638880172249600,36.64624951171875,0.4298107624053955,-6.9481587409973145,1.8113667964935303
1781638880220771300,36.694771240234374,-3.0891339778900146,-9.075976371765137,-0.7594220638275146
1781638880269293000,36.74329296875,0.7651050686836243,-7.494320392608643,-5.818746566772461
1781638880317814500,36.791814453125,-1.4581263065338135,-7.9713897705078125,1.602293848991394
1781638880366336000,36.8403359375,-1.7653049230575562,-10.589137077331543,3.0215368270874023
1781638880414857700,36.888857666015625,-0.1453639715909958,-8.394021987915039,2.117648124694824
1781638880463379200,36.937379150390626,0.5670989751815796,-7.77816915512085,1.6295121908187866
1781638880511901000,36.98590087890625,3.249453067779541,-8.785547256469727,0.8207381963729858
1781638880560422400,37.03442236328125,-1.4850455522537231,-14.023735046386719,2.6943182945251465
1781638880608944000,37.082944091796875,-2.27168607711792,-11.924930572509766,-2.170290231704712
1781638880657465600,37.13146557617188,-3.6930227279663086,-6.202794551849365,-0.9891330599784851
1781638880705987300,37.1799873046875,-2.7723841667175293,-15.50220012664795,-2.485544443130493
1781638880754508800,37.2285087890625,-3.044567823410034,-15.414563179016113,3.604189157485962
1781638880803030500,37.277030517578126,0.6684948205947876,-6.756732940673828,5.72123908996582
1781638880851552000,37.32555200195313,0.7666005492210388,-7.144071102142334,-1.4554343223571777
1781638880900073500,37.37407348632812,1.8191434144973755,-6.6352972984313965,-2.5420749187469482
1781638880948595200,37.42259521484375,2.7335007190704346,-5.358427047729492,1.3576277494430542
1781638880997117000,37.47111694335938,0.33888351917266846,-9.156734466552734,2.6709883213043213
1781638881045638400,37.51963842773438,0.6095715761184692,-17.307884216308594,0.6197410821914673
1781638881094160100,37.56816015625,2.384148597717285,-12.934701919555664,3.233600616455078
1781638881142681600,37.616681640625,-5.689234733581543,-13.714761734008789,-3.4417762756347656
1781638881191203000,37.665203125,-0.6708876490592957,-8.383553504943848,0.8703892230987549
1781638881239724800,37.71372485351562,-1.85383939743042,-8.122137069702148,1.0058828592300415
1781638881288246500,37.76224658203125,-0.041575293987989426,-8.557631492614746,-4.3686957359313965
1781638881336768000,37.81076806640625,-0.8039883971214294,-6.830611228942871,-1.3657035827636719
1781638881385289700,37.85928979492188,-1.6576279401779175,-10.361519813537598,2.449352979660034
1781638881482332700,37.956332763671874,0.23270200192928314,-8.021638870239258,1.7784653902053833
1781638881530854400,38.0048544921875,2.721536636352539,-7.788039684295654,0.7304090857505798
1781638881579375900,38.0533759765625,-0.18424734473228455,-12.69482135772705,2.6210381984710693
1781638881627897300,38.1018974609375,-2.097907304763794,-14.15683650970459,-0.6526423692703247
1781638881676419000,38.150419189453125,-4.074378967285156,-6.533003807067871,-0.4657030999660492
1781638881724940500,38.1989404296875,-2.1215364933013916,-11.912069320678711,-2.4951157569885254
1781638881773462300,38.24746215820313,-4.158725738525391,-17.698213577270508,1.186241865158081
1781638881821983700,38.29598364257812,0.4172484576702118,-7.505387306213379,5.955735683441162
1781638881870505200,38.34450512695312,0.7905287742614746,-7.017251491546631,0.7184450030326843
1781638881919027000,38.39302685546875,1.7533408403396606,-7.0067830085754395,-3.1998021602630615
1781638881967548400,38.44154833984375,1.7880367040634155,-5.9916276931762695,0.16271193325519562
1781638882016070100,38.49007006835937,2.213959217071533,-6.797111988067627,2.0673987865448
1781638882064592000,38.538591796875,-1.657328724861145,-18.160627365112305,0.7313064336776733
1781638882113113000,38.587113037109376,4.109074592590332,-12.22104263305664,3.3505499362945557
1781638882161634800,38.635634765625,-6.04247522354126,-14.517852783203125,-1.82273268699646
1781638882210156300,38.68415625,-0.709172785282135,-9.803394317626953,-0.706480860710144
1781638882258677800,38.732677734375,-1.9797616004943848,-6.475576400756836,1.2370892763137817
1781638882307199500,38.781199462890626,-0.5335994362831116,-9.725028991699219,-4.304687976837158
1781638882355721200,38.82972119140625,-0.9852447509765625,-6.521338939666748,-2.0267207622528076
1781638882404242700,38.87824267578125,-2.176870346069336,-10.390533447265625,2.4735803604125977
1781638882452764200,38.92676416015625,0.15463615953922272,-8.565407752990723,2.4726831912994385
1781638882501286000,38.97528588867188,0.06939185410737991,-7.584649562835693,1.261914849281311
1781638882549807400,39.02380737304688,2.5546371936798096,-8.197212219238281,1.7021942138671875
1781638882598328800,39.07232885742187,-0.22073788940906525,-13.160524368286133,3.4734811782836914
1781638882646850300,39.120850341796874,-2.3443679809570312,-13.863117218017578,-0.3044866919517517
1781638882695372000,39.1693720703125,-3.8769710063934326,-6.732505798339844,-1.0265209674835205
1781638882743893800,39.21789379882812,-2.1684954166412354,-12.600604057312012,-3.806382656097412
1781638882792415200,39.26641528320312,-4.5200419425964355,-16.511972427368164,2.0736799240112305
1781638882840936700,39.314936767578125,0.6340979933738708,-7.733004570007324,5.713163375854492
1781638882889458400,39.36345849609375,0.8093722462654114,-6.3993048667907715,0.2766701281070709
1781638882937979600,39.41197973632813,1.9061822891235352,-6.718148708343506,-3.327518939971924
1781638882986501400,39.46050146484375,2.1337995529174805,-6.283552169799805,-0.015254244208335876
1781638883035022800,39.50902294921875,0.5676971673965454,-8.058428764343262,2.4257240295410156
1781638883132066000,39.60606616210937,2.202892303466797,-13.324731826782227,3.57906436920166
1781638883180587800,39.654587890625,-5.322535037994385,-13.979766845703125,-3.2350962162017822
1781638883229109000,39.70310888671875,-1.1647064685821533,-8.617152214050293,0.3197409212589264
1781638883277630700,39.751630615234376,-1.4691931009292603,-7.45992374420166,1.0869396924972534
1781638883326152200,39.80015209960938,0.12921242415905,-9.348159790039062,-3.421736478805542
1781638883374674000,39.848673828125,-1.1285150051116943,-7.134500026702881,-1.561017632484436
1781638883423195400,39.8971953125,-2.114656925201416,-10.22303581237793,1.7524434328079224
1781638883471717000,39.94571704101563,0.4944169819355011,-8.626724243164062,3.0526435375213623
1781638883520238300,39.99423828125,0.16271193325519562,-7.383652687072754,2.0084755420684814
1781638883568760000,40.04276000976562,1.968694806098938,-8.590831756591797,0.2997010350227356
1781638883617281500,40.091281494140624,0.3164508044719696,-13.662419319152832,3.2222347259521484
1781638883665803300,40.13980322265625,-2.45204496383667,-13.371990203857422,0.3152543902397156
1781638883714324700,40.18832470703125,-3.789632797241211,-7.026822566986084,-1.2945170402526855
1781638883762846200,40.23684619140625,-2.108675003051758,-10.775777816772461,-3.5096726417541504
1781638883811367700,40.28536767578125,-4.2415771484375,-17.135900497436523,1.170987606048584
1781638883859889400,40.333889404296876,0.09481559693813324,-8.563314437866211,6.314060688018799
1781638883908411000,40.38241088867188,0.8709874153137207,-6.695117950439453,1.1901301145553589
1781638883956932400,40.43093237304687,1.628614902496338,-7.290332317352295,-3.418745279312134
1781638884005453800,40.47945385742187,2.1367905139923096,-6.1073808670043945,-0.13220344483852386
1781638884053975300,40.527975341796875,1.9755741357803345,-6.950252532958984,2.058724880218506
1781638884102497000,40.5764970703125,-1.0040881633758545,-17.37248992919922,1.0271191596984863
1781638884151018800,40.62501879882812,4.125226020812988,-12.621541023254395,4.038187503814697
1781638884199540200,40.673540283203124,-4.85324239730835,-13.180564880371094,-1.843370795249939
1781638884248061700,40.722061767578126,-2.486142635345459,-10.651350975036621,-2.1975085735321045
1781638884296583200,40.77058325195313,-0.34217363595962524,-6.517151355743408,1.8200407028198242
1781638884345104600,40.81910473632813,-1.2481560707092285,-9.778569221496582,-2.4583261013031006
1781638884393626400,40.86762646484375,-1.179063320159912,-6.684051036834717,-3.6481571197509766
1781638884442147800,40.91614794921875,-2.0165512561798096,-9.682257652282715,1.4682958126068115
1781638884490669300,40.96466943359375,-0.1540379524230957,-9.697213172912598,2.691925525665283
1781638884539191000,41.01319091796875,0.4211367964744568,-7.244569778442383,2.148754835128784
1781638884587712500,41.06171240234375,1.5643078088760376,-8.574380874633789,1.815255045890808
1781638884636234000,41.11023388671875,0.5997011661529541,-12.690633773803711,2.6075785160064697
1781638884733277000,41.20727685546875,-3.2518460750579834,-7.978568077087402,-1.6103696823120117
1781638884781798700,41.25579858398437,-1.9016958475112915,-8.304888725280762,-3.747758388519287
1781638884830319900,41.30431982421875,-3.2374889850616455,-18.06012725830078,-0.7974081635475159
1781638884878841600,41.352841552734375,-2.045863389968872,-11.187941551208496,5.651248931884766
1781638884927363300,41.40136328125,1.4189438819885254,-5.982655048370361,2.8564319610595703
1781638884975884500,41.44988452148438,1.6420745849609375,-6.596413612365723,-2.355135679244995
1781638885024406000,41.49840600585937,1.3671990633010864,-6.398407936096191,-1.2370892763137817
1781638885072927700,41.546927734375,3.327518939971924,-5.680561065673828,2.2004995346069336
1781638885121449200,41.59544921875,-3.3684961795806885,-16.6627197265625,2.0027925968170166
1781638885169970700,41.643970703125,4.060021877288818,-14.55075454711914,2.720639228820801
1781638885218492200,41.6924921875,-4.430610179901123,-14.277973175048828,-1.1614162921905518
1781638885267014000,41.741013916015625,-1.6121642589569092,-10.039386749267578,-1.3298112154006958
1781638885315535400,41.789535400390626,-0.5575276613235474,-6.81804895401001,1.7641085386276245
1781638885364056800,41.83805688476563,-0.29042884707450867,-9.572786331176758,-2.996711254119873
1781638885412578300,41.88657836914062,-1.4515460729599,-6.472585201263428,-3.0622148513793945
1781638885461100000,41.93510009765625,-1.7787644863128662,-9.448657989501953,0.8303094506263733
1781638885509621500,41.98362158203125,0.2877369225025177,-9.347860336303711,3.853940010070801
1781638885558143000,42.03214306640625,0.03678964823484421,-7.21735143661499,2.178964138031006
1781638885606664400,42.08066455078125,1.6740785837173462,-8.552546501159668,0.17706887423992157
1781638885655186000,42.12918603515625,1.5152549743652344,-12.803994178771973,2.1415762901306152
1781638885703707400,42.177707275390624,-2.103889226913452,-14.089837074279785,0.42352959513664246
1781638885752229000,42.22622900390625,-3.614956855773926,-8.309675216674805,-0.1899302899837494
1781638885800750600,42.27475048828125,-3.5907294750213623,-9.580862045288086,-2.925823926925659
1781638885849272000,42.32327197265625,-2.868396043777466,-16.64537239074707,-0.6278168559074402
1781638885897793500,42.37179345703125,-1.1853444576263428,-9.39751148223877,6.4803619384765625
1781638885946315300,42.420315185546876,1.2681959867477417,-6.9481587409973145,2.3401806354522705
1781638885994836700,42.46883666992188,2.092822551727295,-7.435995578765869,-3.649951934814453
1781638886043358200,42.51735815429687,1.6295121908187866,-6.431009769439697,-0.8949156403541565
1781638886091879700,42.56587963867187,1.9070796966552734,-6.529414653778076,0.9011968374252319
1781638886140401200,42.614401123046875,-0.8093722462654114,-16.22184181213379,0.5925226807594299
1781638886188922600,42.662922607421876,4.496711730957031,-12.960125923156738,2.7738797664642334
1781638886237444400,42.7114443359375,-5.782555103302002,-14.936596870422363,-1.4087743759155273
1781638886334487300,42.8084873046875,-0.9014959335327148,-5.837589740753174,0.46480581164360046
1781638886383008800,42.8570087890625,-0.15732808411121368,-9.75942611694336,-4.181158542633057
1781638886431530200,42.9055302734375,-1.6821542978286743,-7.0546393394470215,-1.9166508913040161
1781638886480051700,42.9540517578125,-1.3863415718078613,-10.289137840270996,2.155334949493408
1781638886528573200,43.0025732421875,0.4546363055706024,-8.970093727111816,2.988037347793579
1781638886577094700,43.0510947265625,0.054137613624334335,-7.175177574157715,1.89840567111969
1781638886625616100,43.0996162109375,2.2510478496551514,-8.583054542541504,1.379163146018982
1781638886674137600,43.1481376953125,0.7734799385070801,-13.370494842529297,2.659024238586426
1781638886722659300,43.19665942382812,-1.7593228816986084,-13.618451118469238,0.2111666053533554
1781638886771180800,43.245180908203125,-3.570091485977173,-7.853243827819824,-0.8670991063117981
1781638886819702300,43.293702392578126,-2.6479573249816895,-9.45583724975586,-3.715156316757202
1781638886868223700,43.3422236328125,-3.5141592025756836,-17.34407615661621,0.5198407173156738
1781638886916745200,43.3907451171875,-1.0734800100326538,-9.960423469543457,6.0146589279174805
1781638886965266700,43.4392666015625,1.4889339208602905,-6.7794647216796875,2.0084755420684814
1781638887013788200,43.4877880859375,1.4653047323226929,-6.449554443359375,-2.644667148590088
1781638887062309600,43.5363095703125,1.7635103464126587,-5.6671013832092285,-0.7642077207565308
1781638887110831400,43.58483129882813,3.1570303440093994,-5.871089458465576,1.3926228284835815
1781638887159352600,43.6333525390625,-2.228316068649292,-16.768901824951172,2.3075783252716064
1781638887207874300,43.681874267578124,5.01924467086792,-13.257134437561035,4.480261325836182
1781638887256395800,43.730395751953125,-4.130012035369873,-14.582459449768066,0.33080771565437317
1781638887304917200,43.77891723632813,-2.0401804447174072,-10.85444164276123,-2.806182861328125
1781638887353438700,43.82743872070313,-0.6499504446983337,-6.837790012359619,0.0972084179520607
1781638887401960200,43.87596020507812,-1.9779670238494873,-10.85563850402832,-3.303590774536133
1781638887450481700,43.924481689453124,0.8781659007072449,-6.363412857055664,-1.3860424757003784
1781638887499003100,43.973003173828126,-3.277568817138672,-8.595019340515137,1.048953652381897
1781638887547524600,44.02152465820313,-0.373878538608551,-10.166504859924316,0.2066800594329834
1781638887596046000,44.07004614257813,1.1685947179794312,-6.600302219390869,2.4966113567352295
1781638887644567800,44.11856787109375,0.6610172390937805,-8.732307434082031,3.36759877204895
1781638887693089000,44.167089111328124,0.8590233325958252,-11.82473087310791,1.7389838695526123
1781638887741610800,44.21561083984375,-1.2218350172042847,-13.430315017700195,2.0802602767944336
1781638887790132000,44.26413208007813,-2.8028926849365234,-9.791430473327637,-1.1979068517684937
1781638887838653700,44.31265380859375,-3.4983067512512207,-8.933303833007812,-2.404188632965088
1781638887935696600,44.409696533203125,-2.355135679244995,-11.09611701965332,4.507180690765381
1781638887984218000,44.458218017578126,0.9245268702507019,-6.835396766662598,2.9464619159698486
1781638888032739600,44.50673950195313,1.103689432144165,-6.339484691619873,-1.8993029594421387
1781638888081261000,44.55526098632812,1.350150227546692,-6.337091445922852,-0.9182456731796265
1781638888129782500,44.60378247070312,2.6401805877685547,-5.68385124206543,1.409970760345459
1781638888178304000,44.652303955078125,-3.238386392593384,-14.575579643249512,0.8781659007072449
1781638888226825500,44.700825439453126,5.260022163391113,-14.602499008178711,1.3504493236541748
1781638888275347000,44.74934692382813,-4.631009101867676,-14.870794296264648,2.0419750213623047
1781638888323868400,44.79786840820312,-1.2664014101028442,-8.82233715057373,-1.7069798707962036
1781638888420911400,44.894911376953125,-0.3978067636489868,-10.322636604309082,-4.595715045928955
1781638888469432800,44.94343286132813,0.06610172241926193,-7.319644451141357,-0.7657032608985901
1781638888517954300,44.99195434570313,-2.0635104179382324,-8.500203132629395,0.372682124376297
1781638888566475800,45.04047583007812,0.038285162299871445,-9.79681396484375,1.8200407028198242
1781638888614997500,45.08899755859375,0.1091725304722786,-6.52044153213501,2.2187447547912598
1781638888663519000,45.13751904296875,0.804885745048523,-7.22871732711792,1.9510477781295776
1781638888712040200,45.18604028320313,2.0228323936462402,-12.32363510131836,3.0370900630950928
1781638888760561700,45.23456176757813,-0.5727819204330444,-13.211372375488281,2.8516464233398438
1781638888809083100,45.28308325195312,-4.411766529083252,-10.28195858001709,2.215155601501465
1781638888857604600,45.3316044921875,-4.771886348724365,-12.16511058807373,-5.135894775390625
1781638888906126000,45.3801259765625,-3.596412420272827,-15.77109432220459,2.344966173171997
1781638888954647800,45.42864770507813,-1.944467544555664,-9.551250457763672,4.9393839836120605
1781638889003169000,45.4771689453125,1.8394824266433716,-6.297310829162598,-0.08703892678022385
1781638889051690500,45.5256904296875,0.7935197949409485,-6.762714862823486,-0.4181457459926605
1781638889100212000,45.5742119140625,1.1829516887664795,-5.734997749328613,1.083350419998169
1781638889148733400,45.6227333984375,2.996711254119873,-4.7249274253845215,1.43389892578125
1781638889197255000,45.6712548828125,-1.960319995880127,-10.22602653503418,3.6705899238586426
1781638889245776600,45.71977661132812,2.383849620819092,-15.178272247314453,1.7793627977371216
1781638889294297900,45.7682978515625,-0.32691940665245056,-12.196216583251953,5.80409049987793
1781638889342819300,45.8168193359375,-4.18564510345459,-16.793725967407227,-4.456034183502197
1781638889391340800,45.8653408203125,1.2305090427398682,-7.074080944061279,-3.8006997108459473
1781638889439862300,45.9138623046875,-2.45204496383667,-14.681462287902832,-2.601895570755005
1781638889536905200,46.0109052734375,0.17527425289154053,-7.017550468444824,-0.26620152592658997
1781638889585426700,46.0594267578125,-3.5566318035125732,-9.1414794921875,2.421536445617676
1781638889633948200,46.1079482421875,1.3046865463256836,-7.387540817260742,0.6014958024024963
1781638889682469600,46.1564697265625,0.8988040089607239,-6.9206414222717285,0.06699903309345245
1781638889730991000,46.2049912109375,2.617149829864502,-9.807282447814941,2.1158533096313477
1781638889779512300,46.25351220703125,-0.654137909412384,-15.08764362335205,4.70817756652832
1781638889828034000,46.30203393554687,-1.6576279401779175,-11.459227561950684,0.3454637825489044
1781638889876555300,46.35055517578125,-3.8276188373565674,-7.8541412353515625,-1.7994025945663452
1781638889925077000,46.39907690429688,-3.228515863418579,-14.347962379455566,-1.1494522094726562
1781638889973598200,46.44759814453125,-4.3325042724609375,-14.971293449401855,3.5907294750213623
1781638890022120000,46.49611987304687,1.205085277557373,-6.461219310760498,2.0823538303375244
1781638890070641400,46.544641357421874,0.7100701332092285,-7.372884750366211,-0.45224347710609436
1781638890119162600,46.59316259765625,1.1279168128967285,-5.9647088050842285,-0.0933200865983963
1781638890167684000,46.64168408203125,2.7140591144561768,-4.90109920501709,0.24257239699363708
1781638890216205800,46.69020581054688,0.2147558331489563,-9.080761909484863,3.036491870880127
1781638890264727300,46.73872729492187,2.0802602767944336,-18.003000259399414,-0.13220344483852386
1781638890313248500,46.78724853515625,-1.2305090427398682,-15.345769882202148,2.207977056503296
1781638890361770000,46.83577001953125,-0.1417747437953949,-10.326824188232422,-1.495514154434204
1781638890410291500,46.88429150390625,-1.5466607809066772,-8.173283576965332,0.2521436810493469
1781638890458813000,46.93281298828125,-1.4841482639312744,-12.025429725646973,-1.6193426847457886
1781638890507334400,46.98133447265625,0.4369892477989197,-8.01775074005127,-2.3682961463928223
1781638890555856000,47.02985595703125,-1.0791629552841187,-6.956533432006836,1.0839486122131348
1781638890604377300,47.07837744140625,-1.7802600860595703,-7.737491130828857,-0.10618150234222412
1781638890652898800,47.12689892578125,-0.5910272002220154,-8.182855606079102,1.9055840969085693
1781638890701420300,47.17542016601563,0.08225327730178833,-7.499105930328369,0.353240430355072
1781638890749941800,47.22394165039063,2.8809585571289062,-9.915258407592773,0.30927231907844543
1781638890798463000,47.272462890625,-0.8718847632408142,-13.91815185546875,3.94815731048584
1781638890895506000,47.369505859375,-3.3628132343292236,-7.617849826812744,-1.312164068222046
1781638890944027400,47.41802734375,-1.6016956567764282,-13.649558067321777,-2.0309081077575684
1781638890992548900,47.466548828125,-5.050351142883301,-15.585948944091797,4.607080936431885
1781638891041070300,47.5150703125,1.7132610082626343,-7.533204078674316,3.280559778213501
1781638891138113300,47.61211328125,1.3980066776275635,-6.308377742767334,-1.0791629552841187
1781638891186634500,47.660634521484376,2.2582263946533203,-4.8828535079956055,0.3071786165237427
1781638891235156000,47.70915600585938,1.2840484380722046,-7.638787269592285,1.872084617614746
1781638891283677400,47.75767749023437,0.7968099117279053,-18.212371826171875,0.5033900737762451
1781638891332199000,47.80619897460937,1.3130614757537842,-11.895618438720703,4.432105541229248
1781638891380720000,47.85472021484375,-3.2069804668426514,-13.447065353393555,-2.3258235454559326
1781638891429241900,47.903241943359376,-0.24257239699363708,-9.18305492401123,-0.7172485589981079
1781638891477763000,47.95176318359375,-2.2642083168029785,-10.6624174118042,-0.8341978192329407
1781638891526284800,48.00028491210937,0.41216370463371277,-9.44746208190918,-4.060021877288818
1781638891574806000,48.04880590820313,-1.1359925270080566,-6.580262184143066,-0.664606511592865
1781638891623327500,48.09732739257812,-2.783750057220459,-8.866903305053711,-0.20997019112110138
1781638891671849000,48.145848876953124,0.1178465187549591,-8.173283576965332,1.0247262716293335
1781638891720370400,48.194370361328126,1.532303810119629,-6.064310073852539,2.479562520980835
1781638891768891600,48.2428916015625,1.9301105737686157,-9.803394317626953,3.341277837753296
1781638891817413400,48.29141333007812,-1.0959128141403198,-15.261423110961914,4.429114818572998
1781638891865934800,48.33993481445312,-0.783948540687561,-12.944572448730469,0.7920243144035339
1781638891914456000,48.3884560546875,-2.5884358882904053,-7.413562774658203,-1.3175479173660278
1781638891962977500,48.4369775390625,-2.487638235092163,-10.84427261352539,-3.035893678665161
1781638892011499000,48.4854990234375,-4.0420756340026855,-17.008182525634766,1.1270195245742798
1781638892060020500,48.5340205078125,-0.9954141974449158,-8.730512619018555,4.386641979217529
1781638892108541700,48.58254174804687,1.6453646421432495,-6.308976173400879,0.5015954375267029
1781638892157063400,48.6310634765625,1.1069796085357666,-6.192026615142822,-1.5499508380889893
1781638892205584600,48.679584716796874,2.210070848464966,-5.613562107086182,-0.6397809386253357
1781638892254106000,48.728106201171876,2.848954439163208,-6.449255466461182,1.459621787071228
1781638892302627600,48.77662768554688,-2.1352951526641846,-17.99941062927246,1.8215361833572388
1781638892351149000,48.82514916992187,3.9951164722442627,-12.765708923339844,3.9361932277679443
1781638892399670300,48.87367016601563,-3.7806596755981445,-14.315361022949219,-0.3900300860404968
1781638892448192000,48.92219189453125,-0.6882356405258179,-9.871291160583496,-2.775674343109131
1781638892496713200,48.970713134765624,-1.1635099649429321,-9.22253704071045,-0.3900300860404968
1781638892545234700,49.019234619140626,-0.9092726111412048,-10.116255760192871,-3.0972096920013428
1781638892593756200,49.06775610351563,0.4489533603191376,-6.413661956787109,-1.1766705513000488
1781638892642277600,49.11627758789062,-3.4337005615234375,-8.037490844726562,0.6394818425178528
1781638892739320300,49.2133203125,0.3367897868156433,-6.8880391120910645,2.1960129737854004
1781638892787841800,49.261841796875,1.693221092224121,-9.220442771911621,2.7254250049591064
1781638892836363300,49.31036328125,1.1563315391540527,-13.205090522766113,3.0622148513793945
1781638892884884500,49.35888452148438,-1.4590235948562622,-14.138291358947754,1.7410775423049927
1781638892933406000,49.40740600585937,-3.084946632385254,-8.368298530578613,-1.3112667798995972
1781638892981927400,49.45592749023437,-3.1435706615448,-9.122337341308594,-3.8682968616485596
1781638893030449000,49.504448974609375,-3.833899974822998,-16.09592056274414,-0.966102123260498
1781638893078970000,49.55297021484375,-2.131406784057617,-9.902996063232422,5.030311584472656
1781638893127491600,49.60149169921875,0.41874396800994873,-7.210172653198242,2.037787675857544
1781638893176013000,49.65001293945313,1.2269197702407837,-6.300302028656006,-1.6094722747802734
1781638893224534500,49.69853442382812,1.8649061918258667,-5.167599678039551,-0.19531415402889252
1781638893273056000,49.74705590820312,3.1507492065429688,-5.722734451293945,1.1333006620407104
1781638893321577200,49.7955771484375,-1.8909281492233276,-17.78734588623047,1.3728820085525513
1781638893370098700,49.8440986328125,3.888935089111328,-13.265809059143066,3.493520975112915
1781638893418620200,49.8926201171875,-4.185944080352783,-14.328222274780273,-0.7666005492210388
1781638893467141600,49.9411416015625,-1.2218350172042847,-10.186245918273926,-1.7961125373840332
1781638893515662800,49.98966284179688,-1.5212370157241821,-8.565707206726074,-0.594915509223938
1781638893564184300,50.03818432617187,-0.5327021479606628,-10.033703804016113,-3.895515203475952
1781638893612705800,50.086705810546874,0.19531415402889252,-6.248557090759277,-0.8742775917053223
1781638893661227000,50.13522705078125,-3.313162088394165,-8.469695091247559,-0.21714866161346436
1781638893709748500,50.18374853515625,0.1585244983434677,-10.152746200561523,1.00259268283844
1781638893758270200,50.23227026367187,0.5736792087554932,-7.101897716522217,2.360220432281494
1781638893806791400,50.28079150390625,2.050050735473633,-7.776673793792725,1.9908283948898315
1781638893855313000,50.32931298828125,0.37477585673332214,-13.525131225585938,4.490729808807373
1781638893903834000,50.377834228515624,-1.5592230558395386,-13.149158477783203,1.8753747940063477
1781638893952355600,50.42635546875,-2.5444676876068115,-7.58225679397583,-1.7808582782745361
1781638894000877000,50.474876953125,-2.825923442840576,-11.330912590026855,-2.644667148590088
1781638894049398500,50.5233984375,-4.154538154602051,-17.331811904907227,0.3978067636489868
1781638894097919700,50.57191967773438,-1.5041881799697876,-9.189335823059082,4.942076206207275
1781638894146441200,50.62044116210937,1.6109678745269775,-6.667002201080322,1.0474581718444824
1781638894194962400,50.66896240234375,1.0199406147003174,-5.941378593444824,-1.9746768474578857
1781638894243484200,50.717484130859376,1.9875383377075195,-5.887240886688232,-0.43160539865493774
1781638894340526800,50.81452685546875,-0.7441678643226624,-17.47328758239746,0.9484550952911377
1781638894389048000,50.86304809570313,2.681756019592285,-14.791831016540527,3.436093330383301
1781638894437569800,50.91156982421875,-3.619443416595459,-13.95254898071289,-0.7498508095741272
1781638894486091000,50.960091064453124,-1.1644073724746704,-8.231907844543457,0.2670988142490387
1781638894534612500,51.008612548828125,-1.6007983684539795,-11.81755256652832,-1.6710875034332275
1781638894583133700,51.0571337890625,-0.1501496136188507,-7.7231340408325195,-3.8739798069000244
1781638894631655400,51.10565551757813,-0.2718844711780548,-5.746662616729736,0.3415754437446594
1781638894680176600,51.1541767578125,-2.0865414142608643,-8.067102432250977,0.5656034350395203
1781638894728698000,51.20269799804687,-0.42681974172592163,-9.167800903320312,1.4362918138504028
1781638894777219300,51.25121923828125,-0.15134602785110474,-8.327022552490234,2.6249263286590576
1781638894825740800,51.29974072265625,2.573181629180908,-8.199305534362793,0.794417142868042
1781638894874262000,51.348261962890625,0.6092724800109863,-12.79741382598877,2.987139940261841
1781638894922783500,51.396783447265626,-1.5089738368988037,-13.477872848510742,0.36281174421310425
1781638894971305000,51.44530493164063,-3.1283164024353027,-8.086843490600586,-0.376570463180542
1781638895019826400,51.49382641601562,-3.1202406883239746,-11.527124404907227,-1.6686947345733643
1781638895068347600,51.54234765625,-4.220041751861572,-17.090436935424805,-0.6819544434547424
1781638895116869000,51.590869140625,-0.22582264244556427,-8.441280364990234,4.7575297355651855
1781638895165390600,51.639390625,0.7600203156471252,-6.442974090576172,1.4413765668869019
1781638895213912000,51.687912109375,1.0043872594833374,-6.376872539520264,-2.3371894359588623
1781638895262433300,51.73643334960938,1.623231053352356,-5.938088417053223,-0.4169493317604065
1781638895310954800,51.78495483398437,3.366701364517212,-5.934200286865234,1.7937196493148804
1781638895359476000,51.83347607421875,-1.5290136337280273,-18.3879451751709,2.255833625793457
1781638895407997400,51.88199755859375,3.25663161277771,-13.046566009521484,3.8964126110076904
1781638895456519000,51.930518798828125,-3.778865098953247,-14.009976387023926,-1.4333007335662842
1781638895505040400,51.979040283203126,-1.0304092168807983,-9.34157943725586,-2.4221346378326416
1781638895553561600,52.0275615234375,-1.9438693523406982,-9.750154495239258,-1.2221341133117676
1781638895602083000,52.0760830078125,-0.16420745849609375,-9.670293807983398,-3.428316593170166
1781638895650604500,52.1246044921875,0.666999340057373,-6.732804775238037,-0.7689933776855469
1781638895699125800,52.17312573242187,-3.0658040046691895,-8.523234367370605,0.8575277924537659
1781638895747647200,52.221647216796875,0.030508488416671753,-9.525827407836914,2.0057835578918457
1781638895844690000,52.31868994140625,2.5196423530578613,-8.108378410339355,2.3584258556365967
1781638895893211400,52.36721142578125,0.22492532432079315,-14.475679397583008,3.9690945148468018
1781638895941732900,52.41573291015625,-2.0991036891937256,-13.090534210205078,1.28255295753479
1781638895990254000,52.46425415039062,-2.667997360229492,-6.794120788574219,-1.394118309020996
1781638896038775600,52.512775634765624,-2.35872483253479,-12.735499382019043,-3.9762730598449707
1781638896087296800,52.561296875,-4.6402812004089355,-17.496318817138672,2.500499725341797
1781638896135818200,52.609818359375,-0.3484548032283783,-7.949554920196533,5.103890895843506
1781638896184339700,52.65833959960938,1.2442678213119507,-6.230311870574951,-0.30957141518592834
1781638896232861200,52.70686108398438,1.2460623979568481,-5.863312721252441,-2.3201406002044678
1781638896281382400,52.75538232421875,2.3617160320281982,-5.7170515060424805,-0.6972087025642395
1781638896329903900,52.80390380859375,1.2529417276382446,-7.215855598449707,1.7482560873031616
1781638896378425000,52.852425048828124,0.010468599386513233,-17.957237243652344,0.519242525100708
1781638896426946600,52.900946533203125,1.9573289155960083,-12.954741477966309,4.580460548400879
1781638896475468000,52.94946801757813,-4.35673189163208,-14.741581916809082,-2.4879374504089355
1781638896523989500,52.99798950195313,-0.6373881101608276,-7.9316086769104,-0.8341978192329407
1781638896572510700,53.0465107421875,-2.405683994293213,-11.234302520751953,-1.059123158454895
1781638896621032200,53.0950322265625,0.49292147159576416,-8.347063064575195,-4.5684967041015625
1781638896669553400,53.143553466796874,-0.349352091550827,-5.564209938049316,0.367597371339798
1781638896718075000,53.192074951171875,-2.6449663639068604,-9.094221115112305,0.3604189157485962
1781638896766596000,53.24059619140625,0.11156535893678665,-8.496912956237793,1.3591232299804688
1781638896815117600,53.28911767578125,0.5350949764251709,-7.990531921386719,3.0326035022735596
1781638896863639000,53.33763916015625,2.225325107574463,-10.281061172485352,2.5211377143859863
1781638896912160500,53.38616040039062,-0.0933200865983963,-14.365011215209961,5.30638313293457
1781638896960681700,53.434681640625,-1.7563318014144897,-11.726625442504883,-1.0058828592300415
1781638897009203200,53.483203125,-2.786741018295288,-5.449055194854736,-3.6125640869140625
1781638897057724400,53.531724365234375,-2.390429735183716,-13.599906921386719,-2.370389938354492
1781638897106246000,53.580245849609376,-4.915754795074463,-17.69641876220703,0.39421752095222473
1781638897154767000,53.62876708984375,0.016749758273363113,-7.315456867218018,5.054239749908447
1781638897203288600,53.67728857421875,1.1096714735031128,-5.758028507232666,0.6071787476539612
1781638897251809800,53.72580981445312,1.51166570186615,-6.346662998199463,-1.9301105737686157
1781638897300331300,53.77433129882812,2.035693883895874,-5.812166213989258,0.12263216078281403
1781638897397374200,53.871374267578126,1.0223335027694702,-19.307086944580078,0.6326025128364563
1781638897445895400,53.9198955078125,-1.2855439186096191,-14.843276977539062,4.0695929527282715
1781638897494417000,53.9684169921875,-1.2460623979568481,-11.688340187072754,-2.825026273727417
1781638897542938000,54.01693823242187,-1.9160526990890503,-8.737690925598145,-0.2470589429140091
1781638897591459600,54.06545947265625,-1.475474238395691,-11.32104206085205,-1.911865234375
1781638897639981000,54.11398095703125,0.7785646915435791,-7.222136974334717,-3.050848960876465
1781638897688502300,54.162502197265624,-0.838983416557312,-6.527021884918213,1.445863127708435
1781638897737023500,54.2110234375,-1.2960125207901,-8.111668586730957,0.646660327911377
1781638897785545000,54.259544921875,-0.5958128571510315,-8.38863754272461,2.1104695796966553
1781638897834066200,54.30806616210938,1.0271191596984863,-8.376375198364258,2.0180468559265137
1781638897882587600,54.35658764648438,2.848954439163208,-9.883255004882812,1.6669000387191772
1781638897931109000,54.40510913085937,-1.3073785305023193,-14.502898216247559,2.839383125305176
1781638897979630300,54.45363037109375,-2.733201742172241,-11.341081619262695,-2.1750757694244385
1781638898028151800,54.50215185546875,-3.6807594299316406,-9.557830810546875,-1.1515458822250366
1781638898076673300,54.55067333984375,-3.422334671020508,-15.724733352661133,-1.4946168661117554
1781638898125194800,54.59919482421875,-2.4406790733337402,-11.254042625427246,4.555037021636963
1781638898173716000,54.64771606445313,1.1850453615188599,-6.391229152679443,2.499901533126831
1781638898222237400,54.69623754882812,0.7806583642959595,-6.522236347198486,-1.8696918487548828
1781638898270758700,54.74475854492187,1.7653049230575562,-5.926124572753906,-1.0630114078521729
1781638898319279900,54.79327978515625,2.9551360607147217,-5.210072040557861,0.4785645306110382
1781638898367801300,54.84180126953125,-1.5227324962615967,-13.579866409301758,0.5991029739379883
1781638898416322800,54.89032275390625,5.501697540283203,-14.212469100952148,3.738187074661255
1781638898464844000,54.938843994140626,-5.686244010925293,-16.023836135864258,1.3800604343414307
1781638898513365500,54.98736547851563,-1.4518451690673828,-11.013564109802246,-2.62313175201416
1781638898561886700,55.03588671875,-2.4996023178100586,-10.350752830505371,-2.0180468559265137
1781638898610408200,55.084408203125,-0.7881359457969666,-9.757930755615234,-3.928117513656616
1781638898658929400,55.13292944335937,-0.44835513830184937,-5.339284420013428,-1.8729819059371948
1781638898707451000,55.181450927734375,-3.8356947898864746,-8.788837432861328,-0.9134600162506104
1781638898755972000,55.22997216796875,1.4500504732131958,-8.642875671386719,1.2675977945327759
1781638898804493600,55.27849365234375,0.5120640397071838,-5.766702651977539,3.5772697925567627
1781638898853014800,55.32701489257813,1.6663018465042114,-10.552946090698242,1.2987045049667358
1781638898901536300,55.37553637695312,0.028115665540099144,-13.87657642364502,4.564010143280029
1781638898998579000,55.47257885742187,-2.754138946533203,-5.296213626861572,-0.5183451771736145
1781638899047100200,55.52110009765625,-2.9772696495056152,-13.640584945678711,-1.9579271078109741
1781638899095621600,55.56962158203125,-4.6540398597717285,-18.656240463256836,-0.2066800594329834
1781638899144142800,55.618142822265625,-0.2386840581893921,-7.505686283111572,4.838287353515625
1781638899192664300,55.66666430664063,0.8422735929489136,-6.375077724456787,0.9266205430030823
1781638899241185500,55.715185546875,1.4659029245376587,-6.20847749710083,-2.318047046661377
1781638899289707000,55.76370703125,1.8873388767242432,-5.821737289428711,-0.38763725757598877
1781638899338228200,55.81222827148437,1.9196419715881348,-6.583253383636475,1.4949159622192383
1781638899386749700,55.86074975585937,0.45613181591033936,-17.645570755004883,-0.0364905446767807
1781638899435271000,55.90927099609375,2.659024238586426,-13.241880416870117,4.829613208770752
1781638899483792400,55.95779248046875,-4.841577529907227,-15.007184982299805,-1.9770697355270386
1781638899532313600,56.006313720703126,-0.8001000881195068,-8.084450721740723,-1.4539388418197632
1781638899580835000,56.0548349609375,-2.3910279273986816,-10.841280937194824,-1.5379867553710938
1781638899629356300,56.10335620117188,-0.04217349737882614,-9.320642471313477,-2.557030200958252
1781638899677877800,56.15187768554687,-0.47676992416381836,-5.44217586517334,0.07417750358581543
1781638899726399000,56.20039892578125,-2.628814697265625,-8.362317085266113,0.4579264223575592
1781638899774920400,56.24892041015625,-0.10348957777023315,-8.918647766113281,1.3615161180496216
1781638899823441700,56.297441650390624,-0.08225327730178833,-7.275676250457764,2.3443679809570312
1781638899871963100,56.345963134765626,2.673680305480957,-9.155537605285645,1.5951154232025146
1781638899920484400,56.394484375,-0.42412781715393066,-14.349757194519043,2.6805596351623535
1781638899969005800,56.443005859375,-0.8105686902999878,-12.95085334777832,0.4504488706588745
1781638900017527000,56.49152709960938,-2.9772696495056152,-6.87308406829834,-1.079761266708374
1781638900066048500,56.54004858398437,-3.10109806060791,-10.428818702697754,-1.0480563640594482
1781638900114569700,56.58856982421875,-3.583850145339966,-17.609678268432617,-0.8820542693138123
1781638900163091200,56.63709130859375,-1.1102696657180786,-8.711668968200684,4.929812908172607
1781638900211612400,56.6856123046875,1.2029916048049927,-7.039684295654297,1.5759727954864502
1781638900260134000,56.7341337890625,0.7336992621421814,-6.2500529289245605,-2.430210590362549
1781638900308655000,56.782655029296876,1.536790370941162,-6.278766632080078,-0.42412781715393066
1781638900357176600,56.83117651367188,2.501396894454956,-6.112166404724121,1.4123635292053223
1781638900405697800,56.87969775390625,0.23210379481315613,-17.59053611755371,0.6245267391204834
1781638900454219300,56.92821923828125,3.486342668533325,-12.500105857849121,5.38624382019043
1781638900502740700,56.97674072265625,-4.617250442504883,-14.211871147155762,-0.9212366938591003
1781638900599783200,57.073783203125,-2.0309081077575684,-9.701998710632324,-1.0187442302703857
1781638900648304600,57.1223046875,-0.870090126991272,-9.88086223602295,-4.022933006286621
1781638900696825900,57.17082592773438,-0.13310076296329498,-6.090631008148193,-1.036690354347229
1781638900745347000,57.21934716796875,-3.013461112976074,-8.315956115722656,0.12143574655056
1781638900793868500,57.26786865234375,-0.45164528489112854,-9.106185913085938,0.8249256014823914
1781638900842389800,57.3163896484375,0.35802608728408813,-6.672685146331787,2.3584258556365967
1781638900890911000,57.36491088867187,1.950150489807129,-8.563314437866211,2.164607286453247
1781638900939432400,57.413432373046874,0.2632105052471161,-13.463515281677246,3.0637102127075195
1781638900987954000,57.461953857421875,-0.5473581552505493,-12.853645324707031,1.5308083295822144
1781638901036475100,57.51047509765625,-3.069094181060791,-7.913662910461426,-1.9013967514038086
1781638901084996600,57.55899658203125,-3.2709884643554688,-10.089037895202637,-1.4554343223571777
1781638901133517800,57.60751782226563,-4.183252334594727,-19.067506790161133,-2.2603201866149902
1781638901182039000,57.6560390625,-1.3130614757537842,-9.692726135253906,5.275575637817383
1781638901230560500,57.704560546875,1.0917253494262695,-6.736692905426025,2.62313175201416
1781638901279082000,57.75308203125,0.9580263495445251,-6.145665645599365,-2.2220349311828613
1781638901327603200,57.801603271484375,1.7676976919174194,-6.061617851257324,-0.23838496208190918
1781638901376124400,57.85012451171875,3.184846878051758,-4.666901588439941,1.3926228284835815
1781638901424645600,57.898645751953126,-1.2768700122833252,-16.477575302124023,1.55623197555542
1781638901473167000,57.9471669921875,3.928117513656616,-13.939088821411133,3.155235767364502
1781638901521688300,57.99568823242188,-5.538486957550049,-15.696019172668457,-0.9729815125465393
1781638901570209800,58.04420971679688,-0.32691940665245056,-9.24736213684082,-1.6408780813217163
1781638901618731000,58.09273095703125,-2.485544443130493,-10.304391860961914,-0.8916255235671997
1781638901667252500,58.14125244140625,-0.8054839372634888,-9.527322769165039,-4.606781959533691
1781638901715773700,58.189773681640624,-0.10438688844442368,-5.5728840827941895,-0.8359923958778381
1781638901764295200,58.238295166015625,-2.973680257797241,-7.932805061340332,-0.7280163168907166
1781638901812816400,58.28681640625,0.6586244106292725,-9.331110954284668,0.8524430394172668
1781638901861337900,58.335337890625,0.18963119387626648,-7.403393268585205,4.661218643188477
1781638901909859000,58.38385913085938,1.6217355728149414,-9.157332420349121,1.7611174583435059
1781638901958380300,58.43238037109375,0.2392822653055191,-14.235798835754395,3.807878017425537
1781638902006901500,58.48090161132812,-1.537089467048645,-12.08614730834961,1.4036896228790283
1781638902055423000,58.52942309570312,-2.627917528152466,-8.096414566040039,-2.391327142715454
1781638902152465700,58.626465576171874,-4.4620161056518555,-16.470396041870117,0.7992027401924133
1781638902200987000,58.67498681640625,-0.8096713423728943,-8.790632247924805,6.030810356140137
1781638902249508400,58.72350830078125,1.602293848991394,-6.522834300994873,0.3284149169921875
1781638902298029600,58.77202954101563,1.1476575136184692,-6.375975131988525,-2.349153518676758
1781638902346550800,58.82055078125,1.555932879447937,-5.457430362701416,-0.49710890650749207
1781638902395072000,58.86907202148438,2.4783661365509033,-5.384449005126953,1.7724833488464355
1781638902443593500,58.91759350585937,-0.6239284873008728,-17.127225875854492,1.6456637382507324
1781638902492114700,58.96611474609375,2.6841487884521484,-14.136795997619629,4.983651161193848
1781638902540636200,59.01463623046875,-3.833899974822998,-15.203994750976562,-1.9806588888168335
1781638902589157400,59.063157470703125,-0.20907287299633026,-7.772486209869385,-0.6843472719192505
1781638902637678800,59.111678955078126,-2.321038007736206,-11.365309715270996,-1.1766705513000488
1781638902686200000,59.160199951171876,-0.23599213361740112,-9.214759826660156,-3.666701555252075
1781638902734721300,59.20872119140625,-0.06400800496339798,-6.456732749938965,-0.7680960893630981
1781638902783242500,59.25724243164063,-2.20528507232666,-7.8062849044799805,-0.12382857501506805
1781638902831764000,59.30576391601563,-0.2805584669113159,-9.230013847351074,1.4198411703109741
1781638902880285200,59.35428515625,-0.48723849654197693,-7.315456867218018,2.606382131576538
1781638902928806700,59.402806640625,1.9645073413848877,-8.073383331298828,2.213959217071533
1781638902977327900,59.451327880859374,1.1781660318374634,-13.25862979888916,3.1902308464050293
1781638903025849300,59.499849365234375,-1.4676976203918457,-13.469198226928711,1.9208383560180664
1781638903074370600,59.54837060546875,-2.784348249435425,-7.941180229187012,-2.3330020904541016
1781638903122891800,59.59689184570313,-2.4589242935180664,-10.219745635986328,-2.3204398155212402
1781638903171413000,59.6454130859375,-4.142574310302734,-18.335302352905273,-0.9888339638710022
1781638903219934500,59.6939345703125,-1.6085749864578247,-9.881759643554688,6.129813194274902
1781638903268455700,59.74245556640625,1.7012969255447388,-6.876972198486328,1.7676976919174194
1781638903316977200,59.79097705078125,1.072881817817688,-6.559624195098877,-2.679363250732422
1781638903365498400,59.83949829101562,1.659123420715332,-5.346463203430176,-0.5335994362831116
1781638903414019800,59.888019775390624,3.3308091163635254,-4.361218452453613,0.5024927258491516
1781638903462540800,59.936540771484374,-1.8798612356185913,-15.232708930969238,1.1922239065170288
1781638903511062300,59.985062255859376,4.179663181304932,-14.607284545898438,3.9538402557373047
1781638903559583500,60.03358349609375,-4.30379056930542,-16.595123291015625,0.19381862878799438
1781638903608105000,60.08210498046875,-0.3565305769443512,-9.184550285339355,-2.3976082801818848
1781638903705147600,60.17914770507812,-1.5798611640930176,-12.104392051696777,-3.7247276306152344
1781638903753668900,60.2276689453125,0.04247260093688965,-5.954239845275879,-2.038684844970703
1781638903802190000,60.276190185546874,-3.1758737564086914,-7.596613883972168,0.5473581552505493
1781638903850711300,60.32471118164062,-0.5494518876075745,-9.122337341308594,0.2267199456691742
1781638903899232800,60.373232666015625,0.6502495408058167,-6.534798622131348,2.263011932373047
1781638903947754000,60.42175390625,1.3262219429016113,-8.241778373718262,2.823530673980713
1781638903996275500,60.470275390625,1.4787644147872925,-11.53968620300293,1.200299620628357
1781638904044796700,60.51879663085938,-0.4178466498851776,-13.215559005737305,1.5451651811599731
1781638904093318000,60.56731787109375,-2.3162522315979004,-9.272786140441895,-1.8128622770309448
1781638904141839000,60.61583911132813,-4.411467552185059,-11.279168128967285,-0.15613168478012085
1781638904190360600,60.66436059570312,-4.313362121582031,-19.427326202392578,-2.2076780796051025
1781638904238882000,60.712882080078124,-1.4844473600387573,-9.932008743286133,5.093721389770508
1781638904287403000,60.761403076171874,1.2077772617340088,-6.013761520385742,1.9148563146591187
1781638904335924200,60.80992431640625,0.997208833694458,-5.67338228225708,-3.1402807235717773
1781638904384445700,60.85844580078125,1.5744773149490356,-5.647659778594971,-1.7578272819519043
1781638904432967000,60.906966796875,3.084348440170288,-5.033601760864258,0.90358966588974
1781638904481488400,60.95548828125,-1.7362918853759766,-15.393028259277344,2.3407788276672363
1781638904530009600,61.00400952148438,4.034298896789551,-15.683157920837402,2.600399971008301
1781638904578530800,61.05253076171875,-4.244269371032715,-15.599409103393555,0.10767702013254166
1781638904627052300,61.10105224609375,-0.47916272282600403,-9.316155433654785,-1.5355939865112305
1781638904675573500,61.14957348632812,-1.5355939865112305,-9.411569595336914,-0.5431707501411438
1781638904724094700,61.1980947265625,-1.1288141012191772,-10.637592315673828,-4.299304008483887
1781638904772616200,61.2466162109375,0.48723849654197693,-6.150152206420898,-0.9278169870376587
1781638904821137400,61.295137451171875,-2.39192533493042,-7.400402069091797,0.5823532342910767
1781638904869658600,61.34365869140625,-0.5934200286865234,-9.387641906738281,0.14685949683189392
1781638904918180000,61.39218017578125,0.6897311210632324,-7.381259441375732,2.9919257164001465
1781638904966701300,61.44070141601563,1.7012969255447388,-7.805387496948242,3.0729825496673584
1781638905015222500,61.48922241210938,0.23778675496578217,-14.144573211669922,1.3845469951629639
1781638905063743700,61.53774365234375,-0.44027936458587646,-13.222139358520508,1.934298038482666
1781638905112265200,61.58626513671875,-1.5951154232025146,-9.329615592956543,-1.1479566097259521
1781638905160786400,61.63478637695312,-3.5910286903381348,-8.077271461486816,-0.5910272002220154
1781638905209307600,61.6833076171875,-3.5207393169403076,-17.246868133544922,-2.675773859024048
1781638905306350000,61.78035009765625,1.698904037475586,-6.513861656188965,2.7176482677459717
1781638905354871600,61.82887158203125,0.8413762450218201,-7.40279483795166,-2.477468729019165
1781638905403393000,61.87739306640625,1.3178470134735107,-6.555436611175537,-1.2436695098876953
1781638905451914000,61.9259140625,2.65842604637146,-4.492225646972656,1.3983057737350464
1781638905500435500,61.974435546875,-0.8910273313522339,-11.891430854797363,1.9046868085861206
1781638905548956700,62.02295678710937,4.710570335388184,-16.797016143798828,0.836590588092804
1781638905597478100,62.07147802734375,-2.8396823406219482,-15.625730514526367,1.6860426664352417
1781638905645999400,62.11999926757812,-1.0247262716293335,-9.994820594787598,-0.1537388563156128
1781638905694520600,62.1685205078125,-2.3234307765960693,-7.7838521003723145,-0.09661021083593369
1781638905743041800,62.217041748046874,-1.2281162738800049,-11.541181564331055,-2.9461629390716553
1781638905791563300,62.265563232421876,0.8892326951026917,-6.694519519805908,-2.1287147998809814
1781638905840084500,62.31408447265625,-1.0199406147003174,-6.751648426055908,0.8120641708374023
1781638905888605700,62.36260571289063,-0.8461619019508362,-9.201300621032715,0.6125625967979431
1781638905937127000,62.411126953125,-0.862313449382782,-8.329415321350098,2.163709878921509
1781638905985648400,62.4596484375,1.2834502458572388,-7.93370246887207,2.1607189178466797
1781638906034169600,62.50816967773437,2.066800594329834,-9.562616348266602,1.7291134595870972
1781638906082690800,62.55669091796875,-1.1383854150772095,-15.192628860473633,2.2531416416168213
1781638906131212000,62.6052119140625,-1.8553348779678345,-11.276775360107422,-0.6667001843452454
1781638906179733500,62.6537333984375,-3.3134610652923584,-6.877570629119873,-0.8153542876243591
1781638906228254700,62.702254638671874,-2.768495798110962,-16.05583953857422,-3.178266763687134
1781638906276776000,62.75077587890625,-3.407379388809204,-14.574084281921387,2.998805046081543
1781638906325297200,62.799297119140626,0.1707877218723297,-7.175477027893066,4.004986763000488
1781638906373818600,62.84781860351563,1.145264744758606,-5.588736534118652,-0.9906286001205444
1781638906422339800,62.89633984375,1.3310075998306274,-6.019444465637207,-0.7268198728561401
1781638906470861000,62.94486108398438,2.5836503505706787,-5.176273345947266,0.2306082844734192
1781638906519382300,62.99338232421875,1.3758729696273804,-9.983753204345703,2.510669231414795
1781638906567903500,63.04190356445312,1.714158296585083,-17.620147705078125,1.6262221336364746
1781638906616424700,63.0904248046875,-0.771087110042572,-13.795519828796387,3.4271202087402344
1781638906664946200,63.1389462890625,-2.943171739578247,-13.029816627502441,-2.942274570465088
1781638906713467000,63.187466796875,-0.353240430355072,-7.6839518547058105,-0.7331010103225708
1781638906761988600,63.235988525390624,-2.0243279933929443,-11.054841041564941,-2.430210590362549
1781638906810509600,63.284509521484374,0.41575294733047485,-7.77816915512085,-2.8809585571289062
1781638906907552300,63.38155224609375,-1.8735800981521606,-9.146265029907227,-0.8997012972831726
1781638906956073500,63.430073486328126,1.2188440561294556,-7.551149845123291,2.276172637939453
1781638907004594700,63.4785947265625,0.15942180156707764,-8.392227172851562,3.5581271648406982
1781638907053116200,63.5271162109375,1.46500563621521,-11.778071403503418,0.8844470977783203
1781638907101637000,63.57563720703125,0.24646073579788208,-13.569099426269531,3.3107693195343018
1781638907150158600,63.62415869140625,-2.586641311645508,-11.050653457641602,-1.628614902496338
1781638907198679800,63.6726796875,-2.958127021789551,-7.088139057159424,-1.9854445457458496
1781638907247201300,63.721201171875,-3.2853455543518066,-15.301502227783203,-2.6473591327667236
