time,seconds_elapsed,z,y,x
1781638843683755800,0.157755859375,0.5628355145454407,0.0732274129986763,0.3723984360694885
1781638843732277800,0.20627783203125,0.337808221578598,0.3315468728542328,0.49686214327812195
1781638843780800000,0.254800048828125,0.21861323714256287,0.2977202236652374,0.4154644012451172
1781638843829322000,0.303322021484375,-0.021227551624178886,0.3324631452560425,0.47815442085266113
1781638843877844200,0.35184423828125,-0.19120067358016968,-0.32391104102134705,0.9538653492927551
1781638843926366200,0.4003662109375,0.19097159802913666,-0.48265954852104187,1.5251002311706543
1781638843974888400,0.448888427734375,-0.28725916147232056,-0.1331685185432434,0.6799688339233398
1781638844023410400,0.497410400390625,0.5238165259361267,1.0799325704574585,-0.16859868168830872
1781638844071932700,0.5459326171875,0.22533275187015533,0.2582430839538574,0.6534726023674011
1781638844120455000,0.594454833984375,-0.6405680775642395,-4.073093414306641,1.5532764196395874
1781638844168977000,0.642976806640625,-0.03321577236056328,-3.302335023880005,2.0586905479431152
1781638844217499000,0.691498779296875,-2.175213098526001,-2.824486017227173,2.6187009811401367
1781638844266021000,0.740021240234375,-1.642997145652771,-2.722013473510742,1.316031813621521
1781638844314543400,0.78854345703125,-1.7587560415267944,-3.0734896659851074,2.6709299087524414
1781638844363065300,0.8370654296875,0.5400044918060303,-0.6538543701171875,0.4035525321960449
1781638844411587300,0.88558740234375,0.13652828335762024,-0.5190823674201965,0.7270817756652832
1781638844460109600,0.934109619140625,-0.04589121788740158,0.24671301245689392,0.17432554066181183
1781638844508631800,0.9826318359375,-0.18196134269237518,0.6790525317192078,0.4476875364780426
1781638844557153800,1.03115380859375,0.12400554865598679,0.5689441561698914,1.0160208940505981
1781638844605675800,1.07967578125,0.14744748175144196,1.2023346424102783,0.3422369956970215
1781638844654198000,1.128197998046875,0.48296496272087097,1.828700065612793,-0.9140827655792236
1781638844702720000,1.176719970703125,0.6534726023674011,1.4095704555511475,-0.40721774101257324
1781638844751242200,1.2252421875,0.5774199366569519,1.7542508840560913,-0.9067524075508118
1781638844799764200,1.27376416015625,0.43898269534111023,1.3338232040405273,-0.672104001045227
1781638844848286500,1.322286376953125,0.23426663875579834,0.9163735508918762,-0.3339139521121979
1781638844896808400,1.370808349609375,0.15462514758110046,1.15842866897583,-0.320933073759079
1781638844945330400,1.419330322265625,0.12789981067180634,0.4854084253311157,-0.18409937620162964
1781638844993852700,1.467852783203125,0.21380266547203064,0.5977311730384827,-0.4889208972454071
1781638845042374700,1.516374755859375,0.03023780696094036,0.42103853821754456,-0.698676586151123
1781638845090897000,1.56489697265625,0.05849030241370201,0.38408124446868896,-1.33527410030365
1781638845139419000,1.6134189453125,-0.023594651371240616,0.3065013885498047,-1.9399538040161133
1781638845187941000,1.661941162109375,0.12560907006263733,0.7640390992164612,-1.5890120267868042
1781638845236463000,1.710463134765625,0.06223184987902641,0.6104066371917725,-0.9782235622406006
1781638845284985300,1.7589853515625,-0.08109229803085327,0.16019928455352783,-0.6502655744552612
1781638845333507300,1.80750732421875,0.05177079141139984,-0.008781181648373604,-0.10125083476305008
1781638845382029300,1.856029296875,-0.16913318634033203,-0.07651081681251526,-0.2179260104894638
1781638845430551600,1.904551513671875,0.06979130208492279,0.5122864842414856,-0.4248564541339874
1781638845479073500,1.953073486328125,0.12217295914888382,0.49861836433410645,-0.65935218334198
1781638845527595500,2.001595458984375,0.055741410702466965,0.5209149122238159,-0.7369319796562195
1781638845576117800,2.05011767578125,-0.14889828860759735,0.2167806327342987,-0.6708822250366211
1781638845624639700,2.0986396484375,-0.12767073512077332,-0.2902371287345886,-0.4313468933105469
1781638845673162000,2.147161865234375,-0.11201732605695724,-0.35384342074394226,-0.07376192510128021
1781638845721684000,2.19568408203125,0.03145953640341759,0.18028147518634796,-0.17363831400871277
1781638845770206000,2.2442060546875,-0.008017600513994694,0.2196822464466095,-0.2121991515159607
1781638845818728200,2.292728271484375,0.023976443335413933,0.16943861544132233,-0.011682788841426373
1781638845867250200,2.341250244140625,-0.020311253145337105,0.05299251899123192,-0.05108356848359108
1781638845915772400,2.3897724609375,-0.052076224237680435,0.19799654185771942,0.02672533318400383
1781638845964294400,2.43829443359375,-0.07108938694000244,0.31322091817855835,-0.23075416684150696
1781638846012816400,2.48681640625,-0.20173808932304382,-0.056810423731803894,0.13484840095043182
1781638846061338400,2.53533837890625,-0.3220784664154053,-0.05215258151292801,0.30688318610191345
1781638846109860600,2.583860595703125,-0.1418733447790146,0.1784488707780838,0.03649916872382164
1781638846158382600,2.632382568359375,-0.0951421856880188,0.12476912885904312,-0.1792888194322586
1781638846206904800,2.68090478515625,-0.22495095431804657,0.09735657274723053,-0.0925460159778595
1781638846255426800,2.7294267578125,-0.12851068377494812,0.10247256606817245,-0.02237292192876339
1781638846303948800,2.77794873046875,-0.15561780333518982,0.1461493968963623,0.008399390615522861
1781638846352471000,2.826470947265625,-0.030161447823047638,0.08177952468395233,-0.0461202897131443
1781638846400993000,2.874992919921875,0.02611446939408779,-0.08681915700435638,0.017027854919433594
1781638846449515000,2.923514892578125,0.08888082206249237,-0.11606431007385254,0.00954476185142994
1781638846498037000,2.972037109375,0.029703300446271896,-0.1262962967157364,0.1300378441810608
1781638846546559200,3.020559326171875,0.017486004158854485,-0.16394083201885223,-0.008170315995812416
1781638846595086000,3.069086181640625,0.20395247638225555,-0.3462076187133789,0.12927426397800446
1781638846643603200,3.117603271484375,0.18348850309848785,-0.3494146466255188,0.15271618962287903
1781638846692125400,3.16612548828125,0.2965748608112335,-0.44669488072395325,0.3584249019622803
1781638846740647000,3.21464697265625,0.21372631192207336,-0.5080104470252991,0.06582067906856537
1781638846789169400,3.26316943359375,0.3400989770889282,0.1669187992811203,-0.4314996004104614
1781638846837691400,3.31169140625,0.28214317560195923,-0.15806126594543457,-0.6919570565223694
1781638846886213600,3.360213623046875,0.2591593861579895,-0.2026543915271759,-0.8571959733963013
1781638846934735600,3.408735595703125,0.4335612654685974,0.22212570905685425,-1.2915208339691162
1781638846983257600,3.457257568359375,0.36651885509490967,-0.4133263826370239,-0.9814306497573853
1781638847031779600,3.505779541015625,0.5984947681427002,0.14347685873508453,-0.5850557684898376
1781638847080301800,3.5543017578125,1.2594504356384277,0.9091958403587341,-1.0529781579971313
1781638847128823800,3.60282373046875,1.9323943853378296,0.049021899700164795,-1.0320560932159424
1781638847177345800,3.651345703125,2.743393659591675,1.1192569732666016,-0.7427352070808411
1781638847225868000,3.699867919921875,2.94543719291687,-0.35208719968795776,-0.9675334692001343
1781638847274390000,3.74839013671875,2.5458552837371826,-2.452927589416504,-0.9957095980644226
1781638847322912000,3.796912109375,1.9642356634140015,-3.372737169265747,-1.623220443725586
1781638847371434000,3.84543408203125,2.106414556503296,-4.705338478088379,-1.547778606414795
1781638847419956200,3.893956298828125,1.6950733661651611,-2.9830055236816406,-1.9323943853378296
1781638847468478200,3.942478271484375,0.9078977704048157,-2.802800416946411,-1.5247185230255127
1781638847517000200,3.991000244140625,1.6032909154891968,-0.0015271619195118546,-2.415741205215454
1781638847565522200,4.039522216796875,1.6213878393173218,1.2383756637573242,-3.7042076587677
1781638847614044200,4.088044189453125,1.679114580154419,1.8534400463104248,-2.4972915649414062
1781638847708580400,4.182580322265625,2.571969747543335,1.842979073524475,-2.557919979095459
1781638847757102300,4.231102294921875,2.6075527667999268,2.6761984825134277,-0.9540180563926697
1781638847805624300,4.279624267578125,2.042579174041748,2.765842914581299,-0.32352927327156067
1781638847854146600,4.328146484375,0.7253255844116211,2.438343048095703,0.39080074429512024
1781638847902668500,4.37666845703125,0.9531781077384949,2.3113596439361572,1.342909812927246
1781638847951190500,4.4251904296875,-0.017562363296747208,0.742429792881012,0.2807687222957611
1781638847999712500,4.47371240234375,-0.29565855860710144,-1.029765248298645,-0.32757624983787537
1781638848048233500,4.5222333984375,0.13843722641468048,-0.0850629210472107,-1.7857868671417236
1781638848145278200,4.6192783203125,-0.06368265300989151,0.4815141558647156,-0.4064541459083557
1781638848193800400,4.667800537109375,0.16638429462909698,0.43600472807884216,-1.345582365989685
1781638848242322700,4.71632275390625,0.48525571823120117,1.5829033851623535,-3.3592982292175293
1781638848290844200,4.76484423828125,-0.3733910918235779,0.523052990436554,-1.3263401985168457
1781638848339366700,4.81336669921875,-0.9356921315193176,0.1539379209280014,0.19685117900371552
1781638848387887900,4.861887939453125,0.041157014667987823,0.020922118797898293,-1.276707410812378
1781638848436410600,4.91041064453125,0.28328853845596313,0.191964253783226,-0.31154105067253113
1781638848484932900,4.958932861328125,0.10285435616970062,0.33337944746017456,-0.10201441496610641
1781638848533454800,5.007454833984375,-0.31459537148475647,0.258395791053772,-0.5302306413650513
1781638848581976800,5.055976806640625,0.5316814184188843,0.2830594778060913,0.20609050989151
1781638848630499000,5.1044990234375,0.9363030195236206,0.2574031352996826,0.746858537197113
1781638848679020800,5.153020751953125,0.9744820594787598,-0.41233372688293457,-0.3410916328430176
1781638848727543000,5.20154296875,0.003894262947142124,-0.28382304310798645,0.03237583488225937
1781638848776065000,5.25006494140625,0.001450803829357028,-0.409661203622818,-0.3418551981449127
1781638848824587000,5.2985869140625,-0.4482220411300659,-0.38095054030418396,-0.39744389057159424
1781638848921631200,5.39563134765625,0.08613193035125732,0.1989128440618515,-0.03191768378019333
1781638848970153000,5.444153076171875,0.1914297491312027,0.011759147047996521,-0.09178243577480316
1781638849018675200,5.49267529296875,0.1579848974943161,0.081015944480896,-0.12263110280036926
1781638849067197400,5.541197509765625,-0.12385283410549164,0.258853942155838,-0.22250749170780182
1781638849164241400,5.638241455078125,-0.26045745611190796,0.7328086495399475,-0.11178825795650482
1781638849212763100,5.68676318359375,-0.0755181610584259,1.5520546436309814,0.030695954337716103
1781638849261285400,5.735285400390625,-0.08529199659824371,0.19204062223434448,-0.16936226189136505
1781638849309807400,5.783807373046875,0.21670427918434143,-0.458301305770874,-0.017256930470466614
1781638849358329300,5.832329345703125,0.037491824477910995,-0.500298261642456,-0.0795651376247406
1781638849406851300,5.880851318359375,0.0423787422478199,-0.9953277707099915,0.040317077189683914
1781638849455373300,5.929373291015625,0.21380266547203064,-0.21639885008335114,0.5471057891845703
1781638849503895600,5.9778955078125,0.1740964651107788,-0.9081268310546875,0.24984370172023773
1781638849552417500,6.02641748046875,0.02542724646627903,0.06085740402340889,0.09552398324012756
1781638849600939300,6.074939208984375,0.033368486911058426,0.3211621642112732,-0.15370884537696838
1781638849649461500,6.12346142578125,0.08529199659824371,0.44180795550346375,-0.01183550525456667
1781638849697983500,6.1719833984375,0.09812015295028687,0.4503600597381592,-0.001679878099821508
1781638849746505500,6.22050537109375,0.056810423731803894,0.42103853821754456,-0.015500693581998348
1781638849795027700,6.26902783203125,-0.013897174037992954,0.3750709891319275,-0.056199558079242706
1781638849843549700,6.3175498046875,0.041386090219020844,0.2530507445335388,0.04016435891389847
1781638849892071400,6.366071533203125,0.012446369975805283,0.25877758860588074,0.022983787581324577
1781638849940593700,6.41459375,-0.0030543238390237093,0.030695954337716103,-0.055970486253499985
1781638849989116000,6.463115966796875,-0.05841394513845444,-0.19990549981594086,0.0009926552884280682
1781638850037637600,6.5116376953125,-0.081015944480896,-0.4179842174053192,0.07681624591350555
1781638850086160000,6.560159912109375,-0.07429642975330353,-0.422947496175766,0.08468113094568253
1781638850134681900,6.608681884765625,-0.05864302068948746,-0.37140578031539917,0.13645191490650177
1781638850183203800,6.657203857421875,-0.07597630470991135,-0.09911280870437622,-0.03871355578303337
1781638850231725600,6.7057255859375,-0.03138317912817001,-0.0743727833032608,0.04543306678533554
1781638850280247800,6.754247802734375,-0.06551524996757507,0.1323285847902298,0.09697478264570236
1781638850328770000,6.80277001953125,0.009315688163042068,0.08628465235233307,-0.053985174745321274
1781638850377291800,6.851291748046875,0.10338886082172394,-0.10797034949064255,0.08750637620687485
1781638850425814000,6.89981396484375,0.0409279391169548,-0.11835505068302155,0.030161447823047638
1781638850474336000,6.9483359375,0.0295505840331316,-0.15431971848011017,-0.027107125148177147
1781638850522858000,6.99685791015625,-0.017486004158854485,-0.18669554591178894,-0.03237583488225937
1781638850619902000,7.09390185546875,-0.000610864779446274,-0.0818558782339096,0.04718930274248123
1781638850668424200,7.142424072265625,-0.0030543238390237093,-0.02519817277789116,-0.01649334840476513
1781638850716946000,7.19094580078125,-0.01206457894295454,0.01870773360133171,-0.000839939049910754
1781638850765468200,7.23946826171875,0.001679878099821508,-0.0019853105768561363,-0.013820815831422806
1781638850813990400,7.287990478515625,-0.0102319847792387,0.027947064489126205,0.000839939049910754
1781638850862512000,7.33651220703125,0.0022143847309052944,-0.018555017188191414,0.004657844081521034
1781638850911034400,7.385034423828125,-0.002061668550595641,-0.005955931730568409,-0.02909243479371071
1781638850959556400,7.433556396484375,-0.005268708802759647,-0.024052800610661507,-0.039477135986089706
1781638851008078300,7.482078369140625,-0.006490438245236874,-0.017486004158854485,-0.010766491293907166
1781638851056600600,7.5306005859375,-0.0038179049734026194,0.010537417605519295,-0.01588248461484909
1781638851105122300,7.579122314453125,-0.004886918235570192,0.025503603741526604,-0.01511890348047018
1781638851153644500,7.62764453125,-0.00045814859913662076,0.009315688163042068,0.0019853105768561363
1781638851202166500,7.67616650390625,-0.001221729558892548,0.007483093533664942,-0.020387612283229828
1781638851250688300,7.724688232421875,-0.002443459117785096,-0.01870773360133171,-0.021991131827235222
1781638851299210500,7.77321044921875,-0.007177661173045635,-0.016340631991624832,-0.010384701192378998
1781638851347732500,7.821732421875,0.0010690133785828948,-0.01649334840476513,-0.023212861269712448
1781638851396254500,7.87025439453125,0.0034361144062131643,-0.010155626572668552,-0.011759147047996521
1781638851444776700,7.918776611328125,-0.000610864779446274,0.007941242307424545,-0.0206166859716177
1781638851493298700,7.967298583984375,-0.0057268571108579636,0.007788525894284248,-0.0030543238390237093
1781638851541820700,8.015820556640625,-0.0054977829568088055,0.009392046369612217,-0.004505127668380737
1781638851590343000,8.064343017578125,0.001679878099821508,0.0058795735239982605,-0.006490438245236874
1781638851638865000,8.112864990234375,-0.007941242307424545,0.007483093533664942,-0.0154243353754282
1781638851687387000,8.161386962890624,-0.0062613640911877155,0.000610864779446274,0.006337722297757864
1781638851735908900,8.209908935546874,-0.010995565913617611,-0.0001527161948615685,0.003512472379952669
1781638851784430800,8.258430908203126,-0.01870773360133171,0.0016035200096666813,-0.006337722297757864
1781638851832952800,8.306952880859376,-0.017562363296747208,0.000610864779446274,0.0038179049734026194
1781638851881475000,8.35547509765625,-0.017486004158854485,-0.001679878099821508,0.009621120058000088
1781638851929997000,8.4039970703125,-0.013897174037992954,0.004428769461810589,0.014813470654189587
1781638851978519300,8.452519287109375,-0.017486004158854485,0.005955931730568409,0.0062613640911877155
1781638852027041000,8.501041015625,-0.012446369975805283,0.010384701192378998,-0.0032070400193333626
1781638852124085200,8.598085205078124,-0.013820815831422806,0.0010690133785828948,0.011759147047996521
1781638852221129500,8.69512939453125,-0.01611155830323696,-0.003512472379952669,0.010155626572668552
1781638852269651500,8.7436513671875,-0.006719512399286032,-0.006719512399286032,0.001450803829357028
1781638852318173400,8.79217333984375,-0.011988221667706966,-0.0062613640911877155,0.0077121676877141
1781638852366695700,8.84069580078125,-0.010155626572668552,-0.006490438245236874,0.004123337101191282
1781638852415217700,8.8892177734375,-0.00511599238961935,-0.005268708802759647,0.006337722297757864
1781638852463739600,8.93773974609375,0.00022907429956831038,-0.01359174121171236,-0.003665188793092966
1781638852512261600,8.98626171875,-0.004886918235570192,-0.010766491293907166,-0.01206457894295454
1781638852560783600,9.03478369140625,-0.01206457894295454,-0.008704823441803455,-0.007941242307424545
1781638852609305900,9.083305908203124,-0.00755945174023509,-0.008399390615522861,0.006719512399286032
1781638852657827800,9.131827880859374,-0.007788525894284248,0.005345067009329796,-0.018173227086663246
1781638852706349800,9.180349853515626,-0.0058795735239982605,0.006337722297757864,0.004886918235570192
1781638852754872000,9.2288720703125,-0.014660755172371864,0.009315688163042068,0.002901607658714056
1781638852803393800,9.277393798828125,-0.01183550525456667,0.004123337101191282,-0.009926552884280682
1781638852851916000,9.325916015625,-0.009621120058000088,0.0001527161948615685,-0.0013744457392022014
1781638852900438300,9.374438232421875,-0.013286309316754341,0.004505127668380737,-0.011377356946468353
1781638852948960300,9.422960205078125,-0.00954476185142994,-0.0010690133785828948,-0.006337722297757864
1781638852997482200,9.471482177734375,-0.014049889519810677,0.006566796451807022,-0.005955931730568409
1781638853046004200,9.520004150390625,-0.013820815831422806,0.01611155830323696,-0.010384701192378998
1781638853094526200,9.568526123046874,-0.013820815831422806,0.023441936820745468,-0.007101302966475487
1781638853143048400,9.61704833984375,-0.009926552884280682,0.022983787581324577,0.0025961752980947495
1781638853191570400,9.6655703125,-0.010995565913617611,0.030161447823047638,-0.010766491293907166
1781638853240092700,9.7140927734375,-0.013209951110184193,0.0154243353754282,-0.011453714221715927
1781638853288614400,9.762614501953125,-0.010613775812089443,0.009010255336761475,-0.002061668550595641
1781638853337136600,9.81113671875,-0.010537417605519295,0.0062613640911877155,-0.012446369975805283
1781638853385658600,9.85965869140625,-0.011377356946468353,0.004657844081521034,-0.005650499369949102
1781638853434180600,9.9081806640625,-0.01588248461484909,-0.0009926552884280682,-0.00022907429956831038
1781638853482702800,9.956702880859375,-0.012980876490473747,-0.0062613640911877155,-0.014431680552661419
1781638853531224800,10.005224853515625,-0.006108647678047419,-0.015271619893610477,-0.003512472379952669
1781638853579746800,10.053746826171874,-0.010613775812089443,-0.009926552884280682,-0.0007635809597559273
1781638853628269000,10.10226904296875,-0.01000291109085083,-0.008933897130191326,-0.011224640533328056
1781638853676791000,10.150791015625,-0.010155626572668552,-0.002061668550595641,-0.005039634648710489
1781638853725313000,10.19931298828125,-0.01565340906381607,0.004123337101191282,0.005955931730568409
1781638853773835300,10.247835205078125,-0.008704823441803455,0.006108647678047419,0
1781638853870879200,10.344879150390625,-0.008323032408952713,-0.005039634648710489,0.0007635809597559273
1781638853919401500,10.3934013671875,-0.004046979360282421,-0.012217295356094837,0.010613775812089443
1781638853967923500,10.44192333984375,-0.009621120058000088,-0.0062613640911877155,-0.008552107028663158
1781638854016445400,10.490445556640625,-0.00511599238961935,-0.005039634648710489,-0.002672533504664898
1781638854064967400,10.538967529296874,-0.004734201822429895,-0.0054977829568088055,-0.0030543238390237093
1781638854113489700,10.58748974609375,-0.0016035200096666813,-0.008323032408952713,0.0001527161948615685
1781638854162011600,10.63601171875,-0.008933897130191326,0.002672533504664898,-0.005039634648710489
1781638854210533600,10.68453369140625,-0.0010690133785828948,-0.004046979360282421,-0.0016035200096666813
1781638854259055900,10.733055908203125,0.003283398225903511,-0.0062613640911877155,0
1781638854307577900,10.781577880859375,-0.002901607658714056,0.0013744457392022014,-0.000610864779446274
1781638854356099800,10.830099853515625,-0.00022907429956831038,-0.008552107028663158,0.0019853105768561363
1781638854404621800,10.878621826171875,-0.014202605932950974,0.0034361144062131643,-0.017333287745714188
1781638854453144000,10.92714404296875,-0.014278964139521122,0.02237292192876339,-0.004276053514331579
1781638854501666000,10.975666015625,-0.007483093533664942,0.024816380813717842,0.000610864779446274
1781638854550188300,11.024188232421874,-0.008323032408952713,0.01954767294228077,-0.0058795735239982605
1781638854598710300,11.072710205078126,-0.00954476185142994,0.016035201027989388,-0.01626427471637726
1781638854647232300,11.121232177734376,-0.009392046369612217,0.009926552884280682,-0.009621120058000088
1781638854695754200,11.169754150390625,-0.009162971749901772,0.007941242307424545,-0.004123337101191282
1781638854792798200,11.266798095703125,-0.006719512399286032,0.017867794260382652,-0.02825249545276165
1781638854841320400,11.315320556640625,-0.005955931730568409,0.006490438245236874,-0.033597562462091446
1781638854889842400,11.363842529296875,-0.007941242307424545,0.0009926552884280682,-0.007101302966475487
1781638854938364400,11.412364501953125,-0.011224640533328056,-0.01359174121171236,-0.006337722297757864
1781638854986886700,11.46088671875,0.006719512399286032,0.003665188793092966,-0.02932151034474373
1781638855035408600,11.50940869140625,0.013820815831422806,-0.017715077847242355,-0.05635227635502815
1781638855083930600,11.5579306640625,0.010613775812089443,-0.013668099418282509,-0.03581194952130318
1781638855132452600,11.60645263671875,0.02909243479371071,-0.04016435891389847,-0.031001387163996696
1781638855180974800,11.654974853515625,0.03848448023200035,-0.050090912729501724,-0.051159925758838654
1781638855229496800,11.703496826171875,0.043753188103437424,-0.05841394513845444,-0.054214250296354294
1781638855326541000,11.800541015625,0.020998476073145866,-0.04505127668380737,-0.05971203371882439
1781638855423585300,11.897585205078125,0.001832594396546483,0.00045814859913662076,-0.07406735420227051
1781638855472107000,11.94610693359375,0.001832594396546483,-0.001832594396546483,-0.08139773458242416
1781638855520629200,11.994629150390624,-0.016340631991624832,0.0295505840331316,-0.11957678198814392
1781638855569151200,12.043151123046876,-0.003512472379952669,0.030085090547800064,-0.14515674114227295
1781638855617673500,12.091673583984376,0.010842849500477314,0.03527744114398956,-0.17493639886379242
1781638855666195500,12.140195556640625,0.02848157100379467,0.03543015569448471,-0.18646647036075592
1781638855714717400,12.188717529296875,0.02825249545276165,0.011606430634856224,-0.2179260104894638
1781638855763239700,12.23723974609375,-0.009621120058000088,0.04253146052360535,-0.20204351842403412
1781638855811761700,12.28576171875,-0.02893971838057041,0.08124501258134842,-0.19020801782608032
1781638855860283600,12.33428369140625,-0.02214384824037552,0.14744748175144196,-0.16478078067302704
1781638855908805600,12.3828056640625,0.019394956529140472,0.3352120518684387,0.13965895771980286
1781638855957327600,12.43132763671875,-0.005268708802759647,0.0899498388171196,0.5970439910888672
1781638856005849900,12.479849853515624,-0.16752967238426208,-0.29794928431510925,0.8169552683830261
1781638856054371800,12.528371826171876,-0.35880669951438904,-0.38240134716033936,0.536339282989502
1781638856102893800,12.576893798828126,-0.4251618981361389,-0.5788707137107849,0.19204062223434448
1781638856151415800,12.625415771484375,-0.41554075479507446,-0.6112465858459473,0.2292270064353943
1781638856199937800,12.673937744140625,-0.16997312009334564,-0.7415898442268372,0.12583814561367035
1781638856296982000,12.77098193359375,0.10751219838857651,-0.7049379348754883,0.22036947309970856
1781638856345504000,12.81950390625,0.06207913160324097,-0.7650317549705505,0.25060728192329407
1781638856394026000,12.86802587890625,0.07803797721862793,-0.8148936033248901,0.08819360285997391
1781638856442548200,12.91654833984375,0.14706569910049438,-0.41905322670936584,-0.35957029461860657
1781638856491070200,12.9650703125,-0.11682789027690887,0.30199626088142395,-0.3600284159183502
1781638856539592200,13.01359228515625,-0.8120683431625366,0.14133884012699127,-1.0948987007141113
1781638856588114200,13.0621142578125,-0.5192350745201111,0.6068177819252014,-0.9342412948608398
1781638856636636400,13.110636474609375,0.1003345400094986,0.6898190379142761,-0.3610210716724396
1781638856685158400,13.159158447265625,0.6322450637817383,0.8600975871086121,0.45799586176872253
1781638856733680400,13.207680419921875,0.43600472807884216,1.4152209758758545,0.43692103028297424
1781638856782202400,13.256202392578125,0.6391936540603638,0.8538362383842468,0.29420775175094604
1781638856830724400,13.304724365234375,0.3197113573551178,0.8071050643920898,-0.018325943499803543
1781638856879246600,13.35324658203125,0.4263836145401001,0.5898662805557251,-0.5015199780464172
1781638856927768600,13.4017685546875,0.14706569910049438,0.643393337726593,-0.5528326034545898
1781638856976290600,13.45029052734375,-0.18585561215877533,0.8214604258537292,-0.5335140228271484
1781638857024812800,13.498812744140626,0.19608759880065918,0.04321868345141411,-0.12301289290189743
1781638857121856800,13.595856689453125,0.4365392327308655,0.12362375855445862,1.9091814756393433
1781638857170378800,13.644378662109375,0.565889835357666,-0.9582177400588989,2.2831835746765137
1781638857218900700,13.692900634765625,-0.34926193952560425,-0.35208719968795776,0.9460004568099976
1781638857267423000,13.741423095703125,-0.8639155030250549,-0.811610221862793,-0.25793763995170593
1781638857315945000,13.789945068359375,-0.9644027948379517,-0.7558687925338745,0.41126471757888794
1781638857364467000,13.838467041015624,-0.3318522870540619,-1.177976369857788,0.3027598559856415
1781638857412989000,13.886989013671876,0.235564723610878,-1.1036036014556885,0.033368486911058426
1781638857461511000,13.935510986328126,0.6084213256835938,-1.0289254188537598,-0.17631085216999054
1781638857510033000,13.984032958984375,0.3480401933193207,-0.5524508357048035,-0.44386962056159973
1781638857558555100,14.03255517578125,-0.2974911332130432,-0.5210676789283752,0.3813323378562927
1781638857607076900,14.081076904296875,-0.05787943676114082,-0.018173227086663246,-0.5094612240791321
1781638857655599000,14.12959912109375,-0.7609847784042358,-0.26534438133239746,-1.1113157272338867
1781638857704121000,14.17812109375,-0.514195442199707,-0.23823726177215576,-0.7987820506095886
1781638857752643000,14.22664306640625,-0.1914297491312027,0.124845489859581,-0.17577634751796722
1781638857801165000,14.2751650390625,0.6666061878204346,0.3196350038051605,-0.046883873641490936
1781638857849687000,14.32368701171875,0.4679224193096161,1.12765634059906,-0.26855143904685974
1781638857898209300,14.372209228515626,0.4304305911064148,1.1094831228256226,-0.4341721534729004
1781638857995253200,14.469253173828125,0.36163195967674255,0.957072377204895,-0.7683151960372925
1781638858043775200,14.517775146484375,0.35674503445625305,0.6696605086326599,-0.9210313558578491
1781638858092297200,14.566297119140625,0.2390008419752121,0.49113526940345764,-0.4459312856197357
1781638858140819500,14.6148193359375,0.24999640882015228,-0.1533270627260208,-0.036880962550640106
1781638858189341400,14.663341552734375,0.17043127119541168,0.5067886710166931,1.3107631206512451
1781638858237863400,14.711863525390624,0.8092431426048279,0.19463679194450378,2.526078462600708
1781638858286385400,14.760385498046874,0.399887353181839,-0.588110089302063,2.014784812927246
1781638858334907400,14.808907470703126,-0.6461422443389893,-0.4494437575340271,0.051159925758838654
1781638858383429000,14.85742919921875,-1.363908290863037,-0.6800451874732971,-0.12866339087486267
1781638858431951400,14.905951416015625,-0.948520302772522,-0.8941532969474792,0.0009926552884280682
1781638858480473300,14.954473388671875,0.1282816082239151,-0.9765437245368958,0.12873975932598114
1781638858528995600,15.00299560546875,0.6476693749427795,-0.7354812026023865,0.2703840136528015
1781638858577517600,15.051517578125,0.46204283833503723,-0.9160680770874023,-0.46547895669937134
1781638858626039600,15.10003955078125,-0.5896372199058533,-0.010842849500477314,0.11339177191257477
1781638858674561500,15.1485615234375,-0.0513126403093338,0.2643517255783081,-1.113224744796753
1781638858771605500,15.24560546875,-0.6052142977714539,-0.2545015513896942,-0.9690605998039246
1781638858820127500,15.29412744140625,-0.23823726177215576,-0.5761982202529907,-0.44982555508613586
1781638858868649500,15.3426494140625,0.6058251261711121,0.047265663743019104,0.28298309445381165
1781638858917171500,15.39117138671875,0.5673406720161438,0.7921388745307922,0.3082576394081116
1781638858965693400,15.439693359375,0.5255727767944336,1.5728241205215454,-0.3605629503726959
1781638859014215400,15.48821533203125,0.5754346251487732,0.7577013969421387,-0.9961677193641663
1781638859062737700,15.536737548828125,0.13209950923919678,0.8498656153678894,-1.3461933135986328
1781638859111259400,15.58525927734375,-0.3455967605113983,1.5552617311477661,-0.637742817401886
1781638859159781600,15.63378173828125,0.6461422443389893,-0.5402335524559021,0.002290742937475443
1781638859208303600,15.6823037109375,0.7127264738082886,-0.01954767294228077,0.8067996501922607
1781638859256825600,15.73082568359375,0.6190351247787476,-0.37461283802986145,2.2453861236572266
1781638859305347600,15.77934765625,0.6112465858459473,-0.6023126840591431,1.9557600021362305
1781638859353869300,15.827869384765625,0.0345902182161808,-0.7037162184715271,1.0148755311965942
1781638859402391600,15.8763916015625,-1.0752747058868408,-0.6892082095146179,-0.3084867000579834
1781638859450913500,15.92491357421875,-1.0377064943313599,-0.7079922556877136,-0.031612250953912735
1781638859499435500,15.973435546875,-0.26618432998657227,-1.1848485469818115,0.11362084746360779
1781638859547957500,16.02195751953125,0.34956738352775574,-1.1026109457015991,-0.08261945843696594
1781638859596479500,16.0704794921875,0.6412553191184998,-0.9937242865562439,0.06207913160324097
1781638859645001500,16.11900146484375,-0.16760602593421936,0.09613484144210815,-0.26648977398872375
1781638859693523700,16.167523681640624,-0.11606431007385254,-0.030390523374080658,-0.3693441152572632
1781638859742045400,16.21604541015625,-0.29703301191329956,0.256792277097702,-0.7961859107017517
1781638859790567400,16.2645673828125,-0.8338304162025452,-0.043829549103975296,-1.2964078187942505
1781638859839089400,16.31308935546875,-0.42882707715034485,-0.24144430458545685,-0.5823068618774414
1781638859887611600,16.361611572265623,0.42073312401771545,0.1421024203300476,-0.22441644966602325
1781638859936133400,16.41013330078125,0.46166107058525085,1.0454187393188477,0.08956804871559143
1781638859984655400,16.4586552734375,0.5664243698120117,1.7936517000198364,-0.44089165329933167
1781638860033177300,16.50717724609375,0.6763800382614136,1.188895583152771,-0.6214785575866699
1781638860081699300,16.55569921875,0.25350889563560486,0.7035635113716125,-0.8812488317489624
1781638860130221300,16.60422119140625,-0.368122398853302,1.3153445720672607,-0.5699368119239807
1781638860178743600,16.65274365234375,0.20937390625476837,-0.2341139316558838,-0.4546361267566681
1781638860227265300,16.701265380859375,0.6333140730857849,-0.21662792563438416,0.08575014024972916
1781638860275787500,16.74978759765625,0.20051635801792145,0.9496656656265259,1.249218463897705
1781638860372831200,16.846831298828125,-0.0054977829568088055,-0.5270236134529114,1.7437899112701416
1781638860421353500,16.895353515625,-0.6253728270530701,-0.44669488072395325,0.42310020327568054
1781638860469875200,16.943875244140624,-1.1253656148910522,-0.9474512934684753,-0.31925320625305176
1781638860518397200,16.992397216796874,-0.716697096824646,-0.8416189551353455,0.24510949850082397
1781638860566919400,17.04091943359375,0.2903898358345032,-1.2561670541763306,0.14026983082294464
1781638860615441200,17.089441162109374,0.5732202529907227,-1.07558012008667,-0.16638429462909698
1781638860663963400,17.13796337890625,0.31719154119491577,-1.1030690670013428,-0.1366809904575348
1781638860712485400,17.1864853515625,-0.4467712342739105,0.15027274191379547,-0.06436987966299057
1781638860761007000,17.235007080078127,-0.22006404399871826,0.49273881316185,-0.7942769527435303
1781638860809529000,17.283529052734377,-0.7365502119064331,0.10919208079576492,-1.3084723949432373
1781638860858051000,17.332051025390626,-0.30115634202957153,0.008933897130191326,-0.6562978625297546
1781638860906573000,17.380572998046876,0.07635809481143951,-0.4137081801891327,-0.627968966960907
1781638860955095000,17.429094970703126,0.6788234710693359,0.3180314898490906,0.35048365592956543
1781638861003617000,17.477616943359376,0.32704174518585205,1.2551743984222412,0.027259841561317444
1781638861052139000,17.526138916015626,0.5331322550773621,1.060308575630188,-0.48884454369544983
1781638861100661000,17.574660888671875,0.32849252223968506,0.9606612324714661,-1.126205563545227
1781638861149183000,17.623182861328125,-0.19593487679958344,1.214017391204834,-1.3655118942260742
1781638861197705000,17.671705078125,-0.3248273432254791,0.8002328872680664,-0.2903898358345032
1781638861246227000,17.72022705078125,0.7126501202583313,-0.653167188167572,0.04192059487104416
1781638861294749000,17.7687490234375,0.3153589367866516,1.0081559419631958,0.708984911441803
1781638861343271000,17.81727099609375,0.9857066869735718,-0.8565851449966431,2.7498841285705566
1781638861391793000,17.86579296875,0.43982264399528503,-0.9796743988990784,2.0416626930236816
1781638861440315000,17.91431494140625,-0.432110458612442,-0.5395463109016418,0.6155226230621338
1781638861488836600,17.962836669921874,-0.9855539798736572,-1.035186767578125,-0.23357942700386047
1781638861585880800,18.059880859375,-0.014813470654189587,-1.2521201372146606,0.31436628103256226
1781638861634402600,18.108402587890627,0.5941423773765564,-1.4521782398223877,0.0007635809597559273
1781638861682924500,18.156924560546877,0.41095927357673645,-0.5899426341056824,-0.041386090219020844
1781638861731446800,18.20544677734375,-0.3667479455471039,-0.03375028073787689,0.1233946830034256
1781638861779968500,18.253968505859376,0.15958842635154724,-0.002901607658714056,-0.6558396816253662
1781638861828490500,18.302490478515626,-1.0374010801315308,-0.12667807936668396,-1.444313406944275
1781638861877012200,18.35101220703125,-0.5670352578163147,-0.18730641901493073,-1.1953096389770508
1781638861925534500,18.399534423828126,0.38217228651046753,-0.06452259421348572,-0.48670652508735657
1781638861974056400,18.448056396484375,0.8287907838821411,0.884379506111145,0.33513569831848145
1781638862022578200,18.496578125,0.47586366534233093,1.6603304147720337,-0.015271619893610477
1781638862071100400,18.545100341796875,0.5969675779342651,1.9482768774032593,-0.9317978620529175
1781638862119622400,18.593622314453125,0.6298015713691711,1.0370193719863892,-1.1012364625930786
1781638862168144100,18.64214404296875,0.04802924394607544,1.185917615890503,-0.7525854110717773
1781638862216666000,18.690666015625,-0.25732678174972534,0.6479747891426086,-0.31864234805107117
1781638862265188000,18.73918798828125,0.7389936447143555,-0.33337944746017456,0.14950916171073914
1781638862313710000,18.7877099609375,0.38583746552467346,1.256090760231018,1.281212568283081
1781638862362232000,18.836232177734374,1.1610249280929565,-0.9093486070632935,3.0795984268188477
1781638862410753800,18.88475390625,0.43455392122268677,-0.34636032581329346,1.9924118518829346
1781638862459276000,18.933276123046873,-0.5137372612953186,-0.938746452331543,-0.28870996832847595
1781638862507797800,18.9817978515625,-1.392924427986145,-1.09688401222229,-0.342542439699173
1781638862556320000,19.030320068359377,-0.7770199775695801,-1.3822343349456787,0.11140646785497665
1781638862604841700,19.078841796875,0.2603811025619507,-1.7091996669769287,0.10399972647428513
1781638862653363700,19.12736376953125,0.4234820008277893,-1.0667226314544678,-0.14798198640346527
1781638862701885700,19.1758857421875,0.17547090351581573,-0.7554870247840881,-0.125074565410614
1781638862750407700,19.22440771484375,-0.47181668877601624,-0.1899789422750473,0.16332997381687164
1781638862798929400,19.272929443359374,-0.16355904936790466,0.388662725687027,-0.4812087416648865
1781638862847451400,19.321451416015623,-1.208748698234558,-0.3756818473339081,-1.7460806369781494
1781638862895973400,19.369973388671873,-0.3753000497817993,-0.41294458508491516,-0.8462004065513611
1781638862944495400,19.418495361328127,0.5007563829421997,0.29016077518463135,-0.44791659712791443
1781638862993017300,19.467017333984376,0.6652317643165588,0.9635628461837769,0.10041090101003647
1781638863041539300,19.515539306640626,0.6355284452438354,1.9618686437606812,-0.2635118067264557
1781638863138583000,19.6125830078125,0.5359575152397156,1.0162498950958252,-1.1133774518966675
1781638863187105000,19.66110498046875,-0.1219438835978508,1.470962405204773,-0.4951822757720947
1781638863235626800,19.709626708984374,0.16325360536575317,0.14378230273723602,-0.22823435068130493
1781638863284149000,19.75814892578125,0.6846266984939575,-0.24236060678958893,0.124845489859581
1781638863332671000,19.8066708984375,0.3850739002227783,1.1690424680709839,1.6815580129623413
1781638863381192700,19.855192626953126,1.1113157272338867,-0.7128791809082031,3.1167848110198975
1781638863429714700,19.903714599609376,0.17676898837089539,-0.30260714888572693,1.559308648109436
1781638863478236700,19.952236572265626,-0.677678108215332,-0.45127636194229126,-0.22189663350582123
1781638863526758400,20.00075830078125,-1.3012946844100952,-0.48502662777900696,-0.09056070446968079
1781638863575280600,20.04928076171875,-0.5066359639167786,-1.040684461593628,0.15225805342197418
1781638863623802400,20.09780224609375,0.5375609993934631,-1.5289945602416992,-0.001679878099821508
1781638863672324400,20.146324462890625,0.7008909583091736,-1.4650827646255493,0.11728604137897491
1781638863720846300,20.194846435546875,-0.20914483070373535,-0.3805687427520752,-0.21609342098236084
1781638863769368000,20.2433681640625,-0.29443681240081787,-0.6324741244316101,-0.04130972921848297
1781638863817890000,20.29189013671875,-0.534277617931366,0.5334376692771912,-0.5558869242668152
1781638863866412000,20.340412109375,-1.2180644273757935,-0.15370884537696838,-1.8043417930603027
1781638863914934000,20.38893408203125,0.019929463043808937,-0.2441931962966919,-0.6960040330886841
1781638863963456000,20.4374560546875,0.6735547780990601,0.6281217336654663,-0.7336485981941223
1781638864011978000,20.48597802734375,0.6542361974716187,1.2172244787216187,0.18585561215877533
1781638864060499700,20.534499755859375,0.5318341255187988,2.3426663875579834,-0.5668824911117554
1781638864109021700,20.583021728515625,0.7314342260360718,1.577100157737732,-0.7664825916290283
1781638864157543700,20.631543701171875,0.722882091999054,0.9490547776222229,-1.1633156538009644
1781638864206065400,20.6800654296875,-0.08628465235233307,1.4437025785446167,-0.5645917654037476
1781638864254587400,20.72858740234375,0.2427423894405365,-0.12660172581672668,-0.14798198640346527
1781638864303109000,20.777109130859376,0.5447386503219604,-0.17371466755867004,0.36285367608070374
1781638864351631000,20.825631103515626,0.3210858106613159,0.5962040424346924,2.2960879802703857
1781638864400153000,20.874153076171876,0.5776489973068237,-0.318871408700943,2.292193651199341
1781638864448674800,20.9226748046875,0.3568977415561676,-0.47319114208221436,1.183245062828064
1781638864497196800,20.97119677734375,-0.6141481995582581,-0.441426157951355,-0.10949750989675522
1781638864545719000,21.019718994140625,-1.0254892110824585,-0.561766505241394,0.0985783040523529
1781638864594240800,21.06824072265625,-0.22296564280986786,-0.9899827241897583,0.16042836010456085
1781638864691284700,21.16528466796875,0.8323796391487122,-0.6764563918113708,0.3522399067878723
1781638864739806500,21.213806396484376,0.2683223485946655,-0.01611155830323696,0.5009090900421143
1781638864788328400,21.262328369140626,0.14309507608413696,-0.16226094961166382,-0.4935787320137024
1781638864836850400,21.310850341796876,-0.6851612329483032,1.1601849794387817,-0.13820815086364746
1781638864885372200,21.3593720703125,-1.070387840270996,0.4451677203178406,-2.252258539199829
1781638864933894100,21.40789404296875,0.43753188848495483,0.5866592526435852,-0.5429060459136963
1781638864982416000,21.456415771484377,0.9073632955551147,2.584110736846924,-0.09208786487579346
1781638865030937900,21.504937744140626,0.48502662777900696,3.5217881202697754,-0.4787652790546417
1781638865079459800,21.5534599609375,0.6604975461959839,3.6069273948669434,-0.7072287201881409
1781638865127981600,21.601981689453126,1.0503056049346924,2.1457388401031494,-0.34926193952560425
1781638865176503600,21.650503662109376,0.5976548194885254,2.5083634853363037,-0.39423686265945435
1781638865225025500,21.699025634765626,0.4182896614074707,1.6627739667892456,-0.41294458508491516
1781638865273547300,21.74754736328125,0.6208676695823669,1.289382815361023,0.16821688413619995
1781638865322069200,21.7960693359375,0.7057015299797058,1.785557746887207,1.8015929460525513
1781638865370591200,21.84459130859375,0.915686309337616,-0.007101302966475487,2.792491912841797
1781638865419113000,21.893113037109377,-0.2926042377948761,0.7023417949676514,0.41187557578086853
1781638865467635000,21.941635009765626,-0.5341249108314514,0.946458637714386,0.21914774179458618
1781638865516156700,21.99015673828125,-0.8846849203109741,0.5080868005752563,0.4436405599117279
1781638865564678700,22.0386787109375,-0.6256782412528992,-0.4053851366043091,0.5135082006454468
1781638865613200400,22.087200439453124,-0.20723587274551392,-0.7540361881256104,0.014202605932950974
1781638865661722400,22.135722412109374,0.24144430458545685,-1.1435388326644897,-0.4923570156097412
1781638865710244400,22.184244384765623,0.000610864779446274,-0.5194641351699829,-0.7643445730209351
1781638865758766300,22.232766357421873,-0.6312524080276489,0.5844448804855347,0.6192641854286194
1781638865807288000,22.2812880859375,-0.33108872175216675,0.451200008392334,-0.18829907476902008
1781638865855810000,22.32981005859375,-1.1039854288101196,0.5135082006454468,-1.7986149787902832
1781638865904331800,22.378331787109374,-0.17974695563316345,0.5748237371444702,-0.6681333780288696
1781638865952853800,22.426853759765624,0.4935787320137024,1.1508692502975464,-0.476321816444397
1781638866001375700,22.475375732421874,0.3364337682723999,1.753029227256775,-0.4534907341003418
1781638866049897500,22.5238974609375,0.4194350242614746,2.49843692779541,-0.6336958408355713
1781638866098419500,22.57241943359375,0.6721803545951843,2.1076362133026123,-0.6696605086326599
1781638866146941400,22.62094140625,0.35995206236839294,2.235612392425537,-0.5465712547302246
1781638866243985200,22.717985107421875,0.2697731554508209,0.5340485572814941,0.11316270381212234
1781638866292507100,22.766507080078124,0.42615455389022827,0.7772490978240967,0.060093823820352554
1781638866341028900,22.81502880859375,0.46608981490135193,0.6821069121360779,1.8842887878417969
1781638866389550800,22.86355078125,0.7069995999336243,-0.1519526094198227,2.531423568725586
1781638866438072300,22.912072265625,-0.07131846249103546,0.02672533318400383,0.8880446553230286
1781638866486594300,22.96059423828125,-0.6078104376792908,-0.5601630210876465,0
1781638866535116300,23.0091162109375,-1.164079189300537,-0.850934624671936,-0.060322895646095276
1781638866583638000,23.057637939453127,-0.5612320303916931,-1.1392627954483032,0.20341797173023224
1781638866632160000,23.106159912109376,0.4082103967666626,-1.4045308828353882,0.04932733252644539
1781638866680682000,23.154681884765626,0.5994874238967896,-1.3300052881240845,0.06368265300989151
1781638866729203700,23.20320361328125,-0.19685117900371552,-0.19532401859760284,0.1000291109085083
1781638866777725700,23.2517255859375,-0.1818849891424179,-0.39568766951560974,-0.41645705699920654
1781638866826247400,23.300247314453124,-0.5176315307617188,0.6898953914642334,-0.7690787315368652
1781638866874769200,23.34876904296875,-0.931950569152832,0.39561131596565247,-1.6687299013137817
1781638866923291100,23.397291015625,0.17921245098114014,0.12767073512077332,-0.4269944727420807
1781638866971813000,23.445813232421877,0.7310523986816406,0.7179951667785645,-0.027259841561317444
1781638867020334800,23.4943349609375,0.4082103967666626,1.1578178405761719,-0.020540328696370125
1781638867068856800,23.54285693359375,0.2641226649284363,2.0069198608398438,-0.6905062794685364
1781638867117378600,23.591378662109374,0.30138540267944336,1.3513855934143066,-1.052290916442871
1781638867165900500,23.639900634765624,0.37690356373786926,1.1409426927566528,-1.2105813026428223
1781638867214422500,23.688422607421874,-0.212733656167984,0.934012234210968,-0.4563159942626953
1781638867262944300,23.7369443359375,0.35964664816856384,-0.2689332067966461,0.033597562462091446
1781638867311466000,23.785466064453125,0.5078576803207397,0.7577013969421387,0.5752819180488586
1781638867359988000,23.833988037109375,0.8048906922340393,0.10888664424419403,2.7146830558776855
1781638867408509700,23.882509765625,0.7683151960372925,-0.6760746240615845,2.536081552505493
1781638867457031400,23.931031494140626,-0.21487168967723846,-0.38522660732269287,0.6235402226448059
1781638867505553700,23.9795537109375,-1.1766782999038696,-1.040684461593628,-0.6090322136878967
1781638867554075400,24.028075439453126,-1.2231040000915527,-0.917137086391449,-0.08170316368341446
1781638867602597400,24.076597412109376,-0.1311832070350647,-1.140102744102478,0.36972591280937195
1781638867651118800,24.125118896484373,0.3909534513950348,-1.2253947257995605,0.07612902671098709
1781638867699640800,24.173640869140623,0.34231334924697876,-1.219896912574768,0.09728021919727325
1781638867796684800,24.270684814453126,0.044211339205503464,-0.15867212414741516,-0.6742420196533203
1781638867845206500,24.31920654296875,-1.1125375032424927,0.000610864779446274,-1.3758201599121094
1781638867893728300,24.367728271484374,-0.7528144717216492,-0.2932150959968567,-1.4058289527893066
1781638867942250000,24.41625,0.10835213959217072,-0.5096902847290039,-0.36567893624305725
1781638867990772000,24.46477197265625,0.7875574231147766,0.44119709730148315,0.05757400393486023
1781638868039293700,24.513293701171875,0.5157225728034973,1.2136355638504028,-0.06414080411195755
1781638868087815700,24.561815673828125,0.6320923566818237,2.072816848754883,-0.7100539207458496
1781638868136337400,24.61033740234375,0.643393337726593,0.8171079754829407,-0.8113811612129211
1781638868184859400,24.658859375,-0.15966477990150452,1.0278563499450684,-0.8891900181770325
1781638868233381000,24.707381103515626,-0.34956738352775574,1.0851249694824219,-0.22334744036197662
1781638868281903000,24.755903076171876,0.8495602011680603,-0.8297834396362305,-0.07353284955024719
1781638868330424800,24.8044248046875,0.40973755717277527,0.6595048904418945,0.7664825916290283
1781638868378946600,24.852946533203124,0.9456186890602112,-0.4444804787635803,2.6170973777770996
1781638868427468300,24.90146826171875,0.6149880886077881,-0.9187406301498413,2.5137085914611816
1781638868475990300,24.949990234375,-0.24266603589057922,-0.854218065738678,0.7147117853164673
1781638868524512300,24.99851220703125,-1.1704169511795044,-1.4979931116104126,-0.3605629503726959
1781638868573034000,25.047033935546875,-1.268766164779663,-1.7256929874420166,-0.42623090744018555
1781638868621555700,25.0955556640625,-0.15775582194328308,-1.183016061782837,0.39561131596565247
1781638868670077700,25.14407763671875,0.4422661066055298,-0.9506583213806152,-0.056657709181308746
1781638868718599400,25.192599365234376,0.6257545948028564,-0.5771145224571228,0.016035201027989388
1781638868767121200,25.24112109375,-0.22075125575065613,0.524503767490387,-0.05971203371882439
1781638868815643100,25.28964306640625,0.033139415085315704,-0.15531237423419952,-0.8324559926986694
1781638868864164900,25.338164794921877,-0.789466381072998,0.2897026240825653,-1.1407135725021362
1781638868912686800,25.386686767578126,-0.6785180568695068,0.3009272515773773,-1.4136937856674194
1781638868961208600,25.43520849609375,0.08689551800489426,-0.24297146499156952,-0.5196931958198547
1781638869009730300,25.483730224609374,0.813060998916626,0.9172898530960083,-0.19937099516391754
1781638869058252000,25.532251953125,0.6373610496520996,1.731190800666809,-0.011453714221715927
1781638869106774000,25.58077392578125,0.5943714380264282,2.5226423740386963,-0.443945974111557
1781638869155295700,25.629295654296875,0.606436014175415,0.667904257774353,-0.4825831651687622
1781638869203817700,25.677817626953125,-0.07498364895582199,1.2235621213912964,-0.6159807443618774
1781638869252339500,25.72633935546875,-0.30283620953559875,0.7486911416053772,-0.7518218159675598
1781638869300861400,25.774861328125,0.545502245426178,-0.8706350326538086,-0.1115591824054718
1781638869397905000,25.87190478515625,0.6795107126235962,0.009926552884280682,2.1229841709136963
1781638869446426600,25.920426513671874,1.007086992263794,-0.6178133487701416,2.72835111618042
1781638869494948600,25.968948486328124,0.05253437161445618,-0.998763918876648,1.2634974718093872
1781638869543470300,26.01747021484375,-1.1620938777923584,-1.2325724363327026,-0.8491020202636719
1781638869591992300,26.065992431640623,-1.4860812425613403,-1.2705987691879272,-0.48991355299949646
1781638869640513800,26.114513671875,-0.42684176564216614,-1.2189042568206787,0.22808164358139038
1781638869689035800,26.163035888671875,0.4047742784023285,-0.7318159937858582,0.1101083755493164
1781638869737557500,26.2115576171875,0.5361865758895874,-0.7147117853164673,0.20318889617919922
1781638869786079200,26.260079345703126,-0.14782927930355072,0.45509424805641174,0.17203480005264282
1781638869834601200,26.308601318359376,-0.10308343172073364,-0.3860665261745453,-1.0773364305496216
1781638869883123000,26.357123046875,-0.7655662894248962,0.26618432998657227,-0.9596685767173767
1781638869931644700,26.405644775390623,-0.8232166767120361,-0.14866921305656433,-1.4614176750183105
1781638869980166700,26.454166748046877,0.29886558651924133,-0.7784708142280579,-0.3050506114959717
1781638870028688400,26.5026884765625,0.5664243698120117,-0.12438733875751495,0.09750928729772568
1781638870077210000,26.551210205078124,0.5804742574691772,0.49220430850982666,0.10468695312738419
1781638870125732000,26.599732177734374,0.15844304859638214,2.028071165084839,-0.5148062705993652
1781638870174253800,26.64825390625,0.5166388750076294,0.7467058300971985,-0.739757239818573
1781638870222775600,26.696775634765626,0.42073312401771545,0.11743875592947006,-0.943786084651947
1781638870271297300,26.74529736328125,-0.34498587250709534,1.0240384340286255,-0.37003132700920105
1781638870319819000,26.793819091796873,0.4943423271179199,-0.7259364128112793,-0.32131487131118774
1781638870368341000,26.842341064453127,0.4384481906890869,0.4173733592033386,0.5225184559822083
1781638870416862700,26.89086279296875,0.6100248694419861,0.6788234710693359,2.370384454727173
1781638870465384400,26.939384521484374,1.1473567485809326,-0.45730865001678467,2.8170793056488037
1781638870513906400,26.987906494140624,-0.058795735239982605,-0.5709294676780701,1.114980936050415
1781638870562428200,27.03642822265625,-1.029459834098816,-1.1390337944030762,-0.5445095896720886
1781638870610949600,27.08494970703125,-1.4235440492630005,-1.4383574724197388,-0.578336238861084
1781638870659471600,27.1334716796875,-0.39110618829727173,-1.1883610486984253,0.3162752389907837
1781638870707993300,27.181993408203127,0.4206567704677582,-0.7990111112594604,-0.01183550525456667
1781638870756515300,27.230515380859377,0.6898190379142761,-0.7994692921638489,0.17081306874752045
1781638870805036800,27.279036865234374,-0.06979130208492279,0.5261073112487793,-0.13729186356067657
1781638870853558800,27.327558837890624,-0.14340050518512726,-0.38469210267066956,-0.9886083006858826
1781638870902080500,27.37608056640625,-0.5667297840118408,0.3237583339214325,-1.1083377599716187
1781638870999124000,27.4731240234375,-0.05818486958742142,-0.4955640435218811,-0.5748237371444702
1781638871047646000,27.52164599609375,0.7018836140632629,0.2514472007751465,0.5733729600906372
1781638871096167700,27.570167724609377,0.73204505443573,1.1773655414581299,-0.0539088174700737
1781638871144689400,27.618689453125,0.5365683436393738,1.799760341644287,-0.44608399271965027
1781638871193211100,27.667211181640624,0.4667007029056549,1.215468168258667,-0.45158177614212036
1781638871241732900,27.71573291015625,0.33452481031417847,0.627968966960907,-0.7128791809082031
1781638871290254800,27.7642548828125,-0.4283689260482788,0.648127555847168,-0.8383355736732483
1781638871338776600,27.812776611328125,0.26221370697021484,-0.6400335431098938,-0.11468986421823502
1781638871387298300,27.86129833984375,0.46219557523727417,-0.008093958720564842,0.5006800293922424
1781638871435820000,27.909820068359377,0.6275871992111206,0.21120649576187134,2.192164659500122
1781638871484341800,27.958341796875,1.0048725605010986,-0.8934661149978638,2.929936647415161
1781638871532863500,28.006863525390624,-0.31581708788871765,-0.2067013680934906,0.9799798130989075
1781638871581385200,28.05538525390625,-1.0777945518493652,-1.1170426607131958,-0.43432486057281494
1781638871629907200,28.1039072265625,-1.346498727798462,-1.4756965637207031,-0.2946659028530121
1781638871678429000,28.152428955078125,-0.44119709730148315,-0.8345940113067627,0.27511823177337646
1781638871726950700,28.20095068359375,0.4278344213962555,-0.6754637360572815,0.006108647678047419
1781638871775472400,28.249472412109377,0.7275399565696716,-1.021518588066101,0.028863361105322838
1781638871823994000,28.297994140625,-0.23075416684150696,0.7188351154327393,-0.09017891436815262
1781638871921037000,28.395037109375,-0.5198459029197693,0.25495967268943787,-0.8869756460189819
1781638871969559600,28.4435595703125,-0.936684787273407,-0.12171480804681778,-1.7050763368606567
1781638872018081300,28.492081298828126,-0.27550002932548523,-0.5826122760772705,-0.6801216006278992
1781638872066603000,28.54060302734375,0.8684970140457153,0.6039161682128906,0.7132610082626343
1781638872115124700,28.589124755859373,0.8752164840698242,1.1410953998565674,0.3627009689807892
1781638872163646500,28.637646484375,0.3361283540725708,1.922391414642334,-0.5010618567466736
1781638872212168200,28.686168212890625,0.29161158204078674,1.2830450534820557,-0.8051197528839111
1781638872260690000,28.73468994140625,0.15149445831775665,0.49418962001800537,-0.9033163189888
1781638872309211600,28.783211669921876,-0.23113596439361572,0.9144645929336548,-0.42103853821754456
1781638872357733400,28.8317333984375,0.5053378939628601,-0.5917752385139465,-0.001679878099821508
1781638872406255000,28.880255126953124,0.42821621894836426,0.3300960659980774,0.6534726023674011
1781638872454777000,28.928777099609373,0.8077923059463501,-0.040088001638650894,2.579223871231079
1781638872551820300,29.0258203125,-0.22296564280986786,-0.6153699159622192,0.8440623879432678
1781638872600342300,29.07434228515625,-1.22944176197052,-1.3925426006317139,-0.7318159937858582
1781638872648863700,29.12286376953125,-1.194469690322876,-1.71126127243042,-0.4388299882411957
1781638872697385700,29.1713857421875,-0.2502254843711853,-0.9179006814956665,0.26389357447624207
1781638872745907500,29.219907470703124,0.5738310813903809,-1.003269076347351,-0.2023489624261856
1781638872794429200,29.26842919921875,0.7505237460136414,-0.485484778881073,0.12705987691879272
1781638872842951000,29.316950927734375,-0.19562944769859314,0.5838339924812317,-0.3050506114959717
1781638872891472100,29.36547216796875,0.15073087811470032,-0.5053378939628601,-1.2345577478408813
1781638872939994400,29.413994384765626,-0.552603542804718,0.513279139995575,-0.6017017960548401
1781638872988516000,29.46251611328125,-0.9024763703346252,0.07223475724458694,-1.694767951965332
1781638873037037800,29.511037841796874,-0.10545053333044052,-0.2188423126935959,-0.4408152997493744
1781638873085559600,29.5595595703125,0.8505528569221497,0.7799215912818909,0.6798924803733826
1781638873134081300,29.608081298828125,0.790611743927002,1.536935806274414,-0.2124282270669937
1781638873182603000,29.65660302734375,0.35017824172973633,2.140317440032959,-0.8291725516319275
1781638873231124700,29.705124755859377,0.5343539714813232,1.1979057788848877,-0.6864593029022217
1781638873279646500,29.753646484375,0.356286883354187,0.38873907923698425,-0.6310232877731323
1781638873328168200,29.802168212890624,-0.31291547417640686,0.6327031850814819,-0.544891357421875
1781638873376690000,29.85068994140625,0.3903425931930542,-0.6206386089324951,-0.010613775812089443
1781638873425211600,29.899211669921876,0.14477495849132538,0.7506000995635986,0.6128500699996948
1781638873473733400,29.9477333984375,0.7845031023025513,-0.00511599238961935,2.741713762283325
1781638873522255000,29.996255126953123,1.0829105377197266,-0.9799798130989075,2.8521275520324707
1781638873570776800,30.04477685546875,-0.32963791489601135,-0.6312524080276489,0.6053670048713684
1781638873619298600,30.093298583984375,-1.2337177991867065,-1.2355504035949707,-0.7457131743431091
1781638873667820300,30.1418203125,-1.2412772178649902,-1.491960883140564,-0.2747364342212677
1781638873716342000,30.190342041015626,-0.3358229100704193,-0.9830341339111328,0.31719154119491577
1781638873764863700,30.23886376953125,0.33979353308677673,-0.8458186388015747,-0.0360410213470459
1781638873813385500,30.287385498046874,0.6514109373092651,-0.9641736745834351,-0.09575305134057999
1781638873910428400,30.384428466796876,0.04253146052360535,-0.4410443603992462,-1.1083377599716187
1781638873958950700,30.43295068359375,-0.9121738076210022,0.30398157238960266,-1.0096067190170288
1781638874007472400,30.481472412109376,-1.1272746324539185,-0.03627009689807892,-1.6766711473464966
1781638874055994000,30.529994140625,0.01893680728971958,-0.565049946308136,-0.4033234715461731
1781638874104515800,30.578515869140624,0.9478330612182617,0.451200008392334,0.7518218159675598
1781638874201559000,30.67555908203125,0.3536907136440277,2.3041820526123047,-0.7583122849464417
1781638874250081000,30.7240810546875,0.32849252223968506,1.2307398319244385,-0.8521563410758972
1781638874298602800,30.772602783203126,0.2835939824581146,0.44761115312576294,-0.7218894362449646
1781638874347124200,30.821124267578124,-0.2851211428642273,0.7105884552001953,-0.6533962488174438
1781638874395646200,30.869646240234374,0.33887723088264465,-0.6660717129707336,-0.1637117564678192
1781638874444167700,30.918167724609376,0.4388299882411957,-0.060704685747623444,0.5135082006454468
1781638874492689400,30.966689453125,0.5642863512039185,0.10277800261974335,2.308610677719116
1781638874541211100,31.015211181640623,0.936073899269104,-0.7063887715339661,2.799593210220337
1781638874589732900,31.06373291015625,0.055741410702466965,-0.7298306822776794,1.6177226305007935
1781638874638254600,31.112254638671875,-0.9610430002212524,-1.1828632354736328,-0.567111611366272
1781638874686776300,31.1607763671875,-1.3209186792373657,-1.6592614650726318,-0.5047270059585571
1781638874735298000,31.209298095703126,-0.4058432877063751,-0.9728785157203674,0.15745039284229279
1781638874783819500,31.257819580078124,0.314748078584671,-0.5534434914588928,0.025274530053138733
1781638874832341500,31.306341552734374,0.7154753804206848,-0.8818596601486206,0.11774418503046036
1781638874880862700,31.35486279296875,-0.07391463965177536,1.003192663192749,0.03283398225903511
1781638874977906400,31.451906494140626,-0.2775616943836212,0.5280162692070007,-0.513279139995575
1781638875026428200,31.50042822265625,-1.0313688516616821,0.22930335998535156,-1.90299654006958
1781638875074950000,31.548949951171874,-0.2577849328517914,-0.21830779314041138,-0.4929678738117218
1781638875123471400,31.597471435546876,0.6293434500694275,0.17753258347511292,0.388051837682724
1781638875171993300,31.645993408203125,0.8203914165496826,0.9882264733314514,0.41645705699920654
1781638875220514800,31.694514892578123,0.367511510848999,1.9755367040634155,-0.5703186392784119
1781638875269036800,31.743036865234377,0.3422369956970215,1.363297462463379,-0.8029053807258606
1781638875317558300,31.791558349609375,0.2942841053009033,0.5141190886497498,-0.5619956254959106
1781638875366080000,31.840080078125,-0.25205808877944946,0.825507402420044,-0.6613374948501587
1781638875414601500,31.8886015625,0.15378521382808685,-0.30833399295806885,-0.34406960010528564
1781638875463123500,31.93712353515625,0.5835285782814026,-0.3972148299217224,0.14866921305656433
1781638875511645000,31.98564501953125,0.4699077308177948,0.06704241037368774,1.7234022617340088
1781638875560167000,32.0341669921875,0.8859829902648926,-0.4831940531730652,2.505919933319092
1781638875608688400,32.0826884765625,0.17302745580673218,-0.9358448386192322,1.9610286951065063
1781638875657210000,32.131210205078126,-0.746858537197113,-0.8765909671783447,-0.16661337018013
1781638875754253300,32.22825341796875,-0.7493783831596375,-0.9159153699874878,-0.014278964139521122
1781638875802775000,32.276775146484376,0.1683696061372757,-0.6464476585388184,0.12171480804681778
1781638875851297000,32.32529711914062,0.5532907843589783,-0.7369319796562195,0.1302669197320938
1781638875899818500,32.37381860351562,0.21479532122612,0.4225656986236572,0.06681333482265472
1781638875948340200,32.42234033203125,-0.2775616943836212,-0.6967676281929016,-1.1302525997161865
1781638875996861700,32.47086181640625,0.01282816007733345,0.256792277097702,-0.64278244972229
1781638876045383700,32.5193837890625,-0.8061888217926025,0.011224640533328056,-1.7951024770736694
1781638876093905200,32.5679052734375,-0.5522217750549316,0.02260199747979641,-0.7835868000984192
1781638876142427000,32.61642700195313,0.2887863218784332,-0.33024877309799194,-0.32826346158981323
1781638876190948600,32.66494848632812,0.915075421333313,0.7244856357574463,0.6324741244316101
1781638876239470300,32.71347021484375,0.4805215001106262,1.1811834573745728,-0.2213621288537979
1781638876287991800,32.76199169921875,0.24816381931304932,1.383150577545166,-0.4577668011188507
1781638876336513500,32.81051342773438,0.3170388340950012,0.38652467727661133,-1.0025818347930908
1781638876385034800,32.85903466796875,-0.08689551800489426,0.8000037670135498,-0.7186060547828674
1781638876433556500,32.907556396484374,-0.027717988938093185,0.2761108875274658,-0.2309068888425827
1781638876482078500,32.95607836914063,0.6955459117889404,-0.8491020202636719,0.16699515283107758
1781638876530600200,33.00460009765625,0.1795942485332489,0.5324450135231018,1.0994038581848145
1781638876579122000,33.053121826171875,0.7118101716041565,-0.6452259421348572,2.3067781925201416
1781638876627643600,33.1016435546875,0.3326922357082367,-0.8161153197288513,2.0628902912139893
1781638876676165000,33.1501650390625,-0.4659371078014374,-0.7744238376617432,0.6621774435043335
1781638876724686800,33.198686767578124,-1.243338942527771,-1.102000117301941,-0.22617268562316895
1781638876773208600,33.24720849609375,-0.996702253818512,-1.0526727437973022,-0.14737112820148468
1781638876821730300,33.29573022460937,0.03222311660647392,-0.6378955245018005,0.3044397234916687
1781638876870251800,33.34425170898437,0.6062069535255432,-0.7925207018852234,-0.08513928204774857
1781638876918773500,33.3927734375,0.5984947681427002,-0.07147117704153061,-0.04802924394607544
1781638876967295200,33.44129516601563,-0.20723587274551392,0.16997312009334564,-0.583375871181488
1781638877015816700,33.48981665039062,0.12301289290189743,-0.03741546720266342,-0.7257073521614075
1781638877064338400,33.53833837890625,-0.7505237460136414,0.10934479534626007,-1.287855625152588
1781638877161382000,33.6353818359375,0.23541201651096344,-0.568562388420105,-0.5320632457733154
1781638877209903600,33.683903564453125,0.8197805285453796,0.5595521330833435,0.6430115103721619
1781638877258425000,33.73242504882813,0.5471821427345276,1.5518256425857544,-0.21120649576187134
1781638877355468500,33.829468505859374,0.21930044889450073,0.9672279953956604,-0.650189220905304
1781638877403990000,33.877989990234376,0.09812015295028687,0.513279139995575,-0.8953750729560852
1781638877452511700,33.92651171875,-0.183030366897583,0.8267291188240051,-0.43722647428512573
1781638877501033500,33.97503344726562,0.6281217336654663,-0.7703005075454712,0.053374309092760086
1781638877549555000,34.023554931640625,0.3245982825756073,0.1787542998790741,1.0022764205932617
1781638877598076700,34.07207666015625,0.750981867313385,-0.38667741417884827,2.350149631500244
1781638877646598400,34.12059838867187,0.547563910484314,-0.7847321629524231,2.3211333751678467
1781638877695120100,34.1691201171875,-0.3294851779937744,-0.5789470672607422,0.5823068618774414
1781638877743641600,34.2176416015625,-1.2188279628753662,-1.0651191473007202,-0.33368489146232605
1781638877792163300,34.26616333007812,-1.2005020380020142,-1.2479966878890991,-0.26167920231819153
1781638877840684800,34.31468481445312,-0.11484257876873016,-0.7360920310020447,0.2683223485946655
1781638877889206500,34.36320654296875,0.48708829283714294,-0.7544180154800415,-0.039706211537122726
1781638877937728000,34.41172802734375,0.5855902433395386,-0.32765260338783264,0.18402300775051117
1781638877986250000,34.46025,-0.41126471757888794,0.4424951672554016,-0.4741837978363037
1781638878034771500,34.508771484375,0.04459312930703163,-0.4094321131706238,-1.039310097694397
1781638878083293200,34.55729321289063,-0.7138718366622925,0.21395538747310638,-1.1060470342636108
1781638878131814700,34.60581469726562,-0.7357102632522583,0.06856957077980042,-1.5269328355789185
1781638878180336400,34.65433642578125,0.10399972647428513,-0.4857902228832245,-0.7020363211631775
1781638878228857900,34.70285791015625,0.7690787315368652,0.5935314893722534,0.7715222239494324
1781638878325901300,34.7999013671875,0.20357069373130798,1.642997145652771,-0.411722868680954
1781638878374423000,34.848423095703126,0.32276567816734314,0.7063124179840088,-0.7661771774291992
1781638878422944500,34.89694458007813,0.16531528532505035,0.11217004805803299,-0.9605085253715515
1781638878471466200,34.94546630859375,-0.3964512348175049,0.8956804871559143,-0.39446592330932617
1781638878519987700,34.99398779296875,0.5481747984886169,-0.6078104376792908,0.08086322247982025
1781638878568509400,35.04250952148438,0.5397753715515137,0.2543488144874573,0.8511636853218079
1781638878617031200,35.09103125,0.8047379851341248,-0.326583594083786,2.6861250400543213
1781638878665553000,35.139552978515624,0.5813905596733093,-0.6994401812553406,2.4778966903686523
1781638878714074400,35.188074462890626,-0.5043452382087708,-0.04741837829351425,0.6504182815551758
1781638878762596000,35.23659619140625,-1.0421353578567505,-0.7912226319313049,-0.25129449367523193
1781638878811117600,35.28511767578125,-1.1278854608535767,-1.1934770345687866,-0.5172497630119324
1781638878859639300,35.333639404296875,-0.21639885008335114,-0.6450732350349426,0.2503018379211426
1781638878908160800,35.382160888671876,0.5335140228271484,-0.6416370868682861,-0.09666935354471207
1781638878956682500,35.4306826171875,0.6715694665908813,-0.5896372199058533,0.13110685348510742
1781638879005204000,35.47920385742187,-0.36506807804107666,0.9103412628173828,-0.471587598323822
1781638879053725700,35.5277255859375,-0.001679878099821508,-0.32421648502349854,-1.0979530811309814
1781638879102247200,35.5762470703125,-0.54962557554245,0.40698865056037903,-0.8377246856689453
1781638879150769000,35.62476879882813,-0.8434515595436096,0.22678354382514954,-1.597182273864746
1781638879199290400,35.67329028320312,-0.08536835014820099,-0.2775616943836212,-0.43944084644317627
1781638879247812000,35.72181201171875,0.9022472500801086,0.7964149713516235,0.572151243686676
1781638879296333800,35.77033374023438,0.6620246767997742,1.4366012811660767,0.0784197673201561
1781638879344855600,35.81885546875,0.24022257328033447,1.8043417930603027,-0.5607738494873047
1781638879393377000,35.867376953125,0.29367324709892273,0.9105703234672546,-0.9173662066459656
1781638879441898800,35.91589868164063,0.10239620506763458,0.38179048895835876,-0.9527199864387512
1781638879490420200,35.96442016601563,-0.3099375069141388,0.6085740327835083,-0.46082112193107605
1781638879538941700,36.01294165039062,0.533666729927063,-0.8544471263885498,0.04718930274248123
1781638879587463400,36.06146337890625,0.23991714417934418,0.45937031507492065,0.8084031939506531
1781638879635985200,36.10998510742188,0.8884264826774597,-0.6740128993988037,2.724915027618408
1781638879684506600,36.15850659179687,0.490677148103714,-1.1266636848449707,2.375882148742676
1781638879733028400,36.2070283203125,-0.40698865056037903,-0.5538252592086792,0.7506000995635986
1781638879781549800,36.2555498046875,-1.0472513437271118,-1.2622756958007812,-0.3516290485858917
1781638879878593000,36.35259301757812,-0.1185077652335167,-0.7554870247840881,0.3090975880622864
1781638879927114800,36.40111474609375,0.5331322550773621,-0.7328086495399475,0.0193185992538929
1781638879975636200,36.44963623046875,0.5615374445915222,-0.586048424243927,0.20723587274551392
1781638880024158000,36.49815795898437,-0.43027788400650024,0.6974548697471619,-0.6268999576568604
1781638880072679400,36.54667944335937,0.304974228143692,-0.44241881370544434,-1.2857176065444946
1781638880121201200,36.595201171875,-0.44577857851982117,0.5226711630821228,-0.5981893539428711
1781638880169722600,36.64372265625,-0.9002619981765747,0.377285361289978,-1.5322779417037964
1781638880218244400,36.69224438476562,-0.12110394239425659,-0.37774351239204407,-0.6042979955673218
1781638880266766000,36.74076611328125,0.8119919896125793,0.7810669541358948,0.5005273222923279
1781638880315287600,36.78928759765625,0.7108175158500671,0.8289434909820557,0.2592357397079468
1781638880363809000,36.83780908203125,0.1386663019657135,1.6702569723129272,-0.2860374450683594
1781638880412330800,36.88633081054687,0.24144430458545685,0.6298015713691711,-0.858646810054779
1781638880460852200,36.934852294921875,0.018555017188191414,0.07559451460838318,-1.0091485977172852
1781638880509374000,36.9833740234375,-0.44127345085144043,0.6289616227149963,-0.5273290276527405
1781638880557895400,37.0318955078125,0.5619956254959106,-0.8678861260414124,0.03130681812763214
1781638880606417200,37.080417236328124,0.41783151030540466,0.22701261937618256,0.6078104376792908
1781638880654938600,37.128938720703125,0.6157516837120056,-0.14194969832897186,2.522871494293213
1781638880703460400,37.17746044921875,0.5978838801383972,-0.7350993752479553,2.4896557331085205
1781638880751981800,37.22598193359375,-0.3266599476337433,-0.3666715919971466,1.0877211093902588
1781638880800503600,37.274503662109375,-1.0036507844924927,-0.9225585460662842,-0.30970844626426697
1781638880849025000,37.32302490234375,-1.1685843467712402,-1.1097122430801392,-0.34636032581329346
1781638880897546500,37.37154638671875,-0.17081306874752045,-0.7222712635993958,0.07131846249103546
1781638880946068200,37.42006811523437,0.5493201613426208,-0.6559160351753235,-0.09735657274723053
1781638880994590000,37.46858984375,0.699287474155426,-0.6766854524612427,0.2121991515159607
1781638881043111400,37.517111328125,-0.05047270283102989,0.5355756878852844,-0.03298669680953026
1781638881091633200,37.56563305664063,0.164322629570961,-0.4842630624771118,-1.4268274307250977
1781638881140154600,37.61415454101562,-0.2406807243824005,0.48563748598098755,-0.49541133642196655
1781638881188676000,37.662676025390624,-0.8354339599609375,0.34468045830726624,-1.672318696975708
1781638881237197800,37.71119775390625,-0.30802857875823975,-0.03275762498378754,-0.5416079759597778
1781638881285719300,37.75971923828125,0.5798633694648743,0.16126830875873566,-0.03222311660647392
1781638881334241000,37.80824096679687,0.8049670457839966,0.8040507435798645,0.5243510603904724
1781638881382762800,37.8567626953125,0.23419028520584106,1.42927086353302,-0.23335035145282745
1781638881479805700,37.9538056640625,0.1787542998790741,0.3367392122745514,-1.0306816101074219
1781638881528327400,38.002327392578124,-0.3326922357082367,0.8662062287330627,-0.6179660558700562
1781638881576849000,38.050848876953125,0.22479823231697083,-0.28809911012649536,-0.1922696828842163
1781638881625370400,38.09937036132813,0.5748237371444702,-0.23044873774051666,0.23480114340782166
1781638881673892000,38.14789208984375,0.4516581594944,0.072921983897686,1.9374339580535889
1781638881722413600,38.19641357421875,0.7774018049240112,-0.47609272599220276,2.5062255859375
1781638881770935300,38.244935302734376,-0.06085740402340889,-0.850934624671936,1.7866268157958984
1781638881819456800,38.29345678710938,-0.8310051560401917,-0.6218603253364563,-0.2075413018465042
1781638881867978200,38.34197827148437,-1.2437206506729126,-1.1769073009490967,-0.21662792563438416
1781638881916500000,38.3905,-0.6151408553123474,-1.0333541631698608,-0.09101885557174683
1781638881965021400,38.439021484375,0.3260490894317627,-0.6542361974716187,0.03214675933122635
1781638882013543200,38.48754321289063,0.7112756967544556,-0.9702823162078857,0.1219438835978508
1781638882062065000,38.53606494140625,0.07024945318698883,0.7793107628822327,0.18890993297100067
1781638882110586000,38.584586181640624,-0.09712749719619751,-0.5009090900421143,-1.324354887008667
1781638882159107800,38.63310791015625,-0.04199695214629173,0.4689914286136627,-0.5996401309967041
1781638882207629300,38.68162939453125,-0.8345940113067627,0.19593487679958344,-1.7932698726654053
1781638882256150800,38.73015087890625,-0.4589885175228119,0.01626427471637726,-0.7232639193534851
1781638882304672500,38.778672607421875,0.6178133487701416,0.2086866796016693,-0.049709122627973557
1781638882353194000,38.827194091796876,0.8112284541130066,1.057559609413147,0.45646870136260986
1781638882401715700,38.8757158203125,0.3451386094093323,1.5043308734893799,-0.42859798669815063
1781638882450237200,38.9242373046875,0.2136499583721161,1.398269534111023,-0.7540361881256104
1781638882498759000,38.972759033203126,0.23762640357017517,0.5727620720863342,-0.7835104465484619
1781638882547280400,39.0212802734375,-0.36018115282058716,0.6436987519264221,-0.5810851454734802
1781638882595801900,39.0698017578125,0.4166097939014435,-0.5269472599029541,0.017944153398275375
1781638882644323300,39.1183232421875,0.45593419671058655,-0.19013166427612305,0.35269805788993835
1781638882692845000,39.166844970703124,0.3831649422645569,-0.08895718306303024,1.7715078592300415
1781638882741366800,39.21536669921875,0.6790525317192078,-0.680350661277771,2.3574798107147217
1781638882789888300,39.26388818359375,-0.17371466755867004,-0.7032580971717834,1.784106969833374
1781638882838409700,39.31240966796875,-0.7838922142982483,-0.975092887878418,-0.13095413148403168
1781638882886931500,39.360931396484375,-1.3151918649673462,-1.2671626806259155,-0.33979353308677673
1781638882935452700,39.40945263671875,-0.48884454369544983,-0.9161444306373596,0.027336198836565018
1781638882983974400,39.45797436523438,0.4675406217575073,-0.6823359727859497,0.13156500458717346
1781638883032495900,39.50649584960937,0.6485856771469116,-0.7005091905593872,0.023594651371240616
1781638883129539000,39.6035390625,-0.05352702736854553,-0.3182605504989624,-1.2606722116470337
1781638883178060800,39.65206079101562,-0.22067490220069885,0.5316814184188843,-0.6548470258712769
1781638883226582000,39.70058203125,-0.8358157277107239,0.3848448097705841,-1.6546036005020142
1781638883275103700,39.749103759765624,-0.328645259141922,0.07284562289714813,-0.483423113822937
1781638883323625200,39.797625244140626,0.4145480990409851,0.1011744812130928,-0.07269290834665298
1781638883372147000,39.84614697265625,0.7499892115592957,0.8464295268058777,0.5064069032669067
1781638883420668400,39.89466845703125,0.3666715919971466,1.459966778755188,-0.44791659712791443
1781638883469190100,39.943190185546875,0.22212570905685425,1.1751511096954346,-0.9050725102424622
1781638883517711400,39.99171142578125,0.07658717036247253,0.42737627029418945,-0.766406238079071
1781638883566233000,40.04023315429688,-0.2580140233039856,0.5536725521087646,-0.5666534304618835
1781638883614754600,40.08875463867187,0.1842520833015442,-0.3964512348175049,-0.27229297161102295
1781638883663276300,40.1372763671875,0.5917752385139465,-0.46914416551589966,0.3738492429256439
1781638883711797800,40.1857978515625,0.38179048895835876,0.05604684352874756,1.827478289604187
1781638883760319200,40.2343193359375,0.6682860851287842,-0.4396699368953705,2.485837936401367
1781638883808840700,40.2828408203125,0.003665188793092966,-0.9427934288978577,1.929569125175476
1781638883857362400,40.331362548828125,-0.668515145778656,-0.7888554930686951,-0.1588248461484909
1781638883905884000,40.3798837890625,-1.1867575645446777,-1.3981167078018188,-0.28504478931427
1781638883954405400,40.4284052734375,-0.6538543701171875,-0.9165262579917908,-0.10644318908452988
1781638884002926800,40.4769267578125,0.360868364572525,-0.7063887715339661,0.08979712426662445
1781638884051448300,40.5254482421875,0.5838339924812317,-0.6708822250366211,0.14317142963409424
1781638884099970000,40.573969970703125,0.1804341822862625,0.6648499369621277,0.3237583339214325
1781638884148491800,40.62249169921875,-0.012446369975805283,-0.6656898856163025,-1.2201260328292847
1781638884197013200,40.67101318359375,0.21487168967723846,0.39141160249710083,-0.7260891199111938
1781638884245534700,40.71953466796875,-0.6310232877731323,0.15073087811470032,-1.5825979709625244
1781638884294056200,40.76805615234375,-0.5047270059585571,0.3750709891319275,-0.7908408045768738
1781638884342577700,40.81657763671875,0.28405213356018066,-0.05474875494837761,-0.10850485414266586
1781638884391099400,40.86509936523437,0.8104648590087891,0.8979712128639221,0.9388991594314575
1781638884439620900,40.91362084960937,0.38179048895835876,1.4198024272918701,-0.41699156165122986
1781638884488142300,40.962142333984374,0.09117157012224197,1.6831614971160889,-0.840320885181427
1781638884536664000,41.0106640625,0.23686282336711884,0.585972011089325,-0.8442151546478271
1781638884585185500,41.059185546875,-0.08536835014820099,0.4314996004104614,-0.5991056561470032
1781638884633707000,41.10770703125,-0.03955349326133728,-0.21380266547203064,-0.41584619879722595
1781638884730750000,41.20475,0.11339177191257477,0.4736492931842804,1.1451424360275269
1781638884779271700,41.25327172851563,0.6440805792808533,-0.47548186779022217,2.1795654296875
1781638884827793000,41.30179296875,0.3540725111961365,-1.1097885370254517,2.5350887775421143
1781638884876314600,41.350314697265624,-0.5971966981887817,-0.23189954459667206,0.26710063219070435
1781638884924836400,41.39883642578125,-1.0889428853988647,-1.172020435333252,-0.25534147024154663
1781638884973357600,41.44735766601563,-0.8965204358100891,-1.0388518571853638,-0.35995206236839294
1781638885021879000,41.49587915039063,0.09728021919727325,-0.4846448302268982,0.17676898837089539
1781638885070400800,41.54440087890625,0.4292088747024536,-0.6249146461486816,-0.1107192412018776
1781638885118922200,41.592922119140624,0.2848156988620758,0.21479532122612,0.4182133078575134
1781638885167443700,41.641443603515626,-0.25213444232940674,0.12522727251052856,-0.9920443892478943
1781638885215965200,41.68996508789063,-0.16455170512199402,0.36430448293685913,-0.8615484237670898
1781638885264487000,41.73848681640625,-0.8407026529312134,0.4516581594944,-1.5911500453948975
1781638885313008400,41.78700830078125,-0.37896522879600525,0.005955931730568409,-0.8397863507270813
1781638885361529900,41.83552978515625,0.30772313475608826,-0.09422589093446732,-0.3453676700592041
1781638885410051300,41.88405126953125,0.8501710295677185,0.6931024789810181,0.6908880472183228
1781638885458573000,41.93257299804687,0.4442514181137085,1.3921607732772827,-0.30863943696022034
1781638885507094500,41.981094482421874,0.1885281354188919,1.3122903108596802,-0.7622065544128418
1781638885555616000,42.029615966796875,0.04909825697541237,0.671187698841095,-0.8785762786865234
1781638885604137500,42.07813745117188,-0.20341797173023224,0.502359926700592,-0.6397281289100647
1781638885652659000,42.12665893554688,-0.009392046369612217,0.0769689604640007,-0.42600181698799133
1781638885701180400,42.17518041992187,0.6792816519737244,-0.6236929297447205,0.24373504519462585
1781638885749702100,42.2237021484375,0.5102248191833496,-0.2631300091743469,1.7121012210845947
1781638885798223600,42.2722236328125,0.7093667387962341,-0.9253074526786804,2.4609451293945312
1781638885846745000,42.3207451171875,-0.07475458085536957,-0.8416189551353455,1.7368413209915161
1781638885895266600,42.3692666015625,-0.43348491191864014,-1.2208895683288574,0.47807803750038147
1781638885943788300,42.417788330078125,-1.1236094236373901,-1.8279365301132202,-0.4159989058971405
1781638885992309800,42.466309814453126,-0.8365029692649841,-1.3547453880310059,-0.1297324001789093
1781638886040831200,42.51483129882813,0.2341139316558838,-0.9606612324714661,0.2836703360080719
1781638886089352700,42.56335278320312,0.5968148708343506,-0.6943241953849792,0.047036588191986084
1781638886137874200,42.61187426757812,0.30833399295806885,0.4970912039279938,0.003283398225903511
1781638886186395600,42.660395751953125,-0.013668099418282509,-0.34865108132362366,-0.9617302417755127
1781638886234917400,42.70891748046875,0.17921245098114014,0.26656612753868103,-0.31604617834091187
1781638886331960300,42.80596020507812,-0.5286270976066589,0.5035816431045532,-0.8235984444618225
1781638886380481800,42.854481689453124,0.5920807123184204,0.12072215229272842,0.23067781329154968
1781638886429003300,42.903003173828125,1.0003674030303955,1.3254238367080688,0.8489493131637573
1781638886477524700,42.95152465820313,0.1505018174648285,1.9716423749923706,-0.47097674012184143
1781638886526046200,43.00004614257813,0.14477495849132538,1.3084723949432373,-0.7881683111190796
1781638886574567700,43.04856762695312,0.12293653935194016,0.6261364221572876,-0.8477275967597961
1781638886623089200,43.097089111328124,-0.30886849761009216,0.7387645840644836,-0.8559742569923401
1781638886671610600,43.145610595703126,0.1663079410791397,-0.42966702580451965,-0.3139844834804535
1781638886720132400,43.19413232421875,0.6212494969367981,-0.6012436747550964,0.3182605504989624
1781638886768653800,43.24265380859375,0.4131736755371094,-0.09567669779062271,1.6493349075317383
1781638886817175300,43.29117529296875,0.5528326034545898,-0.4557051360607147,2.326936721801758
1781638886865696800,43.33969677734375,0.10911571979522705,-0.6864593029022217,2.1833834648132324
1781638886914218200,43.38821826171875,-0.5233584046363831,-0.39217519760131836,0.1530979871749878
1781638886962739700,43.43673974609375,-1.2587631940841675,-1.2050070762634277,-0.6004800796508789
1781638887011261200,43.48526123046875,-0.7701478004455566,-0.8177952170372009,-0.10094540566205978
1781638887059782700,43.53378271484375,0.17486004531383514,-0.472198486328125,-0.03871355578303337
1781638887108304400,43.58230444335938,0.6646208763122559,-0.5242747068405151,0.2280052751302719
1781638887156825600,43.63082568359375,0.16416990756988525,0.6137663722038269,0.24236060678958893
1781638887205347300,43.67934741210937,-0.18463388085365295,-0.19509494304656982,-0.3695732057094574
1781638887253868800,43.727868896484374,0.22174391150474548,0.11690424382686615,-0.8895718455314636
1781638887302390300,43.776390380859375,-0.6186532974243164,-0.007788525894284248,-1.5890120267868042
1781638887350911700,43.82491186523438,-0.37094762921333313,0.34781113266944885,-1.1891247034072876
1781638887399433200,43.87343310546875,0.1395062506198883,0.26534438133239746,-0.3040579557418823
1781638887447954700,43.92195458984375,0.7741183638572693,0.8244383931159973,0.1989128440618515
1781638887496476200,43.97047607421875,0.2626718580722809,1.3605486154556274,-0.02611446939408779
1781638887544997600,44.01899755859375,0.24434591829776764,1.7566944360733032,-0.8336777091026306
1781638887593519000,44.06751904296875,0.48914995789527893,0.46425724029541016,-0.8653663396835327
1781638887642040800,44.11604077148438,-0.07513637095689774,0.6033053398132324,-0.7622065544128418
1781638887690562000,44.16456201171875,-0.3530798554420471,0.23625195026397705,-0.6088030934333801
1781638887739083800,44.213083740234374,0.6284271478652954,-0.7674752473831177,-0.08147408813238144
1781638887787605000,44.26160498046875,0.20685409009456635,0.45188722014427185,1.091004490852356
1781638887836126700,44.31012670898438,0.43165233731269836,-0.7987820506095886,2.109468698501587
1781638887933169700,44.40716967773437,-0.22273656725883484,-0.5982657074928284,0.5473348498344421
1781638887981691100,44.455691162109375,-0.9411898851394653,-1.0441206693649292,-0.13416117429733276
1781638888030212600,44.504212646484376,-0.9189696907997131,-0.7703005075454712,0.022449281066656113
1781638888078734000,44.55273413085938,0.20647229254245758,-1.099556565284729,0.22151483595371246
1781638888127255600,44.60125561523437,0.719369649887085,-0.913013756275177,0.15638138353824615
1781638888175777000,44.64977709960937,0.4549415409564972,0.11888955533504486,0.15126539766788483
1781638888224298500,44.698298583984375,-0.17608177661895752,0.41844236850738525,-0.15004366636276245
1781638888272820000,44.746820068359376,-0.23167046904563904,0.6858484148979187,-0.20853395760059357
1781638888321341400,44.79534155273438,-0.8991929292678833,0.4221075773239136,-1.2257765531539917
1781638888418384400,44.89238427734375,0.28817546367645264,1.1727076768875122,-0.663780927658081
1781638888466905900,44.94090576171875,0.5175551772117615,1.8861976861953735,0.13683371245861053
1781638888515427300,44.98942724609375,0.27511823177337646,2.4975969791412354,-0.194025918841362
1781638888563948800,45.03794873046875,0.5297724604606628,2.116264581680298,-1.1254420280456543
1781638888612470500,45.08647045898437,0.4237110912799835,1.5383102893829346,-1.245095133781433
1781638888660991700,45.13499169921875,0.1649334877729416,1.380172610282898,-0.8932369947433472
1781638888709513200,45.18351318359375,0.07124210149049759,0.8580359220504761,-0.42882707715034485
1781638888758034700,45.23203466796875,0.7820596098899841,-0.3104720115661621,0.4047742784023285
1781638888806556200,45.28055615234375,0.5601630210876465,-0.4292852282524109,1.554650902748108
1781638888855077600,45.32907763671875,0.029932374134659767,-0.09117157012224197,1.9372049570083618
1781638888903599000,45.37759912109375,0.5483275055885315,-0.6861538887023926,1.601305603981018
1781638888952120800,45.426120849609376,-0.48701193928718567,-0.31413722038269043,0.09162971377372742
1781638889000642000,45.47464208984375,-1.2021819353103638,0.0001527161948615685,-0.04604393243789673
1781638889049163500,45.52316357421875,-0.6470585465431213,-0.790917158126831,0.15554144978523254
1781638889097685000,45.57168505859375,0.08025235682725906,-1.152472734451294,0.05177079141139984
1781638889146206500,45.62020654296875,0.42248934507369995,-0.9472221732139587,0.11804962158203125
1781638889194728000,45.66872802734375,0.5019781589508057,-1.1443787813186646,0.1899789422750473
1781638889243249700,45.71724975585938,-0.28695371747016907,-0.1573740392923355,0.2280052751302719
1781638889291771000,45.76577099609375,-0.19265148043632507,-0.26167920231819153,-0.4159989058971405
1781638889340292400,45.81429223632812,-0.7738129496574402,0.3165806829929352,-0.6626355648040771
1781638889388813800,45.86281372070312,-1.4249184131622314,0.009010255336761475,-1.7750203609466553
1781638889437335300,45.911335205078124,0.4058432877063751,-0.01649334840476513,-0.18348850309848785
1781638889534378200,46.00837817382813,0.5013672709465027,1.4091123342514038,0.2577849328517914
1781638889582899700,46.05689965820312,0.31932955980300903,2.044182538986206,-0.7405971884727478
1781638889631421200,46.10542114257812,0.2738964855670929,1.226998209953308,-1.128878116607666
1781638889679942700,46.153942626953125,0.5241219997406006,0.5477166175842285,-1.0936006307601929
1781638889728464100,46.202464111328126,-0.14805835485458374,1.2482258081436157,-0.6063596606254578
1781638889776985300,46.2509853515625,0.4779253304004669,-0.1776089370250702,-0.12843431532382965
1781638889825507000,46.29950708007812,0.3585776388645172,0.12255474925041199,0.688902735710144
1781638889874028300,46.3480283203125,0.16470441222190857,-0.4915170669555664,1.9997422695159912
1781638889922550000,46.396550048828125,0.6085740327835083,-1.1339176893234253,2.1050400733947754
1781638889971071200,46.4450712890625,0.04321868345141411,-1.162017583847046,1.5642719268798828
1781638890019593000,46.49359301757813,-1.1236094236373901,-0.8797979950904846,-0.4541015923023224
1781638890068114400,46.54211450195312,-1.1168135404586792,-0.9741765856742859,0.4457022249698639
1781638890116635600,46.5906357421875,-0.3836230933666229,-1.2195152044296265,0.1712712198495865
1781638890165157000,46.6391572265625,0.3090975880622864,-1.3254238367080688,0.11278090626001358
1781638890213678800,46.68767895507813,0.49861836433410645,-1.522733211517334,0.2398407906293869
1781638890262200300,46.73620043945313,-0.31726789474487305,-0.12866339087486267,0.2706131041049957
1781638890310721500,46.78472143554688,-0.09208786487579346,0.1170569658279419,-0.753043532371521
1781638890359243000,46.83324291992187,-0.6753873825073242,-0.11774418503046036,-1.1287254095077515
1781638890407764500,46.881764404296874,-0.3801869750022888,0.05604684352874756,-0.8973603844642639
1781638890456286000,46.930285888671875,0.22808164358139038,-0.7115047574043274,-0.6599630117416382
1781638890504807400,46.97880737304688,0.5033525824546814,0.04016435891389847,-0.616744339466095
1781638890553329000,47.02732885742188,0.44325876235961914,0.38217228651046753,0.25091269612312317
1781638890601850400,47.07585034179687,0.295811265707016,1.1351394653320312,-0.21120649576187134
1781638890650371800,47.124371826171874,0.28954991698265076,0.49602219462394714,-0.9857066869735718
1781638890698893300,47.172893310546876,-0.01206457894295454,0.839099109172821,-1.6644538640975952
1781638890747414800,47.22141479492188,-0.14393500983715057,0.7334958910942078,-0.5196931958198547
1781638890795936000,47.26993603515625,0.48525571823120117,-0.5923097729682922,-0.03252854943275452
1781638890892979000,47.36697900390625,0.26656612753868103,-0.4762454628944397,2.193004608154297
1781638890941500400,47.41550048828125,0.4202749729156494,-1.0492366552352905,2.174907684326172
1781638890990022000,47.46402197265625,0.12446369975805283,-1.2608249187469482,1.8460333347320557
1781638891038543400,47.51254345703125,-0.9460004568099976,-1.172096848487854,-0.316809743642807
1781638891135586300,47.60958642578125,-0.3065013885498047,-1.2890774011611938,0.11911863088607788
1781638891184107500,47.658107421875,0.4471530318260193,-1.2429571151733398,0.13538290560245514
1781638891232629000,47.70662890625,0.6357575058937073,-1.3325251340866089,0.10545053333044052
1781638891281150500,47.755150390625,-0.21097742021083832,0.13942988216876984,0.6198750138282776
1781638891329672000,47.803671875,0.15027274191379547,-0.3361283540725708,-0.8951459527015686
1781638891378193200,47.85219311523438,-0.03481929376721382,0.07597630470991135,-0.894076943397522
1781638891426715000,47.90071484375,-0.8097776174545288,0.13110685348510742,-1.2902991771697998
1781638891475236000,47.949236083984374,-0.13454297184944153,-0.25060728192329407,-0.4508182108402252
1781638891523757800,47.9977578125,0.6049851775169373,0.4035525321960449,-0.2795470058917999
1781638891572279000,48.04627905273438,0.5616137981414795,0.8691078424453735,0.16332997381687164
1781638891620800500,48.09480053710938,0.2697731554508209,2.103360176086426,-0.5090794563293457
1781638891669322000,48.14332202148437,0.44432777166366577,1.4660754203796387,-1.067638874053955
1781638891717843500,48.191843505859374,0.4526508152484894,0.7250964641571045,-0.9676098227500916
1781638891766364700,48.24036474609375,-0.5176315307617188,0.7961094975471497,-0.7102830410003662
1781638891814886400,48.28888647460938,0.17371466755867004,-0.19379685819149017,-0.31459537148475647
1781638891863407900,48.33740795898437,0.4263836145401001,-0.5697077512741089,0.0824667438864708
1781638891911929000,48.38592919921875,0.16355904936790466,-0.07269290834665298,1.6593377590179443
1781638891960450600,48.43445043945312,0.5369501113891602,-1.3028218746185303,2.1683409214019775
1781638892008972000,48.482971923828124,0.04474584385752678,-1.1892009973526,2.1274893283843994
1781638892057493500,48.531493408203126,-0.4469239413738251,-1.2390629053115845,0.17753258347511292
1781638892106014700,48.5800146484375,-1.2512801885604858,-1.2121084928512573,-0.27656903862953186
1781638892154536400,48.62853637695312,-0.6076577305793762,-1.08573579788208,0.22968515753746033
1781638892203057700,48.6770576171875,0.27748534083366394,-1.1608721017837524,0.26648977398872375
1781638892251579100,48.7255791015625,0.5750528573989868,-0.8646027445793152,0.3468184769153595
1781638892300100600,48.7741005859375,0.17508912086486816,-0.3488037884235382,0.47807803750038147
1781638892348622000,48.8226220703125,-0.12232567369937897,-0.16470441222190857,-0.6965385675430298
1781638892397143300,48.87114331054688,0.1288924664258957,0.3390299379825592,-0.9329432249069214
1781638892445665000,48.9196650390625,-0.8620828986167908,-0.06375901401042938,-1.6090178489685059
1781638892494186200,48.96818627929687,-0.09918916970491409,0.2877173125743866,-0.9517273306846619
1781638892542707700,49.016707763671874,0.5381718873977661,0.13683371245861053,-0.550541877746582
1781638892591229200,49.065229248046876,0.647516667842865,0.8195514678955078,0.07612902671098709
1781638892639750700,49.11375073242188,0.3776671588420868,1.3791799545288086,0.015500693581998348
1781638892736793300,49.21079345703125,0.36369362473487854,0.5099193453788757,-0.8975894451141357
1781638892785314800,49.25931469726562,-0.28466299176216125,0.8140536546707153,-0.8896481990814209
1781638892833836300,49.307836181640624,-0.09873101860284805,0.21281002461910248,-0.43569931387901306
1781638892882357500,49.356357421875,0.6000983119010925,-0.7405971884727478,0.009010255336761475
1781638892930879000,49.40487890625,0.15577052533626556,0.10674861818552017,1.373071312904358
1781638892979400400,49.453400390625,0.3358229100704193,-1.0844377279281616,2.0798418521881104
1781638893027922000,49.501921875,0.32047492265701294,-1.075885534286499,2.0360124111175537
1781638893076443100,49.55044311523437,-0.43860089778900146,-0.5829176902770996,0.664391815662384
1781638893124964600,49.598964599609374,-1.1327723264694214,-0.6542361974716187,0.09201150387525558
1781638893173486000,49.647486083984376,-0.770529568195343,-0.8427643179893494,-0.04787652567028999
1781638893222007600,49.69600756835938,0.2811505198478699,-1.0877211093902588,0.22395829856395721
1781638893270529000,49.74452905273437,0.6416370868682861,-0.8682679533958435,0.3575085997581482
1781638893319050200,49.79305029296875,0.13584105670452118,-0.13515383005142212,0.4970912039279938
1781638893367571700,49.84157177734375,-0.18631376326084137,-0.21258094906806946,-0.5597048401832581
1781638893416093200,49.89009326171875,0.07903063297271729,0.3889681398868561,-0.9363030195236206
1781638893464614400,49.938614501953126,-0.8336777091026306,0.08933897316455841,-1.539608359336853
1781638893513135900,49.98713598632813,-0.2133445292711258,0.25961753726005554,-0.8723149299621582
1781638893561657300,50.0356572265625,0.5579485893249512,0.483423113822937,-0.34834563732147217
1781638893610178800,50.0841787109375,0.5697841048240662,0.9026290774345398,0.3082576394081116
1781638893658700000,50.13269995117187,0.1311832070350647,1.876347541809082,0.02237292192876339
1781638893707221500,50.181221435546874,0.3901135325431824,1.8185445070266724,-1.0627520084381104
1781638893755743200,50.2297431640625,0.5192350745201111,0.9209550023078918,-1.3755147457122803
1781638893804264400,50.27826440429688,-0.10155627131462097,1.103450894355774,-0.8167262077331543
1781638893852786000,50.32678588867188,-0.040546149015426636,0.0345902182161808,-0.30344706773757935
1781638893901307100,50.37530712890625,0.5198459029197693,-0.4427242577075958,0.1755472719669342
1781638893949828600,50.42382861328125,0.050319984555244446,0.4290561378002167,1.4300343990325928
1781638893998350000,50.47235009765625,0.5927678942680359,-1.1271982192993164,2.4058146476745605
1781638894046871600,50.52087158203125,0.012446369975805283,-0.8400917649269104,2.1284055709838867
1781638894095392800,50.56939282226563,-0.4886918365955353,-0.9916626214981079,0.2331976294517517
1781638894143914200,50.61791430664063,-1.2079087495803833,-1.0622938871383667,-0.46166107058525085
1781638894192435500,50.666435546875,-0.6147590279579163,-0.8468112945556641,0.23014330863952637
1781638894240957200,50.714957275390624,0.2741255760192871,-0.9605085253715515,0.1657734364271164
1781638894338000000,50.811999755859375,0.06498073786497116,0.004657844081521034,0.4384481906890869
1781638894386521000,50.86052099609375,-0.16394083201885223,-0.13179408013820648,-0.6509527564048767
1781638894435042800,50.90904272460938,-0.6125446557998657,0.3038288652896881,-0.8425352573394775
1781638894483564000,50.95756396484375,-0.7205913662910461,-0.17791436612606049,-1.3788745403289795
1781638894532085500,51.00608544921875,0.11988221108913422,-0.25350889563560486,-0.8778126835823059
1781638894580606700,51.054606689453124,0.49747300148010254,0.2620609998703003,-0.5621483325958252
1781638894629128400,51.10312841796875,0.7029526233673096,0.7527381181716919,0.14950916171073914
1781638894677649700,51.15164965820313,0.3294851779937744,1.631848931312561,-0.04321868345141411
1781638894726171100,51.20017114257813,0.41844236850738525,0.6135373115539551,-0.5426769852638245
1781638894774692400,51.2486923828125,0.21487168967723846,0.5672643184661865,-1.2093595266342163
1781638894823213800,51.2972138671875,-0.3917170464992523,1.1375828981399536,-0.7664825916290283
1781638894871735000,51.34573510742187,0.2537379562854767,-0.29222244024276733,-0.46830421686172485
1781638894920256500,51.394256591796875,0.6763800382614136,-0.3119228184223175,0.13942988216876984
1781638894968778000,51.44277807617188,0.3765217661857605,0.4713585376739502,1.6346741914749146
1781638895017299500,51.49129956054688,0.6798924803733826,-1.445764183998108,2.5342488288879395
1781638895065820700,51.53982055664063,-0.05787943676114082,-0.7557924389839172,1.7531819343566895
1781638895114342100,51.58834204101562,-0.5682569742202759,-0.7888554930686951,0.0769689604640007
1781638895162863600,51.63686352539062,-1.315955400466919,-1.0787872076034546,-0.0334448479115963
1781638895211385000,51.685385009765625,-0.6747764945030212,-0.8074105381965637,0.33887723088264465
1781638895259906300,51.73390625,0.35101816058158875,-1.1687370538711548,0.1443931609392166
1781638895308427800,51.782427734375,0.6505709886550903,-1.0024291276931763,0.2738964855670929
1781638895356949000,51.83094897460938,0.21403174102306366,-0.11988221108913422,0.3995055556297302
1781638895405470500,51.87947045898437,-0.1718057245016098,-0.05459604039788246,-0.49075350165367126
1781638895453992000,51.92799194335937,-0.1657734364271164,0.45532333850860596,-1.1535418033599854
1781638895502513400,51.976513427734375,-0.9831104874610901,0.1274416595697403,-1.6378811597824097
1781638895551034600,52.02503466796875,-0.256334125995636,0.1922696828842163,-0.9225585460662842
1781638895599556000,52.07355615234375,0.6234638690948486,0.7073814272880554,-0.5507709383964539
1781638895648077600,52.12207763671875,0.7248674035072327,1.0929898023605347,0.25152358412742615
1781638895696598800,52.17059887695312,0.3730092942714691,1.8504620790481567,0.1329394429922104
1781638895745120300,52.21912036132812,0.5114465355873108,1.5829033851623535,-0.9545525908470154
1781638895842163000,52.316162841796874,-0.34781113266944885,0.9240856766700745,-0.7774781584739685
1781638895890684400,52.364684326171876,0.13255766034126282,-0.04558578506112099,-0.24167338013648987
1781638895939206000,52.41320581054688,0.5328267812728882,-0.5188532471656799,0.2386954128742218
1781638895987727000,52.46172705078125,0.1614210158586502,0.11178825795650482,1.705687165260315
1781638896036248600,52.51024853515625,0.533666729927063,-1.1531599760055542,2.4233005046844482
1781638896084769800,52.55876977539062,0.017867794260382652,-1.1753038167953491,1.9977569580078125
1781638896133291300,52.607291259765624,-0.725860059261322,-1.0138064622879028,-0.1337793916463852
1781638896181812700,52.655812744140626,-1.2848013639450073,-0.95149827003479,-0.24885104596614838
1781638896230334200,52.70433422851563,-0.5259546041488647,-1.0829105377197266,0.07315105944871902
1781638896278855400,52.75285546875,0.480903297662735,-1.104901671409607,0.19937099516391754
1781638896327377000,52.801376953125,0.7008146047592163,-0.8898009061813354,0.4956403970718384
1781638896375898000,52.84989819335937,-0.022983787581324577,0.4424951672554016,0.21059563755989075
1781638896424419600,52.898419677734374,0.034666575491428375,-0.08689551800489426,-0.753654420375824
1781638896472941000,52.946941162109376,-0.2519053518772125,0.337350070476532,-0.8311578631401062
1781638896521462500,52.99546264648438,-0.8108466267585754,0.164322629570961,-1.53510320186615
1781638896569983700,53.04398364257813,0.10041090101003647,-0.15897755324840546,-0.8545998334884644
1781638896618505200,53.09250512695313,0.6031526327133179,0.7540361881256104,-0.5188532471656799
1781638896667026400,53.1410263671875,0.7564796805381775,0.9592867493629456,0.318871408700943
1781638896715548000,53.1895478515625,0.45937031507492065,1.877798318862915,-0.2669478952884674
1781638896764069000,53.23806909179687,0.5232820510864258,1.0791690349578857,-0.5061778426170349
1781638896812590600,53.286590576171875,0.24640758335590363,0.690048098564148,-1.1256710290908813
1781638896861112000,53.33511206054688,-0.48181959986686707,1.1204787492752075,-0.6334667801856995
1781638896909633500,53.38363354492188,0.32330018281936646,-0.6232348084449768,-0.3770562708377838
1781638896958154800,53.43215478515625,0.26450446248054504,-0.24396412074565887,0.09017891436815262
1781638897006676200,53.48067626953125,-0.1579848974943161,0.9971603751182556,1.6503275632858276
1781638897055197400,53.52919750976562,0.9920443892478943,-1.6489530801773071,2.6523749828338623
1781638897103719000,53.577718994140625,-0.12805253267288208,-0.6935606002807617,1.8975750207901
1781638897152240000,53.626240234375,-0.652556300163269,-0.6802743077278137,-0.20502148568630219
1781638897200761600,53.67476171875,-1.335503101348877,-0.6091849207878113,-0.25938844680786133
1781638897249282800,53.72328271484375,-0.4741837978363037,-0.9071341753005981,0.11194097250699997
1781638897297804300,53.77180419921875,0.49396052956581116,-1.1740821599960327,-0.025274530053138733
1781638897394847200,53.86884716796875,-0.33231043815612793,0.472198486328125,0.6620246767997742
1781638897443368400,53.917368408203124,-0.11827868968248367,0.0743727833032608,-0.781754195690155
1781638897491890000,53.965889892578126,-0.7257073521614075,0.1066722646355629,-1.3162609338760376
1781638897540411100,54.0144111328125,-0.5732202529907227,0.07086031138896942,-1.2641083002090454
1781638897588932600,54.0629326171875,0.13683371245861053,-0.049709122627973557,-0.7456368207931519
1781638897637454000,54.1114541015625,0.7695369124412537,0.7055488228797913,-0.5897135734558105
1781638897685975300,54.15997534179687,0.7105884552001953,0.9046907424926758,0.05215258151292801
1781638897734496500,54.20849658203125,0.5166388750076294,1.5662572383880615,-0.27229297161102295
1781638897783018000,54.25701806640625,0.40515607595443726,0.5884918570518494,-0.8600975871086121
1781638897831539200,54.305539306640625,-0.06498073786497116,1.0725258588790894,-1.260443091392517
1781638897880060700,54.35406079101563,-0.3361283540725708,0.5542834401130676,-0.3672824501991272
1781638897928582100,54.40258203125,0.4864010810852051,-0.7446441650390625,-0.0487164668738842
1781638897977103400,54.45110327148438,0.34147340059280396,0.22441644966602325,0.9904409050941467
1781638898025624800,54.49962475585937,0.44211336970329285,-0.871933102607727,2.528980255126953
1781638898074146300,54.548146240234374,0.21945317089557648,-0.8603267073631287,1.7851759195327759
1781638898122667800,54.596667724609375,-0.3672824501991272,-0.9770018458366394,0.5838339924812317
1781638898171189000,54.64518896484375,-1.0195332765579224,-1.2573124170303345,0.053145237267017365
1781638898219710500,54.69371044921875,-0.9876156449317932,-1.0942115783691406,0.06490438431501389
1781638898268231700,54.74223168945313,0.08712458610534668,-1.310457706451416,0.20792309939861298
1781638898316753000,54.7907529296875,0.646065890789032,-0.9985348582267761,0.07246383279561996
1781638898365274400,54.8392744140625,0.38179048895835876,-0.20196716487407684,0.41294458508491516
1781638898413795800,54.8877958984375,-0.2848920524120331,-0.3727802336215973,-0.030085090547800064
1781638898462317000,54.936317138671875,0.1490510106086731,-0.06620246917009354,-0.7228057384490967
1781638898510838500,54.984838623046876,-0.8825469017028809,-0.6739365458488464,-1.6484949588775635
1781638898559359700,55.03335986328125,-0.22128576040267944,-0.05558869615197182,-0.9937242865562439
1781638898607881200,55.08188110351563,0.625067412853241,0.4730384051799774,-0.5300015807151794
1781638898656402400,55.13040234375,0.5794816017150879,1.124449372291565,0.04169152304530144
1781638898704924000,55.178923828125,0.5176315307617188,1.9452224969863892,-0.31719154119491577
1781638898753445000,55.22744506835937,0.6159807443618774,1.6760601997375488,-0.7269290685653687
1781638898801966600,55.275966552734374,0.43631017208099365,0.8521563410758972,-0.7621301412582397
1781638898850487800,55.32448779296875,-0.24656029045581818,1.0272455215454102,-0.4451677203178406
1781638898899009300,55.37300927734375,0.21181736886501312,-0.12751802802085876,-0.15561780333518982
1781638898996052000,55.47005200195313,0.4211149215698242,0.10461059212684631,1.7920482158660889
1781638899044573200,55.5185732421875,0.6878337264060974,-1.3645192384719849,2.443688154220581
1781638899093094700,55.5670947265625,-0.16409355401992798,-0.4886918365955353,1.802432894706726
1781638899141615900,55.615615966796874,-0.6365211009979248,-1.0089958906173706,-0.13622283935546875
1781638899190137300,55.664137451171875,-1.15842866897583,-1.1748456954956055,-0.1366809904575348
1781638899238658600,55.712658447265625,-0.6186532974243164,-1.1304816007614136,0.14859285950660706
1781638899287180000,55.761179931640626,0.34063348174095154,-1.1583523750305176,0.13927717506885529
1781638899335701200,55.809701171875,0.6017017960548401,-0.9297361969947815,0.1824958473443985
1781638899384222700,55.85822265625,-0.04787652567028999,0.1614210158586502,0.40698865056037903
1781638899432744000,55.90674389648437,-0.03993528336286545,-0.31604617834091187,-0.5432115197181702
1781638899481265400,55.95526538085937,-0.16149736940860748,0.23251040279865265,-1.001436471939087
1781638899529786600,56.00378662109375,-0.9071341753005981,0.056428633630275726,-1.6165772676467896
1781638899578308000,56.05230810546875,-0.004734201822429895,0.18860450387001038,-0.730594277381897
1781638899626829300,56.100829345703126,0.6352993845939636,0.585437536239624,-0.5016726851463318
1781638899675350800,56.14935083007813,0.634230375289917,0.7828995585441589,0.16600249707698822
1781638899723872000,56.1978720703125,0.3248273432254791,1.7328706979751587,-0.1588248461484909
1781638899772393500,56.2463935546875,0.42134398221969604,1.0264818668365479,-0.6125446557998657
1781638899820914700,56.29491479492187,0.25121814012527466,0.5581013560295105,-1.0971131324768066
1781638899869436200,56.343436279296874,-0.4812087416648865,1.025641918182373,-0.7038689255714417
1781638899917957400,56.391957275390624,0.23075416684150696,-0.10911571979522705,-0.3825540542602539
1781638899966478800,56.440478759765625,0.5902481079101562,-0.43692103028297424,-0.030390523374080658
1781638900015000000,56.489,0.06841685622930527,0.7148644924163818,1.3837614059448242
1781638900063521500,56.537521484375,0.7055488228797913,-1.422093152999878,2.5663957595825195
1781638900112042800,56.58604272460938,-0.12988512217998505,-0.6813433170318604,1.7407355308532715
1781638900160564200,56.63456420898437,-0.6323977708816528,-0.7765618562698364,0.1706603467464447
1781638900209085400,56.68308544921875,-1.1866811513900757,-1.0563379526138306,0.18837542831897736
1781638900257607000,56.73160693359375,-0.7167734503746033,-0.8904117941856384,0.2771035432815552
1781638900306128100,56.780128173828125,0.37094762921333313,-1.3040435314178467,0.23602287471294403
1781638900354649600,56.828649658203126,0.7340303659439087,-1.3886483907699585,0.12621992826461792
1781638900403170800,56.8771708984375,0.004428769461810589,0.4799869954586029,0.25702136754989624
1781638900451692300,56.9256923828125,-0.03886627033352852,-0.6796634197235107,-0.49075350165367126
1781638900500213800,56.9742138671875,0.07406735420227051,-0.003894262947142124,-0.8214604258537292
1781638900597256200,57.07125610351562,-0.2190713882446289,-0.16943861544132233,-0.8057306408882141
1781638900645777700,57.119777587890624,0.5214494466781616,0.20280711352825165,-0.5164098143577576
1781638900694299000,57.168298828125,0.6537780165672302,0.8155044913291931,0.2419024556875229
1781638900742820000,57.216820068359375,0.3410152494907379,1.8067089319229126,-0.06146826967597008
1781638900791341600,57.26534155273438,0.39622217416763306,1.5051708221435547,-0.7916807532310486
1781638900839862800,57.31386279296875,0.4399753510951996,0.5451204776763916,-1.1755329370498657
1781638900888384000,57.36238403320313,-0.23335035145282745,1.1651482582092285,-0.6226239204406738
1781638900936905500,57.41090551757812,0.03955349326133728,0.10041090101003647,-0.41149377822875977
1781638900985427000,57.459427001953124,0.6723330616950989,-0.5664243698120117,-0.0487164668738842
1781638901033948200,57.5079482421875,0.21120649576187134,0.924849271774292,1.244789719581604
1781638901082469600,57.5564697265625,0.988990068435669,-1.173242211341858,2.817690134048462
1781638901130990800,57.604990966796876,-0.012217295356094837,-0.46425724029541016,2.006232738494873
1781638901179512000,57.653511962890626,-0.45471248030662537,-0.5351175665855408,0.17226386070251465
1781638901228033500,57.70203344726563,-1.21523916721344,-0.6725621223449707,-0.20357069373130798
1781638901276555000,57.75055493164062,-0.8458186388015747,-0.7715222239494324,-0.005345067009329796
1781638901325076200,57.799076171875,0.3335321843624115,-1.0800089836120605,0.19410228729248047
1781638901373597400,57.84759741210937,0.687451958656311,-1.2386810779571533,0.0792597085237503
1781638901422118700,57.89611865234375,0.16355904936790466,-0.011224640533328056,0.2890917658805847
1781638901470640000,57.94464013671875,-0.28809911012649536,-0.34613126516342163,-0.24724751710891724
1781638901519161300,57.993161376953125,-0.08269581943750381,0.1617264449596405,-0.7255546450614929
1781638901567682800,58.04168286132813,-0.834059476852417,-0.0616973415017128,-1.6604832410812378
1781638901616204000,58.0902041015625,-0.12217295914888382,-0.04886918142437935,-0.831997811794281
1781638901664725500,58.1387255859375,0.5528326034545898,0.4153880476951599,-0.6458367705345154
1781638901713246700,58.18724682617187,0.754570722579956,1.0400736331939697,-0.09613484144210815
1781638901761768200,58.235768310546874,0.46425724029541016,2.070678949356079,-0.10079269111156464
1781638901810289400,58.28428930664062,0.6532435417175293,1.4188861846923828,-0.471587598323822
1781638901858811000,58.332810791015625,0.2745073735713959,0.7589231133460999,-0.9356921315193176
1781638901907332000,58.38133203125,-0.42042768001556396,1.4273619651794434,-0.5206858515739441
1781638901955853300,58.429853271484376,0.173256516456604,-0.3050506114959717,-0.4182133078575134
1781638902004374500,58.47837451171875,0.3529271185398102,-0.3017672002315521,0.17432554066181183
1781638902052896000,58.52689599609375,0.17447824776172638,0.3523162603378296,1.736459493637085
1781638902149938700,58.62393872070312,0.00954476185142994,-0.8484911918640137,1.8171700239181519
1781638902198460000,58.6724599609375,-0.6421716213226318,-0.7015018463134766,-0.01259908638894558
1781638902246981400,58.7209814453125,-1.3058761358261108,-0.7792344093322754,-0.19814926385879517
1781638902295502600,58.769502685546875,-0.6601921319961548,-0.7838922142982483,0.13095413148403168
1781638902344023800,58.81802392578125,0.2671769857406616,-0.718224287033081,0.21784965693950653
1781638902392545000,58.866544921875,0.6940951347351074,-0.9327905178070068,0.29481860995292664
1781638902441066500,58.91506640625,0.013057234697043896,0.23602287471294403,0.2854265570640564
1781638902489587700,58.96358764648438,-0.0755181610584259,-0.26878049969673157,-0.304974228143692
1781638902538109200,59.01210913085937,-0.15172353386878967,0.20158538222312927,-1.0222058296203613
1781638902586630400,59.06063037109375,-0.8432224988937378,-0.13423752784729004,-1.4819579124450684
1781638902635152000,59.10915185546875,-0.05192350596189499,0.0206166859716177,-0.6648499369621277
1781638902683673000,59.157673095703124,0.46692976355552673,0.3943895697593689,-0.6825650334358215
1781638902732194300,59.2061943359375,0.6898953914642334,0.9124029278755188,0.007101302966475487
1781638902780715500,59.254715576171876,0.3785070776939392,1.8576397895812988,0.011148282326757908
1781638902829237000,59.30323706054688,0.464486300945282,1.3504693508148193,-0.6094139814376831
1781638902877758200,59.35175830078125,0.4237874448299408,0.9132428169250488,-1.1357502937316895
1781638902926279700,59.40027978515625,-0.2703840136528015,1.0498474836349487,-0.9470694661140442
1781638902974801000,59.44880078125,-0.17043127119541168,0.16409355401992798,-0.38957902789115906
1781638903023322400,59.497322265625,0.6295725107192993,-0.7348703145980835,0.17737986147403717
1781638903071843600,59.545843505859374,0.21601705253124237,0.5593230724334717,1.4092650413513184
1781638903120364800,59.59436474609375,0.7360920310020447,-1.0706168413162231,2.6442809104919434
1781638903168886000,59.642885986328125,0.0657443255186081,-1.0525200366973877,1.983630657196045
1781638903217407500,59.691407470703126,-0.40026915073394775,-0.925460159778595,0.4243983030319214
1781638903265928700,59.7399287109375,-1.353905439376831,-0.9649372696876526,-0.5035816431045532
1781638903314450200,59.7884501953125,-0.7855721116065979,-0.7794634699821472,0.02260199747979641
1781638903362971400,59.83697143554687,0.18692462146282196,-1.0282381772994995,0.09346231073141098
1781638903411492900,59.88549291992187,0.6931788325309753,-0.9865466356277466,-0.010537417605519295
1781638903460013800,59.93401391601562,0.4390590488910675,-0.5986474752426147,0.25389066338539124
1781638903508535300,59.982535400390624,-0.2701549530029297,-0.002061668550595641,-0.08368847519159317
1781638903557056500,60.031056396484374,0.16844595968723297,0.40149086713790894,-0.972496747970581
1781638903605578000,60.079577880859375,-0.9604321718215942,-0.09819651395082474,-1.7134757041931152
1781638903702620700,60.17662060546875,0.5073995590209961,-0.2078467458486557,-0.5148062705993652
1781638903751142000,60.22514184570313,0.633008599281311,0.6692787408828735,0.03848448023200035
1781638903799663000,60.2736630859375,0.23716825246810913,1.4135410785675049,-0.14194969832897186
1781638903848184300,60.32218432617187,0.2793179154396057,1.6648355722427368,-0.7358629703521729
1781638903896705800,60.37070581054687,0.38957902789115906,0.39416050910949707,-0.9374483823776245
1781638903945227000,60.41922705078125,-0.2086866796016693,0.7827468514442444,-0.8806379437446594
1781638903993748500,60.46774853515625,-0.342542439699173,0.4237110912799835,-0.4465421438217163
1781638904042269700,60.516269775390626,0.5595521330833435,-0.8306233882904053,-0.009392046369612217
1781638904090791000,60.564791015625,0.3375791609287262,0.5198459029197693,1.378721833229065
1781638904139312000,60.61331201171875,0.8069523572921753,-1.6452878713607788,3.192761182785034
1781638904187833600,60.66183349609375,0.13843722641468048,-0.8578068614006042,1.7381393909454346
1781638904236354800,60.71035473632813,-0.5247328281402588,-1.2176061868667603,0.185092031955719
1781638904284876000,60.7588759765625,-1.2011128664016724,-0.9767727851867676,-0.09812015295028687
1781638904333397200,60.80739721679687,-0.8619301915168762,-1.0219768285751343,0.1669187992811203
1781638904381918700,60.85591870117187,0.21700970828533173,-1.1215476989746094,0.29764387011528015
1781638904430440000,60.90443994140625,0.7053197622299194,-0.7695369124412537,0.04276053607463837
1781638904478961400,60.95296142578125,0.5986474752426147,-0.31719154119491577,0.3883572816848755
1781638904527482600,61.001482666015626,-0.2767217457294464,0.29077163338661194,-0.1623373180627823
1781638904576003800,61.05000390625,0.0038179049734026194,0.4839576184749603,-0.8898772597312927
1781638904624525300,61.098525390625,-0.9958623051643372,0.1588248461484909,-1.641546368598938
1781638904673046500,61.14704663085938,-0.21846051514148712,0.4176788032054901,-0.8955277800559998
1781638904721567700,61.19556762695313,0.4001164436340332,0.48762279748916626,-0.40294167399406433
1781638904770089200,61.24408911132812,0.8273400068283081,1.061453938484192,-0.20280711352825165
1781638904818610400,61.2926103515625,0.4206567704677582,1.7049236297607422,0.07796161621809006
1781638904867131600,61.341131591796874,0.4453204274177551,1.6872085332870483,-0.4902953505516052
1781638904915653000,61.389653076171875,0.4062250852584839,0.6424770355224609,-0.8505528569221497
1781638904964174300,61.43817431640625,-0.39889469742774963,1.0374010801315308,-0.7757982611656189
1781638905012695600,61.486695556640626,-0.1104138121008873,0.1692095398902893,-0.5039634704589844
1781638905061216800,61.535216796875,0.5937605500221252,-0.4047742784023285,-0.11583523452281952
1781638905109738200,61.58373828125,0.22983787953853607,0.7296016216278076,0.7969494462013245
1781638905158259500,61.63225952148437,0.6860011219978333,-0.9615011811256409,2.579071044921875
1781638905206780700,61.68078076171875,0.36796966195106506,-1.2386046648025513,2.1657447814941406
1781638905303823000,61.77782299804687,-1.147204041481018,-1.1624757051467896,-0.20219624042510986
1781638905352344600,61.826344482421874,-1.1278854608535767,-0.984255850315094,0.10468695312738419
1781638905400866000,61.874865966796875,-0.12293653935194016,-1.0523673295974731,0.25610506534576416
1781638905449387000,61.923386962890625,0.5001455545425415,-1.1021528244018555,-0.20479241013526917
1781638905497908500,61.971908447265626,0.49334967136383057,-0.5539016127586365,0.14454588294029236
1781638905546429700,62.0204296875,-0.3744601011276245,0.521831214427948,0.29100072383880615
1781638905594951200,62.068951171875,0.11606431007385254,0.4332558512687683,-0.7165443897247314
1781638905643472400,62.11747241210937,-0.5609265565872192,-0.031001387163996696,-1.3889538049697876
1781638905691993600,62.16599365234375,-0.3589594066143036,0.3303251266479492,-1.0500766038894653
1781638905740514800,62.21451489257812,0.2571740746498108,-0.16332997381687164,-0.6988292932510376
1781638905789036300,62.263036376953124,0.6067414283752441,0.8067996501922607,-0.3243691921234131
1781638905837557500,62.3115576171875,0.4335612654685974,1.1685843467712402,0.22220206260681152
