time,seconds_elapsed,z,y,x
1781638843679902000,0.15390185546875,9.768099784851074,4.052245140075684,-0.06699903309345245
1781638843738128600,0.212128662109375,8.541778564453125,4.151547431945801,-0.13100704550743103
1781638843815764000,0.289763916015625,8.257631301879883,4.198207378387451,0.4331009089946747
1781638843873990400,0.347990478515625,9.66221809387207,4.940580368041992,1.1521440744400024
1781638843932217000,0.406217041015625,8.921041488647461,4.556532382965088,-0.5330012440681458
1781638844009852400,0.483852294921875,7.362715244293213,6.714858531951904,-2.923431158065796
1781638844087487700,0.56148779296875,11.212766647338867,5.7858452796936035,0.6131607890129089
1781638844165123000,0.639123046875,7.417151927947998,6.681957244873047,1.1210373640060425
1781638844262167300,0.736167236328125,4.296911239624023,7.348358154296875,1.43389892578125
1781638844320394000,0.79439404296875,1.8448662757873535,7.6528449058532715,-2.8079774379730225
1781638844417438200,0.891438232421875,2.982055187225342,10.615159034729004,6.147161483764648
1781638844475664600,0.94966455078125,1.8681962490081787,10.069596290588379,2.3467607498168945
1781638844572708900,1.046708984375,-1.9657038450241089,9.994820594787598,1.9160526990890503
1781638844630935600,1.104935546875,-2.6452653408050537,8.971290588378906,0.9900303483009338
1781638844727979500,1.2019794921875,0.9936196208000183,8.792427062988281,3.314059257507324
1781638844825023700,1.299023681640625,3.3272199630737305,9.32183837890625,3.1166515350341797
1781638844902659000,1.3766591796875,2.881556749343872,8.719446182250977,2.83669114112854
1781638844980294400,1.45429443359375,2.1194427013397217,8.193024635314941,3.3882367610931396
1781638845057929700,1.5319296875,1.4769697189331055,8.517251968383789,1.7306089401245117
1781638845135565300,1.6095654296875,5.3216376304626465,8.01356315612793,-0.3595215976238251
1781638845213200600,1.68720068359375,7.64447021484375,7.549953460693359,0.7136593461036682
1781638845271427000,1.745427001953125,7.882555961608887,7.408178806304932,1.6534404754638672
1781638845329653500,1.803653564453125,7.017550468444824,7.083353042602539,1.5439687967300415
1781638845426697700,1.90069775390625,6.116054534912109,6.937989234924316,0.7573283910751343
1781638845484924400,1.95892431640625,6.69571590423584,6.736393928527832,0.6269195079803467
1781638845543150800,2.01715087890625,7.633702278137207,6.193222999572754,1.0336993932724
1781638845620786200,2.0947861328125,8.623732566833496,5.274379253387451,0.6011967062950134
1781638845679012600,2.1530126953125,8.650651931762695,5.413163185119629,0.39601215720176697
1781638845737239000,2.211239013671875,8.045268058776855,5.574678421020508,0.5964110493659973
1781638845834283300,2.308283203125,7.936992645263672,5.517251014709473,0.714257538318634
1781638845892509700,2.366509765625,8.176275253295898,5.638686656951904,0.8183453679084778
1781638845989554000,2.463553955078125,8.39282512664795,5.114658355712891,0.4588237404823303
1781638846047780400,2.5217802734375,8.199007034301758,5.580660820007324,0.4749752879142761
1781638846125415700,2.599415771484375,7.792226791381836,6.01675271987915,0.09451649338006973
1781638846222460000,2.6964599609375,7.959724426269531,5.79780912399292,-0.1818545162677765
1781638846280686300,2.754686279296875,8.003393173217773,5.505885124206543,0.08135596662759781
1781638846377730600,2.85173046875,8.088338851928711,5.605785369873047,-0.16390834748744965
1781638846435957000,2.90995703125,7.784450054168701,5.571687698364258,-0.09511470049619675
1781638846533001000,3.0070009765625,7.733004570007324,5.456233978271484,0.06939185410737991
1781638846591227400,3.065227294921875,8.045866012573242,5.478965759277344,0.003589233849197626
1781638846688271600,3.162271728515625,7.661818027496338,5.50229549407959,0.6861419081687927
1781638846785315800,3.25931591796875,6.805785655975342,5.282754421234131,0.8560323119163513
1781638846862951000,3.336950927734375,7.51585578918457,5.594419479370117,0.9361918568611145
1781638846940586200,3.414586181640625,8.044071197509766,3.927220106124878,0.30987054109573364
1781638847018221600,3.4922216796875,8.545368194580078,3.208775281906128,0.9493523836135864
1781638847095857000,3.56985693359375,8.797212600708008,2.190629243850708,-0.07537391036748886
1781638847173492200,3.6474921875,8.559724807739258,-0.2871387302875519,1.0085747241973877
1781638847231718700,3.70571875,11.1104736328125,-0.6167500615119934,4.058825492858887
1781638847289945000,3.763945068359375,8.11944580078125,-0.09631111472845078,6.299105644226074
1781638847386989000,3.860989013671875,7.297510623931885,-1.0319048166275024,9.448657989501953
1781638847445215700,3.9192158203125,7.328019142150879,-4.0420756340026855,6.620940208435059
1781638847503442200,3.977442138671875,3.025724172592163,-3.3062827587127686,6.7447686195373535
1781638847561668600,4.035668701171875,6.365506649017334,-5.724828243255615,6.510272026062012
1781638847619895000,4.09389501953125,4.722235679626465,-7.037291526794434,3.332005500793457
1781638847706121500,4.18012158203125,8.987442016601562,-11.12901782989502,1.3196417093276978
1781638847803165700,4.277165771484375,1.1820544004440308,-10.753344535827637,8.313861846923828
1781638847861392100,4.33539208984375,2.7864420413970947,-10.303494453430176,6.142375946044922
1781638847958436000,4.43243603515625,2.1475582122802734,-4.07258415222168,-1.0037890672683716
1781638848036071400,4.510071533203125,-0.06699903309345245,-5.732006549835205,-1.9812572002410889
1781638848094296600,4.568296630859375,5.163711071014404,-12.497713088989258,3.449253797531128
1781638848152523500,4.6265234375,1.8305093050003052,-8.726624488830566,3.9397823810577393
1781638848249568300,4.723568359375,-2.9108686447143555,-8.055437088012695,1.0085747241973877
1781638848307794200,4.781794189453125,-0.39481574296951294,-17.193626403808594,0.6556333899497986
1781638848404838000,4.878837890625,-1.2789636850357056,-7.487142086029053,0.008374879136681557
1781638848463065000,4.937065185546875,-1.8496519327163696,-9.78544807434082,1.0815558433532715
1781638848560109300,5.034109375,-1.3351950645446777,-4.810770034790039,0
1781638848657153300,5.1311533203125,-0.029910283163189888,-17.434104919433594,1.9214365482330322
1781638848754197500,5.228197509765625,-1.6510475873947144,-12.53719425201416,1.4081761837005615
1781638848851241500,5.325241455078125,-1.8233308792114258,-5.873183250427246,-1.5840486288070679
1781638848948285700,5.42228564453125,-2.021935224533081,-9.732806205749512,0
1781638849006511900,5.480511962890625,-1.0217353105545044,-10.13479995727539,0.8925228714942932
1781638849103556000,5.57755615234375,-2.719442844390869,-11.489137649536133,1.3280165195465088
1781638849200600000,5.67460009765625,-0.8757730722427368,-7.672585964202881,0.7226324677467346
1781638849258826200,5.732826171875,-0.776470959186554,-6.985845565795898,0.2787638306617737
1781638849355870700,5.82987060546875,-1.5900306701660156,-10.563115119934082,0.6520441770553589
1781638849452914700,5.926914794921875,-4.83469820022583,-5.5621161460876465,0.25244277715682983
1781638849549959000,6.023958984375,-2.6464617252349854,-10.214960098266602,-1.1748759746551514
1781638849608184800,6.082184814453125,-1.5002998113632202,-9.547362327575684,-0.2632105052471161
1781638849705229300,6.179229248046875,-1.5445669889450073,-9.967302322387695,0.35892340540885925
1781638849802273300,6.276273193359375,-1.2897313833236694,-9.689735412597656,0.47976094484329224
1781638849899317000,6.37331689453125,-1.5002998113632202,-10.169496536254883,0.6640082597732544
1781638849957543700,6.431543701171875,-1.0803594589233398,-9.533005714416504,1.7718851566314697
1781638850054588000,6.528587890625,-1.3495519161224365,-9.950552940368652,0.6029912829399109
1781638850151632000,6.6256318359375,-2.3150558471679688,-10.132407188415527,0.29790642857551575
1781638850248675600,6.722675537109375,-1.825723648071289,-9.774680137634277,-0.2679961323738098
1781638850306902300,6.78090234375,-1.5625132322311401,-10.425528526306152,-0.016749758273363113
1781638850403946200,6.8779462890625,-1.4715858697891235,-10.289137840270996,0.5455635786056519
1781638850500990500,6.974990478515625,-1.2035897970199585,-9.69930648803711,0.7202396392822266
1781638850598034400,7.072034423828125,-1.34476637840271,-9.987641334533691,0.02392822690308094
1781638850656260900,7.1302607421875,-1.3938192129135132,-9.889535903930664,0.26560330390930176
1781638850753304800,7.227304931640625,-1.4321043491363525,-9.81535816192627,0.28953152894973755
1781638850850349000,7.32434912109375,-1.3519448041915894,-9.820143699645996,0.4331009089946747
1781638850908575200,7.3825751953125,-1.4620146751403809,-9.966106414794922,0.397208571434021
1781638851005619500,7.479619384765625,-1.3387842178344727,-9.77707290649414,0.2871387302875519
1781638851102663700,7.57666357421875,-1.439282774925232,-9.866804122924805,0.24885354936122894
1781638851199707600,7.673707763671875,-1.4799607992172241,-9.931410789489746,0.3397808074951172
1781638851257934000,7.73193408203125,-1.4787644147872925,-9.796216011047363,0.3888336718082428
1781638851354978300,7.828978271484375,-1.4608181715011597,-9.842875480651855,0.2787638306617737
1781638851452022300,7.926022216796875,-1.435693621635437,-9.783055305480957,0.24526432156562805
1781638851510248700,7.984248779296875,-1.4967105388641357,-9.839286804199219,0.33020952343940735
1781638851607293000,8.08129296875,-1.511067509651184,-9.76391315460205,0.33499518036842346
1781638851704337000,8.1783369140625,-1.456032633781433,-9.828518867492676,0.3529413342475891
1781638851801380900,8.275380859375,-1.4141582250595093,-9.848857879638672,0.3074777126312256
1781638851859607300,8.333607177734375,-1.4380863904953003,-9.783055305480957,0.30987054109573364
1781638851956651500,8.430651611328125,-1.4165509939193726,-9.897911071777344,0.32662028074264526
1781638852053695700,8.52769580078125,-1.3878371715545654,-9.814162254333496,0.3684946894645691
1781638852150739700,8.62473974609375,-1.4380863904953003,-9.836894035339355,0.39122650027275085
1781638852208966100,8.682966064453124,-1.3962119817733765,-9.841679573059082,0.3696911036968231
1781638852306010400,8.78001025390625,-1.275374412536621,-9.883553504943848,0.3840480446815491
1781638852403054300,8.877054443359375,-1.2789636850357056,-9.915857315063477,0.3684946894645691
1781638852461280800,8.93528076171875,-1.2849457263946533,-9.842875480651855,0.39840495586395264
1781638852558325000,9.032324951171875,-1.3076776266098022,-9.839286804199219,0.33020952343940735
1781638852655369000,9.129368896484374,-1.2897313833236694,-9.826126098632812,0.3002992272377014
1781638852752413200,9.2264130859375,-1.3782658576965332,-9.903892517089844,0.364905446767807
1781638852849457200,9.32345703125,-1.333998680114746,-9.875179290771484,0.363709032535553
1781638852907683800,9.381683837890625,-1.3124631643295288,-9.891928672790527,0.2967100143432617
1781638853004727800,9.478727783203125,-1.2801600694656372,-9.857233047485352,0.3517449200153351
1781638853101772000,9.57577197265625,-1.28255295753479,-9.878767967224121,0.31824541091918945
1781638853198816000,9.67281591796875,-1.2717852592468262,-9.8871431350708,0.4055834412574768
1781638853257042700,9.731042724609376,-1.322034478187561,-9.832108497619629,0.4163511395454407
1781638853354086700,9.828086669921875,-1.275374412536621,-9.859625816345215,0.4342973232269287
1781638853451131000,9.925130859375,-1.3543375730514526,-9.89551830291748,0.4414757788181305
1781638853509357300,9.983357421875,-1.2789636850357056,-9.82373332977295,0.3840480446815491
1781638853606401300,10.0804013671875,-1.3543375730514526,-9.873982429504395,0.4007977843284607
1781638853703445500,10.177445556640626,-1.28255295753479,-9.812965393066406,0.4175475537776947
1781638853800489700,10.27448974609375,-1.353141188621521,-9.8871431350708,0.42711883783340454
1781638853858716000,10.3327158203125,-1.2741780281066895,-9.82373332977295,0.44027936458587646
1781638853955760000,10.429760009765625,-1.3304094076156616,-9.890732765197754,0.4618147611618042
1781638854052804400,10.526804443359374,-1.2634103298187256,-9.853643417358398,0.37447673082351685
1781638854149848300,10.623848388671876,-1.3184453248977661,-9.897911071777344,0.4259224236011505
1781638854208075000,10.682074951171876,-1.277767300605774,-9.854840278625488,0.4019941985607147
1781638854305119000,10.779118896484375,-1.3028919696807861,-9.912267684936523,0.4163511395454407
1781638854402163000,10.876162841796875,-1.2490534782409668,-9.81535816192627,0.3840480446815491
1781638854460389600,10.9343896484375,-1.2586246728897095,-9.908679008483887,0.35533416271209717
1781638854557433900,11.031433837890624,-1.2610175609588623,-9.91107177734375,0.44745782017707825
1781638854654477800,11.128477783203126,-1.2705888748168945,-9.885947227478027,0.4223332107067108
1781638854751522000,11.22552197265625,-1.2502498626708984,-9.92542839050293,0.46899324655532837
1781638854809748200,11.283748291015625,-1.2861422300338745,-9.873982429504395,0.3936193287372589
1781638854906792700,11.380792724609375,-1.25144624710083,-9.836894035339355,0.46061834692955017
1781638855003836700,11.477836669921874,-1.301695466041565,-9.907482147216797,0.4247260093688965
1781638855100880600,11.574880615234376,-1.2658032178878784,-9.900303840637207,0.32542386651039124
1781638855159107000,11.633107177734376,-1.2681959867477417,-9.879964828491211,0.3517449200153351
1781638855256151300,11.7301513671875,-1.1234302520751953,-9.857233047485352,0.364905446767807
1781638855353195500,11.827195556640625,-1.2275179624557495,-9.852447509765625,0.3074777126312256
1781638855450239700,11.92423974609375,-1.2693923711776733,-9.927821159362793,0.3696911036968231
1781638855508466000,11.9824658203125,-1.4500504732131958,-9.948160171508789,0.4055834412574768
1781638855605510100,12.07951025390625,-1.4656038284301758,-9.822537422180176,0.2679961323738098
1781638855702554400,12.176554443359375,-1.2646067142486572,-9.78664493560791,0.5659025311470032
1781638855799598300,12.273598388671875,-1.5541383028030396,-9.714859962463379,0.5659025311470032
1781638855857824800,12.33182470703125,-1.690529227256775,-9.7938232421875,0.6795616149902344
1781638855954869000,12.428868896484374,0.1579262912273407,-8.529216766357422,1.0947163105010986
1781638856051913000,12.525912841796876,-1.511067509651184,-11.235498428344727,1.290927767753601
1781638856148957000,12.62295703125,0.2632105052471161,-9.401400566101074,1.5158531665802002
1781638856207183600,12.68118359375,0.8279166221618652,-8.84506893157959,1.9537396430969238
1781638856304227600,12.7782275390625,1.0971091985702515,-8.717052459716797,2.495713949203491
1781638856401271600,12.875271484375,1.6761722564697266,-12.29551887512207,3.3308091163635254
1781638856459498200,12.933498291015624,0.4654040038585663,-11.594422340393066,2.087737798690796
1781638856556542500,13.03054248046875,-2.4155545234680176,-9.200403213500977,-1.6247265338897705
1781638856653586400,13.12758642578125,-0.6400800347328186,-9.321240425109863,-2.451446771621704
1781638856750630400,13.22463037109375,-0.9655039310455322,-10.03549861907959,-0.3194418251514435
1781638856808856800,13.28285693359375,-0.7621139883995056,-8.995817184448242,2.998206853866577
1781638856905901000,13.379901123046874,0.44027936458587646,-6.91765022277832,1.5565310716629028
1781638857002945000,13.476945068359376,1.7060825824737549,-13.435699462890625,0.8027920126914978
1781638857099989000,13.573989013671875,-2.4155545234680176,-9.059226989746094,-1.062413215637207
1781638857158215700,13.632215576171875,-1.789831280708313,-11.862418174743652,1.9752750396728516
1781638857255259600,13.729259765625,-1.0504491329193115,-9.694520950317383,3.689732551574707
1781638857352303900,13.826303955078124,0.3314059376716614,-8.513663291931152,-1.8005990982055664
1781638857449347800,13.923347900390626,2.3258235454559326,-6.307480335235596,1.801795482635498
1781638857507574300,13.98157421875,-3.4002010822296143,-11.804990768432617,2.788834810256958
1781638857604618200,14.0786181640625,-4.289134502410889,-15.168102264404297,3.1334011554718018
1781638857701662500,14.175662353515625,-0.9104689955711365,-7.113861560821533,0.8805587291717529
1781638857798706200,14.2727060546875,0.5790630578994751,-7.5637125968933105,-1.0660024881362915
1781638857856932900,14.330932861328124,-2.4011974334716797,-8.543573379516602,0.23210379481315613
1781638857953976800,14.427976806640626,-0.7812566161155701,-9.347561836242676,3.2614171504974365
1781638858051021000,14.52502099609375,1.848455548286438,-8.26839828491211,0.3565305769443512
1781638858109247200,14.583247314453125,2.4394826889038086,-11.10628604888916,2.2480568885803223
1781638858206291500,14.68029150390625,-3.7567315101623535,-7.424928665161133,-2.204986095428467
1781638858303335400,14.77733544921875,-4.9399824142456055,-19.652252197265625,3.70767879486084
1781638858400379100,14.874379150390626,0.16749759018421173,-7.200003147125244,0.9559326171875
1781638858458605800,14.932605712890625,1.4943177700042725,-7.860422611236572,-0.6329016089439392
1781638858555650000,15.029650146484375,1.1126625537872314,-7.439285755157471,3.3786656856536865
1781638858652694000,15.126694091796875,3.864408493041992,-11.395817756652832,4.226921081542969
1781638858749738000,15.223738037109374,1.1700903177261353,-6.38165807723999,1.0109676122665405
1781638858807964400,15.28196435546875,-1.2502498626708984,-10.729416847229004,0.5132604837417603
1781638858905008400,15.37900830078125,-2.1020946502685547,-6.93320369720459,0.36610186100006104
1781638859002052400,15.47605224609375,-0.22372891008853912,-8.421539306640625,1.4871392250061035
1781638859099096300,15.573096435546875,3.3643085956573486,-6.216553211212158,0.41994038224220276
1781638859157322800,15.63132275390625,-0.11126625537872314,-14.82951831817627,4.262813568115234
1781638859254366700,15.72836669921875,-4.509274482727051,-7.324429988861084,0.33020952343940735
1781638859351410700,15.82541064453125,-4.450650215148926,-15.692131042480469,4.466203689575195
1781638859409637000,15.88363720703125,1.490728497505188,-5.972485542297363,1.1437692642211914
1781638859506681000,15.98068115234375,1.1150553226470947,-6.594619274139404,0.8901300430297852
1781638859603725300,16.077725341796874,2.5459632873535156,-7.70249605178833,0.9032905697822571
1781638859700769300,16.174769287109374,-0.22612173855304718,-12.297911643981934,4.766502857208252
1781638859758995500,16.232995361328125,-2.8390841484069824,-11.771491050720215,-0.25244277715682983
1781638859856039700,16.330039794921873,-2.551945447921753,-13.016955375671387,-2.9204399585723877
1781638859953083400,16.42708349609375,-2.342573404312134,-7.082755088806152,0.13519448041915894
1781638860050127600,16.524127685546876,1.8556339740753174,-6.949953556060791,3.5377883911132812
1781638860108353800,16.582353759765624,-0.037088751792907715,-7.848458290100098,2.6368906497955322
1781638860205397800,16.679397705078124,-0.7668996453285217,-13.98365592956543,4.451846599578857
1781638860302442000,16.77644189453125,-3.5270206928253174,-4.479363918304443,0.12681959569454193
1781638860360668200,16.834668212890627,-3.3032915592193604,-19.709680557250977,-1.511067509651184
1781638860457712000,16.931712158203126,1.5278172492980957,-6.3732829093933105,2.400001049041748
1781638860554756000,17.028756103515626,0.7848458290100098,-6.866204738616943,0.38763725757598877
1781638860651800000,17.125800048828125,0.5994020700454712,-10.311869621276855,2.11405873298645
1781638860710026500,17.184026611328125,6.2871413230896,-15.772290229797363,0.607776939868927
1781638860807070200,17.2810703125,0.33499518036842346,-8.12123966217041,0.6424728631973267
1781638860865297000,17.339296875,-1.3351950645446777,-9.597611427307129,0.576670229434967
1781638860923523000,17.397523193359376,1.0959128141403198,-9.078369140625,-4.326223373413086
1781638861020567000,17.494567138671876,-1.3746765851974487,-9.954142570495605,-0.33020952343940735
1781638861117611000,17.591611083984375,-0.5623133182525635,-6.920042991638184,1.109073281288147
1781638861214655000,17.688655029296875,1.9800606966018677,-12.111271858215332,4.274777889251709
1781638861272881400,17.74688134765625,-1.9046868085861206,-13.600804328918457,-1.0683952569961548
1781638861369925400,17.84392529296875,-3.431307554244995,-13.211970329284668,1.588834285736084
1781638861466969000,17.940968994140626,-0.8147560954093933,-7.652246952056885,4.685146808624268
1781638861564013000,18.038012939453125,1.007378339767456,-5.974878311157227,-2.124826431274414
1781638861622239500,18.096239501953125,2.018345832824707,-5.661418437957764,0.32303106784820557
1781638861719283500,18.193283447265625,4.889732837677002,-19.409379959106445,-0.6460621356964111
1781638861816327400,18.290327392578124,-5.392225742340088,-17.249858856201172,-4.121636867523193
1781638861874553600,18.3485537109375,-2.2851455211639404,-6.679564476013184,0.3326023519039154
1781638861971597800,18.445597900390624,-0.7573283910751343,-6.378068923950195,-4.205385684967041
1781638862068641500,18.5426416015625,-0.8662018179893494,-11.085947036743164,0.867398202419281
1781638862165685200,18.639685302734375,1.7778671979904175,-6.211767673492432,2.827120065689087
1781638862223912000,18.697911865234374,1.495514154434204,-13.905888557434082,4.572684288024902
1781638862320956000,18.794955810546874,-2.0709879398345947,-6.920042991638184,-3.4085757732391357
1781638862417999600,18.89199951171875,-3.806980848312378,-21.372692108154297,1.7647067308425903
1781638862515043600,18.989043701171877,1.3088740110397339,-5.927021503448486,0.7501499056816101
1781638862573270000,19.04727001953125,0.7740781307220459,-7.103094100952148,-1.4979069232940674
1781638862670313700,19.144313720703124,3.2518460750579834,-4.567898273468018,-0.3684946894645691
1781638862767357700,19.241357666015624,2.1774685382843018,-11.22233772277832,5.3216376304626465
1781638862825583900,19.299583984375,-4.922036170959473,-15.075979232788086,-3.4241292476654053
1781638862922627800,19.3966279296875,-3.308077335357666,-12.782458305358887,-3.2865419387817383
1781638863019671800,19.493671875,-1.4931213855743408,-5.708078384399414,-0.1698904037475586
1781638863116715500,19.590715576171874,0.9774680733680725,-6.427121639251709,2.2887349128723145
1781638863174942000,19.64894189453125,1.7754744291305542,-5.505885124206543,2.768495798110962
1781638863271985700,19.745985595703125,-0.7992027401924133,-14.249258995056152,4.039084434509277
1781638863369029600,19.843029541015625,-3.607180118560791,-8.353343963623047,0.04426721855998039
1781638863427255800,19.901255859375,-4.5236310958862305,-22.49851417541504,1.2598211765289307
1781638863524299800,19.9982998046875,1.604387640953064,-7.444071292877197,1.0827522277832031
1781638863621343700,20.09534375,2.3054845333099365,-5.705685615539551,0.7549355626106262
1781638863718387500,20.192387451171875,-3.135794162750244,-15.760326385498047,0.6927221417427063
1781638863776613600,20.250613525390627,1.4679967164993286,-12.258430480957031,5.921039581298828
1781638863873657600,20.34765771484375,-0.6269195079803467,-7.089933395385742,0.37806597352027893
1781638863970701600,20.44470166015625,1.176072359085083,-7.4464640617370605,-4.83469820022583
1781638864067745300,20.541745361328125,-1.9920248985290527,-9.967302322387695,-0.9487541913986206
1781638864125971700,20.5999716796875,-0.23688943684101105,-7.046862602233887,1.3471591472625732
1781638864223015400,20.697015380859376,2.2025933265686035,-9.052047729492188,3.5676984786987305
1781638864320059400,20.794059326171876,-3.297309637069702,-11.69013500213623,-2.89172625541687
1781638864378285600,20.85228564453125,-4.695914268493652,-10.387243270874023,-1.526620864868164
1781638864475329300,20.949329345703124,-2.2157537937164307,-8.964710235595703,5.576473236083984
1781638864572373500,21.04637353515625,0.29312077164649963,-6.574280261993408,-1.7312071323394775
1781638864669417000,21.1434169921875,3.06999135017395,-2.3473589420318604,0.6759724020957947
1781638864727643400,21.201643310546874,-5.410171985626221,-15.67538070678711,1.0480563640594482
1781638864824687400,21.298687255859374,-14.385649681091309,-19.551753997802734,1.9094724655151367
1781638864921731000,21.39573095703125,-3.517449378967285,-13.570893287658691,-1.4021940231323242
1781638864979957200,21.453957275390625,-0.01196411345154047,-8.047062873840332,-7.657032489776611
1781638865077001200,21.551001220703125,4.370490550994873,-9.029315948486328,0.10049854964017868
1781638865174045000,21.648044921875,1.7766708135604858,-8.803194046020508,2.4287149906158447
1781638865271088600,21.745088623046875,0.46061834692955017,-12.600604057312012,5.400600910186768
1781638865329314800,21.803314697265623,-4.0079779624938965,-7.286144733428955,-0.6376872062683105
1781638865426358800,21.90035888671875,-3.902693748474121,-15.720845222473145,-0.5084748268127441
1781638865523402500,21.997402587890626,1.6977076530456543,-6.212964057922363,-0.3290131092071533
1781638865620446200,22.0944462890625,0.2871387302875519,-6.370890140533447,2.111665964126587
1781638865678672600,22.152672607421874,3.4683964252471924,-4.728217601776123,2.311466693878174
1781638865775716400,22.24971630859375,1.0648061037063599,-11.607583045959473,3.4265220165252686
1781638865911577300,22.385577392578124,-3.2590243816375732,-12.556336402893066,-0.6939185857772827
1781638865969803800,22.4438037109375,-0.898504912853241,-8.556734085083008,-3.122633457183838
1781638866028030200,22.5020302734375,-1.0097711086273193,-5.988038539886475,-0.29790642857551575
1781638866125074000,22.599073974609375,0.4414757788181305,-6.4187469482421875,2.293520450592041
1781638866222117600,22.69611767578125,2.6943182945251465,-12.719048500061035,5.0907301902771
1781638866280344000,22.754343994140626,1.1270195245742798,-14.176278114318848,2.335394859313965
1781638866377387800,22.8513876953125,-4.333401679992676,-10.03549861907959,-0.4534398913383484
1781638866474431200,22.94843115234375,-2.6009981632232666,-9.012566566467285,6.129215240478516
1781638866571475000,23.045474853515625,0.38285163044929504,-6.1088762283325195,-1.6319050788879395
1781638866629701400,23.103701416015625,1.6103696823120117,-6.429514408111572,0.11006984114646912
1781638866726745000,23.2007451171875,-3.7363924980163574,-18.473787307739258,0.5048855543136597
1781638866823788800,23.297788818359376,-7.634300708770752,-18.953548431396484,-3.1310083866119385
1781638866882015000,23.356014892578123,-0.9571290612220764,-5.985645771026611,0.6843472719192505
1781638866979058700,23.45305859375,0.22372891008853912,-8.490931510925293,-3.359523057937622
1781638867076102400,23.550102294921874,-2.043470621109009,-9.986445426940918,-0.26440688967704773
1781638867173146000,23.64714599609375,1.1629117727279663,-5.599205017089844,1.9369899034500122
1781638867231372500,23.70537255859375,2.8211379051208496,-12.20937728881836,3.5341989994049072
1781638867328416000,23.802416015625,-2.730210542678833,-9.541379928588867,-3.4552359580993652
1781638867425459700,23.899459716796876,-4.615755081176758,-22.923240661621094,-0.07417750358581543
1781638867483686000,23.957685791015624,-0.9403793215751648,-8.349754333496094,6.324230194091797
1781638867580729900,24.054729736328124,1.1341979503631592,-5.766702651977539,-1.6151553392410278
1781638867677773300,24.151773193359375,3.814159393310547,-3.817748546600342,0.4127618968486786
1781638867774817000,24.248817138671875,5.565705299377441,-12.722638130187988,5.030909538269043
1781638867833043500,24.30704345703125,-5.624329566955566,-15.955341339111328,-4.41475772857666
1781638867930087000,24.4040869140625,-2.062613010406494,-11.942577362060547,-0.519242525100708
1781638868027130600,24.501130615234374,-1.4524433612823486,-6.735795974731445,0.7345965504646301
1781638868124174300,24.59817431640625,0.3613162338733673,-8.079365730285645,1.3196417093276978
1781638868182400500,24.656400390625,1.7276179790496826,-6.1328043937683105,4.398007869720459
1781638868279444200,24.7534443359375,-0.6317051649093628,-16.037893295288086,4.911268711090088
1781638868376488000,24.850488037109375,-3.7878382205963135,-6.01675271987915,-0.9678967595100403
1781638868434714000,24.908714111328123,-3.524627685546875,-18.507286071777344,-2.7912275791168213
1781638868531757800,25.0057578125,2.6189444065093994,-5.702096462249756,3.957728624343872
1781638868628801300,25.10280126953125,1.3148560523986816,-6.702296257019043,-0.4546363055706024
1781638868725845200,25.19984521484375,-1.5553346872329712,-10.375279426574707,2.173879384994507
1781638868784071200,25.2580712890625,8.175078392028809,-14.260026931762695,2.286342144012451
1781638868881115000,25.355114990234377,0.016749758273363113,-9.817750930786133,0.47976094484329224
1781638868978158600,25.45215869140625,-1.5194423198699951,-11.608778953552246,-4.084548473358154
1781638869075202000,25.5492021484375,-4.388436794281006,-7.868797302246094,-0.7716853022575378
1781638869133428200,25.60742822265625,2.913261651992798,-9.207581520080566,2.586641311645508
1781638869230472200,25.70447216796875,0.5910272002220154,-7.200003147125244,0.729810893535614
1781638869327515600,25.801515625,-0.9248259663581848,-13.190434455871582,1.994417667388916
1781638869385741800,25.859741943359374,-3.0245277881622314,-6.671189308166504,-1.3555340766906738
1781638869482785500,25.95678564453125,-4.433900356292725,-19.8221435546875,0.6436693072319031
1781638869579829200,26.053829345703125,1.3519448041915894,-6.921239376068115,1.1700903177261353
1781638869676872700,26.150872802734376,1.8975083827972412,-5.633901119232178,0.4175475537776947
1781638869735098600,26.2090986328125,3.326023578643799,-5.374279499053955,1.8604196310043335
1781638869832142600,26.306142578125,1.789831280708313,-12.662817001342773,4.993820667266846
1781638869929186000,26.40318603515625,-0.1543370634317398,-4.059423446655273,0.39601215720176697
1781638870026229500,26.5002294921875,1.0289137363433838,-9.183652877807617,-4.130012035369873
1781638870084456000,26.5584560546875,-3.1405797004699707,-4.7988057136535645,0.486939400434494
1781638870181499400,26.65549951171875,1.0456634759902954,-7.7563347816467285,1.5625132322311401
1781638870278543000,26.752543212890625,2.293520450592041,-9.04845905303955,0.040677983313798904
1781638870336769300,26.810769287109373,-0.7046862840652466,-14.470595359802246,2.599801778793335
1781638870433812700,26.907812744140625,-4.364508628845215,-7.172485828399658,-2.544766902923584
1781638870530856400,27.0048564453125,-2.4370899200439453,-13.103096961975098,8.383254051208496
1781638870627899600,27.101899658203124,1.4799607992172241,-7.250252723693848,-4.29033088684082
1781638870686126000,27.1601259765625,1.6259230375289917,-6.424728870391846,-0.21655045449733734
1781638870783169500,27.25716943359375,-5.764309883117676,-13.95972728729248,2.847458839416504
1781638870880213200,27.354213134765626,-6.6149582862854,-17.562122344970703,-1.2921242713928223
1781638870977256400,27.45125634765625,-0.9104689955711365,-4.869394302368164,2.0554347038269043
1781638871035483000,27.50948291015625,1.129412293434143,-10.28315544128418,-3.686143398284912
1781638871132526300,27.6065263671875,-0.2799602448940277,-9.454042434692383,0.7800601720809937
1781638871229570000,27.703570068359376,-0.16271193325519562,-7.688138961791992,2.2265214920043945
1781638871287796000,27.7617958984375,2.7984061241149902,-7.164111137390137,2.4191436767578125
1781638871384839700,27.858839599609375,-2.3533411026000977,-13.561322212219238,-1.5002998113632202
1781638871481883100,27.955883056640626,-3.212364435195923,-14.709877014160156,-2.0039889812469482
1781638871578926600,28.052926513671874,1.2634103298187256,-5.745167255401611,7.668996810913086
1781638871637152800,28.11115283203125,0.8123632669448853,-7.062416076660156,-1.683350682258606
1781638871734196200,28.2081962890625,2.7840490341186523,-5.740381717681885,0.9571290612220764
1781638871831240000,28.305239990234377,6.45822811126709,-17.854045867919922,-0.5240281820297241
1781638871889465300,28.36346533203125,-4.3788652420043945,-12.095718383789062,3.669393539428711
1781638871986509600,28.460509521484376,0.08135596662759781,-5.7750773429870605,2.008774518966675
1781638872083553000,28.557552978515623,-0.9248259663581848,-6.230910301208496,-6.338587284088135
1781638872180596500,28.654596435546875,-0.9320043921470642,-10.457831382751465,4.187439441680908
1781638872238822700,28.71282275390625,0.1256231814622879,-7.568498134613037,1.6079767942428589
1781638872335866000,28.8098662109375,1.94297194480896,-11.135000228881836,2.82951283454895
1781638872432909600,28.90690966796875,-3.126222848892212,-7.3639116287231445,-1.5780665874481201
1781638872529953000,29.003953125,-4.752145767211914,-22.061824798583984,0.27756741642951965
1781638872588179200,29.06217919921875,1.0265209674835205,-6.939185619354248,7.93579626083374
1781638872685222700,29.15922265625,1.6115660667419434,-7.263412952423096,-3.8021950721740723
1781638872782266000,29.25626611328125,1.8987047672271729,-5.674578666687012,2.874976396560669
1781638872840492300,29.3144921875,4.2209391593933105,-18.192630767822266,-0.8949156403541565
1781638872956944400,29.4309443359375,-2.8594231605529785,-13.472787857055664,-3.9254255294799805
1781638873034579200,29.5085791015625,-3.298506021499634,-8.597412109375,1.31365966796875
1781638873131622700,29.60562255859375,-1.3770694732666016,-7.10429048538208,-0.7680960893630981
1781638873189848800,29.663848876953125,-0.5706881880760193,-10.675578117370605,2.9874391555786133
1781638873286892300,29.760892333984376,0.10408778488636017,-7.576872825622559,2.9826533794403076
1781638873383935700,29.857935791015624,-1.4859428405761719,-13.9453706741333,3.263810157775879
1781638873480979200,29.954979248046875,-3.5928232669830322,-5.416153907775879,-1.0037890672683716
1781638873539205400,30.013205322265627,-4.091726779937744,-23.593231201171875,-1.8556339740753174
1781638873636248600,30.11024853515625,2.8797619342803955,-5.350351333618164,3.346362352371216
1781638873733292000,30.2072919921875,1.3806586265563965,-6.515655994415283,-1.6510475873947144
1781638873830335500,30.30433544921875,-4.522434711456299,-14.30309772491455,2.073380708694458
1781638873888561400,30.3625615234375,6.468996047973633,-12.502498626708984,4.208974838256836
1781638873985605000,30.459605224609376,-1.5014961957931519,-9.803394317626953,-1.3148560523986816
1781638874082648600,30.556648681640624,0.7752745151519775,-11.078768730163574,-4.66361141204834
1781638874179691800,30.65369189453125,-2.548356056213379,-10.64088249206543,0.9272187948226929
1781638874237918000,30.71191796875,0.39481574296951294,-8.305487632751465,4.742574691772461
1781638874334961400,30.80896142578125,1.7156537771224976,-8.102097511291504,2.2372891902923584
1781638874432004900,30.9060048828125,-1.7670994997024536,-13.649856567382812,0.35892340540885925
1781638874490230800,30.964230712890625,-3.817748546600342,-5.3802618980407715,-2.063809633255005
1781638874587274200,31.061274169921877,-5.410171985626221,-19.41057777404785,4.304687976837158
1781638874684317700,31.158317626953124,1.2143574953079224,-7.703692436218262,-0.41874396800994873
1781638874781361200,31.255361083984376,1.726421594619751,-5.095515727996826,0.2069791555404663
1781638874839587000,31.313587158203124,-0.13280165195465088,-9.664610862731934,3.0340991020202637
1781638874975447800,31.44944775390625,-7.860422611236572,-16.992630004882812,-4.262813568115234
1781638875033674000,31.507674072265626,0.38763725757598877,-6.452246189117432,0.5395814776420593
1781638875130717200,31.60471728515625,0.2763710021972656,-8.317451477050781,-5.340780258178711
1781638875188943400,31.662943359375,-2.788834810256958,-7.891529083251953,0.3038884699344635
1781638875285986800,31.75998681640625,0.6795616149902344,-7.645068168640137,3.2829527854919434
1781638875383030000,31.857030029296876,3.78544545173645,-10.449456214904785,0.8003991842269897
1781638875441256000,31.915255859375,-1.3244273662567139,-13.495519638061523,3.6849467754364014
1781638875538299400,32.01229931640625,-4.143172264099121,-6.983452796936035,-2.2743778228759766
1781638875635342800,32.1093427734375,-3.775874137878418,-13.652249336242676,7.501499176025391
1781638875732386000,32.20638598632812,1.1485549211502075,-7.308876991271973,-3.4085757732391357
1781638875790612200,32.2646123046875,1.3854442834854126,-6.49770975112915,-0.019142581149935722
1781638875887655700,32.36165576171875,-5.191228866577148,-14.44068431854248,3.5784661769866943
1781638875984699000,32.458698974609376,-3.315255880355835,-12.068201065063477,2.754138946533203
1781638876081742300,32.555742431640624,0.9188438653945923,-6.873383045196533,3.3020951747894287
1781638876139968300,32.61396826171875,-1.031306505203247,-10.14437198638916,-4.070191383361816
1781638876237011700,32.71101171875,-1.710868239402771,-9.69212818145752,1.9872392416000366
1781638876334055000,32.808054931640626,-0.7214360237121582,-8.189435958862305,1.9669002294540405
1781638876392280600,32.866280517578126,2.0542383193969727,-6.742974281311035,1.2011969089508057
1781638876489324300,32.96332421875,-1.9573289155960083,-15.449259757995605,1.856830358505249
1781638876586367700,33.06036767578125,-3.181257724761963,-9.239884376525879,-2.5088746547698975
1781638876683411000,33.157410888671876,-2.3736801147460938,-10.808380126953125,6.7692952156066895
1781638876741637000,33.21563720703125,1.1521440744400024,-6.430710792541504,1.0241280794143677
1781638876838680300,33.312680419921875,1.5481562614440918,-6.702296257019043,0.18305093050003052
1781638876935723500,33.4097236328125,-5.2354960441589355,-16.584653854370117,1.667797327041626
1781638876993949700,33.46794970703125,3.7663028240203857,-13.292129516601562,4.478167533874512
1781638877090993000,33.56499291992188,-0.2907279431819916,-7.767102241516113,1.6821542978286743
1781638877168627700,33.64262768554688,-0.9475577473640442,-11.206785202026367,-2.919243574142456
1781638877226853600,33.700853515625,-2.719442844390869,-5.405386447906494,-4.4650068283081055
1781638877285079600,33.75907958984375,-0.45224347710609436,-10.273584365844727,2.166700839996338
1781638877343305500,33.81730541992187,-0.9343972206115723,-8.318648338317871,2.8677978515625
1781638877459757600,33.933757568359376,3.214757204055786,-9.693324089050293,2.2360928058624268
1781638877556800800,34.03080078125,-3.229114055633545,-10.698309898376465,-1.6007983684539795
1781638877653844000,34.127843994140626,-3.0113673210144043,-17.10628890991211,-3.2853455543518066
1781638877712070100,34.18607006835938,-1.5936198234558105,-10.189835548400879,6.790830612182617
1781638877809113300,34.28311328125,1.7515461444854736,-7.34476900100708,-4.658825874328613
1781638877906156500,34.38015649414063,3.428914785385132,-4.78803825378418,1.8999011516571045
1781638877964382500,34.43838256835937,-3.4408788681030273,-18.52882194519043,1.3806586265563965
1781638878061426000,34.53542602539063,-8.561519622802734,-15.533008575439453,-3.482753276824951
1781638878158469000,34.63246923828125,-2.1272194385528564,-4.826323509216309,2.242074728012085
1781638878255512300,34.72951220703125,-1.5792629718780518,-5.407779216766357,-3.397808074951172
1781638878313738200,34.78773828125,-1.8089739084243774,-11.722437858581543,3.482753276824951
1781638878410781700,34.88478173828125,-0.33020952343940735,-7.658228874206543,1.1940184831619263
1781638878507825000,34.98182495117187,0.3481557071208954,-12.19382381439209,3.0927233695983887
1781638878604868000,35.0788681640625,-4.577469825744629,-5.770291805267334,-0.10289137065410614
1781638878663094300,35.13709423828125,-2.251646041870117,-16.414762496948242,-2.324627161026001
1781638878760137500,35.234137451171875,0.46779683232307434,-5.424529075622559,4.977071285247803
1781638878857180700,35.3311806640625,2.053041934967041,-6.398407936096191,-2.5950162410736084
1781638878915406600,35.38940649414062,3.607180118560791,-5.383851051330566,0.8973084688186646
1781638879012449800,35.48644970703125,9.393025398254395,-14.413166999816895,-0.711864709854126
1781638879109493000,35.58349291992187,-4.535595417022705,-14.233705520629883,-3.735196113586426
1781638879206536200,35.6805361328125,-3.0592236518859863,-9.367900848388672,-1.911865234375
1781638879264762000,35.73876220703125,-1.4021940231323242,-6.417550563812256,-4.195814609527588
1781638879361805600,35.8358056640625,-0.638883650302887,-10.095318794250488,2.963510751724243
1781638879458848800,35.93284887695312,1.4476577043533325,-6.652047157287598,2.2061824798583984
1781638879555892000,36.02989208984375,-2.5639095306396484,-15.591631889343262,2.056631088256836
1781638879614118000,36.08811791992188,-3.029313564300537,-5.848058700561523,-1.1330015659332275
1781638879711161000,36.1851611328125,-4.2006001472473145,-20.419151306152344,0.7393822073936462
1781638879808204300,36.28220434570313,1.1976077556610107,-6.9104719161987305,1.0755738019943237
1781638879866430200,36.34043017578125,1.7826528549194336,-6.735795974731445,-2.7864420413970947
1781638879963473400,36.437473388671876,1.7982062101364136,-8.350951194763184,1.6701902151107788
1781638880060516600,36.5345166015625,3.2721848487854004,-11.161321640014648,4.880161762237549
1781638880157559800,36.63155981445313,0.6436693072319031,-8.731410026550293,1.1676974296569824
1781638880215785700,36.68978564453125,-4.439882278442383,-8.484949111938477,0.7357929348945618
1781638880312829000,36.786828857421874,-1.1736794710159302,-7.345965385437012,1.2681959867477417
1781638880409872100,36.8838720703125,-0.137587308883667,-8.334200859069824,2.1990039348602295
1781638880506915300,36.980915283203124,3.840480327606201,-8.018348693847656,0.6687939167022705
1781638880565141200,37.039141357421876,-2.1379871368408203,-14.788840293884277,2.8701908588409424
1781638880662184400,37.13618432617187,-3.7567315101623535,-5.912664890289307,-1.1485549211502075
1781638880759227600,37.2332275390625,-2.953939437866211,-13.786247253417969,5.162514686584473
1781638880856270800,37.33027075195312,0.6005984544754028,-7.402196884155273,-2.2983062267303467
1781638880914496800,37.388496826171874,1.6235301494598389,-6.275177478790283,-1.0959128141403198
1781638881011540000,37.4855400390625,-3.0137600898742676,-12.77767276763916,3.5461630821228027
1781638881108583200,37.582583251953125,-1.1341979503631592,-13.133007049560547,3.4755749702453613
1781638881205626400,37.67962646484375,0.7178468108177185,-7.052844524383545,1.7120646238327026
1781638881263852300,37.73785229492187,-2.438286304473877,-10.394421577453613,-1.9968105554580688
1781638881360895500,37.8348955078125,-1.3806586265563965,-8.846264839172363,2.122433662414551
1781638881457938400,37.9319384765625,-0.039481572806835175,-8.327022552490234,2.231307029724121
1781638881516164400,37.99016430664062,1.6271194219589233,-7.263412952423096,1.3854442834854126
1781638881613207600,38.08720751953125,-2.2911276817321777,-15.414563179016113,1.4189438819885254
1781638881710250800,38.18425073242187,-2.8079774379730225,-8.675178527832031,-1.9537396430969238
1781638881807293700,38.281293701171876,-2.4921247959136963,-9.732806205749512,6.977470874786377
1781638881865519600,38.33951953125,0.6855437159538269,-7.039684295654297,1.4775680303573608
1781638881962563000,38.43656298828125,1.5278172492980957,-6.3014984130859375,-0.11964113265275955
1781638882059606300,38.53360620117188,-4.631308078765869,-19.826929092407227,1.490728497505188
1781638882156649200,38.630649169921874,-6.999006271362305,-13.940585136413574,-1.357926845550537
1781638882214875100,38.688875244140625,0.5383850932121277,-9.023334503173828,-0.24167509377002716
1781638882311918300,38.78591845703125,-0.14356936514377594,-9.681360244750977,-4.817948341369629
1781638882408961500,38.88296142578125,-2.585444927215576,-10.923234939575195,2.4765713214874268
1781638882467187200,38.941187255859376,0.3122633695602417,-7.716853141784668,2.155933141708374
1781638882564230400,39.03823046875,3.568894863128662,-10.007980346679688,1.3698909282684326
1781638882661273600,39.135273681640626,-2.7397818565368652,-12.602996826171875,-1.4500504732131958
1781638882758316800,39.23231689453125,-1.495514154434204,-16.04746437072754,-4.427918434143066
1781638882816542500,39.29054248046875,-2.7254250049591064,-10.88136100769043,6.510870456695557
1781638882913585700,39.38758569335938,1.5098711252212524,-6.726224422454834,-4.0079779624938965
1781638883010628900,39.48462890625,3.0209386348724365,-5.2869415283203125,1.3639088869094849
1781638883107671800,39.581671875,6.393621921539307,-14.842679023742676,1.4344971179962158
1781638883165897700,39.63989770507813,-4.820341110229492,-13.131811141967773,-1.4488540887832642
1781638883262940700,39.73694067382812,-0.2069791555404663,-6.123233318328857,1.9070796966552734
1781638883359984000,39.83398413085938,-0.30628129839897156,-6.545566558837891,-3.4683964252471924
1781638883418209800,39.89220971679688,-2.654836654663086,-10.299904823303223,1.5804593563079834
1781638883515253000,39.9892529296875,0.1459621787071228,-7.544569969177246,2.2600209712982178
1781638883612296000,40.0862958984375,0.729810893535614,-13.424931526184082,3.2793633937835693
1781638883709339100,40.183339111328124,-3.7471601963043213,-7.032505512237549,-0.6173482537269592
1781638883767564800,40.24156469726562,-1.887937068939209,-11.647064208984375,-3.9349968433380127
1781638883864608000,40.33860791015625,1.373480200767517,-7.018148899078369,5.998806476593018
1781638883961651200,40.435651123046874,1.7754744291305542,-7.386643409729004,-3.7746777534484863
1781638884058694100,40.53269409179688,2.816352367401123,-7.312466144561768,2.001596212387085
1781638884116920000,40.59092016601563,3.702893018722534,-18.509679794311523,-0.44027936458587646
1781638884213963300,40.68796337890625,-5.266602516174316,-14.547164916992188,-5.7619171142578125
1781638884311006200,40.78500610351563,-2.5076780319213867,-6.832705020904541,2.056631088256836
1781638884369232100,40.84323217773437,-0.03469592705368996,-8.237292289733887,-5.594419479370117
1781638884466275300,40.940275390625,-1.5242279767990112,-11.131410598754883,2.572284460067749
1781638884563318300,41.037318359375,0.12921242415905,-7.283751964569092,1.5517455339431763
1781638884660361200,41.134361328125,-1.698904037475586,-14.22413444519043,3.9768712520599365
1781638884718587100,41.192587158203125,-2.748156785964966,-10.408778190612793,-1.648654818534851
1781638884815630300,41.28963037109375,-0.6771687865257263,-16.68634796142578,-3.1680972576141357
1781638884912673300,41.38667333984375,2.792423963546753,-5.747560024261475,3.1561331748962402
1781638885009716200,41.48371630859375,1.1820544004440308,-6.777669906616211,-2.2241287231445312
1781638885067942100,41.54194213867188,3.428914785385132,-5.178068161010742,1.8580267429351807
1781638885164985300,41.6389853515625,5.594419479370117,-14.45743465423584,1.9310078620910645
1781638885262028300,41.7360283203125,-2.1894326210021973,-10.316655158996582,-1.4117653369903564
1781638885320254200,41.79425415039063,-1.054038405418396,-6.569494724273682,2.3186452388763428
1781638885417297200,41.891297119140624,-1.8783657550811768,-6.004788398742676,-2.4849462509155273
1781638885514340400,41.98834033203125,0.4989035129547119,-8.949156761169434,4.323830604553223
1781638885611383300,42.08538330078125,2.190629243850708,-8.868997573852539,0.2105683982372284
1781638885669609000,42.14360888671875,-0.3936193287372589,-13.759926795959473,3.5306098461151123
1781638885766652200,42.24065209960938,-4.579862594604492,-6.284748554229736,0.2835494875907898
1781638885863695000,42.33769506835937,-2.806781053543091,-16.99741554260254,2.3784656524658203
1781638885960738300,42.43473828125,1.0432707071304321,-6.927221775054932,0.04785645380616188
1781638886018964000,42.4929638671875,1.6713865995407104,-7.379465103149414,-2.572284460067749
1781638886116007000,42.5900068359375,-1.856830358505249,-10.619346618652344,1.0887342691421509
1781638886213050000,42.68705004882813,-0.3517449200153351,-12.037094116210938,3.544966697692871
1781638886310093000,42.78409301757812,0.44745782017707825,-6.545566558837891,0.7597211599349976
1781638886368319000,42.842319091796874,-0.23808585107326508,-10.130014419555664,-3.0628130435943604
1781638886465362000,42.93936181640625,-1.8544375896453857,-9.522237777709961,2.234896421432495
1781638886562404900,43.03640478515625,0.16749759018421173,-7.389036178588867,2.3234307765960693
1781638886620630800,43.094630859375,1.8939191102981567,-7.854440212249756,1.7599210739135742
1781638886717673700,43.191673828125,-1.9405791759490967,-14.067404747009277,0.6783652305603027
1781638886814716700,43.28871655273438,-3.008974552154541,-8.477770805358887,-3.7507495880126953
1781638886911759600,43.385759521484374,-2.196611166000366,-10.48534870147705,6.464210510253906
1781638886969985500,43.443985595703126,1.2789636850357056,-6.4594244956970215,1.6414763927459717
1781638887067028500,43.54102856445313,1.8628123998641968,-5.577669620513916,-0.5383850932121277
1781638887164071400,43.638071533203124,-3.012563705444336,-18.912870407104492,1.5517455339431763
1781638887261114400,43.7351142578125,-5.2043890953063965,-14.579468727111816,-1.4344971179962158
1781638887319340300,43.79334033203125,-0.550349235534668,-7.551748275756836,-2.011167526245117
1781638887416383200,43.89038330078125,-0.20578274130821228,-9.90149974822998,-4.419543266296387
1781638887513426200,43.98742626953125,-3.55214524269104,-9.857233047485352,-0.20937198400497437
1781638887571651800,44.04565185546875,1.5026925802230835,-7.860422611236572,1.2382856607437134
1781638887668695000,44.14269506835937,1.0827522277832031,-9.985248565673828,1.3351950645446777
1781638887765738000,44.239738037109376,-2.2923240661621094,-12.570693969726562,-0.9762716293334961
1781638887862781000,44.33678100585937,-2.7314071655273438,-12.465409278869629,-3.8883368968963623
1781638887921006600,44.39500659179687,-4.325026988983154,-14.349757194519043,4.363312244415283
1781638888018049800,44.4920498046875,0.8685946464538574,-6.263213157653809,-1.275374412536621
1781638888115092700,44.5890927734375,2.1786649227142334,-5.947360515594482,1.171286702156067
1781638888212135700,44.6861357421875,5.642275810241699,-16.772489547729492,-1.1330015659332275
1781638888270361300,44.744361328125,-5.300102233886719,-15.227923393249512,3.38105845451355
1781638888367404300,44.841404296875,-2.9958138465881348,-9.626325607299805,-1.168893814086914
1781638888464447200,44.938447265625,0.1782652884721756,-7.217949390411377,-1.3316057920455933
1781638888561490200,45.035490234375,-0.18544375896453857,-10.53081226348877,1.2502498626708984
1781638888619716000,45.093716064453126,0.07058826833963394,-6.561119556427002,1.9932212829589844
1781638888716759000,45.19075903320312,2.252842426300049,-12.509676933288574,3.91705060005188
1781638888813802000,45.287802001953125,-4.974678039550781,-10.1276216506958,2.6368906497955322
1781638888872027600,45.346027587890624,-3.6191442012786865,-13.824532508850098,-6.634100914001465
1781638888969070800,45.44307080078125,-0.20338992774486542,-7.372286796569824,3.5090744495391846
1781638889066113500,45.54011352539062,0.973878800868988,-6.669992923736572,0.607776939868927
1781638889163156500,45.637156494140626,3.810570001602173,-4.442275047302246,1.9764715433120728
1781638889221382400,45.69538232421875,-4.553541660308838,-14.994623184204102,3.3200414180755615
1781638889318425300,45.79242529296875,-8.176275253295898,-15.229119300842285,3.1788649559020996
1781638889415468300,45.88946826171875,0.17108681797981262,-9.184849739074707,-0.8925228714942932
1781638889512511200,45.98651123046875,1.1222338676452637,-7.634300708770752,-2.555534601211548
1781638889570737000,46.04473681640625,-6.750152587890625,-8.798408508300781,3.7842490673065186
1781638889667779800,46.14177978515625,-0.11485548317432404,-6.544369697570801,-0.003589233849197626
1781638889764822800,46.23882275390625,-0.25363919138908386,-14.328222274780273,5.474778175354004
1781638889823048400,46.29704833984375,-1.6917256116867065,-11.862418174743652,0.27038896083831787
1781638889920091400,46.39409130859375,-3.119044303894043,-13.488341331481934,-2.504088878631592
1781638890017134300,46.49113427734375,1.2717852592468262,-6.251249313354492,3.1178479194641113
1781638890114177300,46.58817724609375,0.8721838593482971,-6.1088762283325195,-0.19381862878799438
1781638890172403000,46.64640283203125,2.770888566970825,-5.0703911781311035,0.2273181527853012
1781638890269446000,46.74344580078125,4.217350006103516,-18.89253044128418,-1.2490534782409668
1781638890366488800,46.84048876953125,1.0145567655563354,-9.223134994506836,-1.1988041400909424
1781638890463531800,46.93753173828125,-1.6773686408996582,-12.406785011291504,-1.832902193069458
1781638890521757400,46.99575732421875,0.8410771489143372,-7.300501823425293,-2.0374884605407715
1781638890618800400,47.09280029296875,-0.6699903607368469,-8.061419486999512,0.6699903607368469
1781638890715843300,47.18984326171875,1.6929219961166382,-7.307680130004883,-0.4378865361213684
1781638890812886000,47.28688598632812,-2.280359983444214,-14.417952537536621,3.851248025894165
1781638890909929000,47.383928955078126,-3.0867412090301514,-7.635497093200684,-2.5052852630615234
1781638890968154600,47.442154541015626,-2.2229323387145996,-17.133806228637695,1.191625714302063
1781638891065197600,47.53919750976563,2.0195422172546387,-7.161718368530273,1.1318050622940063
1781638891123423200,47.59742333984375,1.0612168312072754,-7.001399040222168,-1.4943177700042725
1781638891220466200,47.694466064453124,3.9038901329040527,-4.328616142272949,0.8721838593482971
1781638891317509000,47.79150903320313,4.326223373413086,-11.905488967895508,4.110869407653809
1781638891414552000,47.88855200195312,-0.15912270545959473,-10.29751205444336,-1.2023934125900269
1781638891472777700,47.94677783203125,-1.8831514120101929,-10.133604049682617,0.08255238085985184
1781638891569820700,48.043820556640625,-0.5946164131164551,-6.4510498046875,-0.914058268070221
1781638891666863400,48.14086328125,0.05383851006627083,-8.901300430297852,1.0528420209884644
1781638891763906300,48.23790625,2.1439690589904785,-8.38564682006836,3.5844483375549316
1781638891822132000,48.296132080078124,-1.5026925802230835,-15.583257675170898,5.362315654754639
1781638891919175000,48.3931748046875,-2.9252257347106934,-6.1603217124938965,-0.8315058946609497
1781638892016217900,48.4902177734375,-4.491328239440918,-18.183059692382812,2.287538528442383
1781638892074443500,48.54844360351562,0.8422735929489136,-6.853044033050537,3.9936211109161377
1781638892171486500,48.645486572265625,1.164108157157898,-5.934200286865234,-1.2693923711776733
1781638892268529200,48.742529052734376,1.5744773149490356,-8.874979019165039,1.954936146736145
1781638892365572000,48.83957202148437,1.7001005411148071,-11.410174369812012,5.436492919921875
1781638892423797800,48.8977978515625,-4.001996040344238,-14.157135009765625,-5.782256126403809
1781638892520840700,48.9948408203125,-2.2097716331481934,-11.818151473999023,-1.8005990982055664
1781638892617883400,49.09188330078125,-1.333998680114746,-6.004788398742676,0.8841479420661926
1781638892714926300,49.18892626953125,0.2787638306617737,-7.270591735839844,1.5086746215820312
1781638892773152000,49.24715209960937,0.885344386100769,-8.285148620605469,3.260220766067505
1781638892870195000,49.34419482421875,-0.3936193287372589,-14.648859977722168,3.84765887260437
1781638892967237600,49.44123754882813,-3.1477582454681396,-6.6831536293029785,-2.840280532836914
1781638893025463300,49.49946337890625,-3.487539052963257,-16.480566024780273,-2.366501569747925
1781638893122506000,49.59650610351562,0.49172505736351013,-7.523034572601318,2.667997360229492
1781638893219549200,49.693549072265625,1.8352949619293213,-5.276174068450928,-0.26440688967704773
1781638893316591900,49.790591796875,-5.521438121795654,-17.45803451538086,2.0243279933929443
1781638893374817500,49.84881762695313,3.335594654083252,-11.212766647338867,4.810770034790039
1781638893471860200,49.94586010742187,-0.2919243574142456,-8.877371788024902,-0.9762716293334961
1781638893568903200,50.042903076171875,0.7465606927871704,-9.678967475891113,-4.085744857788086
1781638893665945900,50.13994580078125,-3.9948174953460693,-9.144171714782715,-0.6843472719192505
1781638893724171800,50.198171875,0.9678967595100403,-9.168100357055664,1.8735800981521606
1781638893821214500,50.29521435546875,2.1882362365722656,-8.915657043457031,1.511067509651184
1781638893937665800,50.41166577148437,-2.5782663822174072,-9.619147300720215,-2.5459632873535156
1781638894015300000,50.48930004882813,-2.7146573066711426,-14.578271865844727,-3.500699520111084
1781638894073525800,50.54752587890625,-4.695914268493652,-13.708480834960938,4.048655986785889
1781638894170568400,50.644568359375,1.1066805124282837,-6.14835786819458,-2.1296122074127197
1781638894267611400,50.741611328125,2.8151557445526123,-5.024927616119385,0.43190449476242065
1781638894325837000,50.799837158203125,-4.322634220123291,-14.560325622558594,2.7218358516693115
1781638894422879700,50.89687963867188,-5.450850009918213,-16.08455467224121,1.5936198234558105
1781638894519922700,50.99392260742187,-2.252842426300049,-11.277373313903809,-0.7106683254241943
1781638894616965400,51.09096533203125,0.6544370055198669,-5.4867424964904785,-1.3698909282684326
1781638894675191300,51.14919140625,-2.4119651317596436,-7.546962738037109,0.18305093050003052
1781638894772234000,51.24623388671875,-0.5946164131164551,-8.334200859069824,2.8630123138427734
1781638894869276700,51.34327661132812,0.9810572862625122,-12.096915245056152,2.944368362426758
1781638894927502300,51.40150244140625,-1.8544375896453857,-12.954741477966309,-0.714257538318634
1781638895024545300,51.498545166015624,-2.9718856811523438,-12.480962753295898,-1.726421594619751
1781638895121588000,51.595587890625,0.3170489966869354,-7.264609336853027,4.329812526702881
1781638895179813600,51.65381372070313,1.0600204467773438,-5.782256126403809,-0.8530412912368774
1781638895276856600,51.75085668945312,1.8233308792114258,-5.526223659515381,0.2847459018230438
1781638895373899300,51.847899169921874,0.7501499056816101,-20.77568244934082,0.8410771489143372
1781638895470942000,51.94494189453125,-3.6885361671447754,-12.65324592590332,-4.719842433929443
1781638895529167600,52.003167724609376,-1.5493526458740234,-8.154739379882812,-1.674975872039795
1781638895626210300,52.10021020507813,1.3256237506866455,-7.533802032470703,-3.0975089073181152
1781638895723253200,52.19725317382812,-2.0039889812469482,-10.25922679901123,0.7956135272979736
1781638895820296000,52.2942958984375,1.657029628753662,-6.563512325286865,2.6536402702331543
1781638895878521600,52.352521484375,1.7491533756256104,-13.088739395141602,2.5399811267852783
1781638895975564300,52.44956420898438,-2.825923442840576,-8.1224365234375,-1.4763715267181396
1781638896072607000,52.54660693359375,-3.6191442012786865,-19.769500732421875,0.11126625537872314
1781638896169649700,52.643649658203124,1.9824535846710205,-6.222535133361816,1.0636097192764282
1781638896227875600,52.70187548828125,1.2131611108779907,-5.985645771026611,-2.4837498664855957
1781638896324918300,52.79891821289063,3.9110686779022217,-5.5968122482299805,1.3316057920455933
1781638896421961000,52.8959609375,3.462414264678955,-11.639885902404785,5.30847692489624
1781638896480186600,52.9541865234375,-4.718646049499512,-14.910874366760254,-4.8227338790893555
1781638896577229600,53.0512294921875,-2.6081767082214355,-12.102896690368652,-1.100698471069336
1781638896674272300,53.148272216796876,-0.5563312768936157,-5.412564754486084,1.5625132322311401
1781638896732498000,53.206497802734376,-1.1676974296569824,-10.201799392700195,0.4618147611618042
1781638896829540600,53.30354052734375,1.1186445951461792,-8.541180610656738,3.6646077632904053
1781638896926583600,53.40058349609375,0.1746760457754135,-14.584254264831543,5.446064472198486
1781638897023626200,53.497626220703125,-2.376072883605957,-4.1730828285217285,-2.6356940269470215
1781638897081852000,53.555851806640625,-4.444668292999268,-20.55195426940918,-2.2229323387145996
1781638897178894600,53.65289453125,1.7312071323394775,-5.675775527954102,3.8524444103240967
1781638897275937300,53.74993725585937,1.6211373805999756,-7.362715244293213,-1.2346965074539185
1781638897372980000,53.84697998046875,-3.2793633937835693,-14.327025413513184,2.0159530639648438
1781638897431206000,53.905205810546875,3.6981074810028076,-13.87478256225586,4.76530647277832
1781638897528248600,54.00224853515625,-0.9308080077171326,-7.341179847717285,-0.2991028428077698
1781638897625291300,54.09929125976562,-0.13878370821475983,-8.394021987915039,-3.9457645416259766
1781638897683516700,54.1575166015625,-0.34217363595962524,-6.421139717102051,1.7324036359786987
1781638897780559400,54.25455932617187,-0.45224347710609436,-8.531609535217285,2.1607189178466797
1781638897877602300,54.351602294921875,3.510270833969116,-9.17288589477539,1.5708880424499512
1781638897974645000,54.44864501953125,-2.8689942359924316,-12.563515663146973,-3.014956474304199
1781638898032870700,54.50687060546875,-3.6837503910064697,-10.208977699279785,-1.423729419708252
1781638898129913300,54.60391333007812,-2.1343977451324463,-9.908679008483887,5.32403039932251
1781638898226956000,54.7009560546875,0.914058268070221,-6.643671989440918,-2.5567309856414795
1781638898323998700,54.797998779296876,3.2781670093536377,-4.6169514656066895,0.7992027401924133
1781638898382224400,54.856224365234375,0.09451649338006973,-16.5332088470459,-0.8350951075553894
1781638898479267000,54.95326708984375,-5.944967746734619,-17.17807388305664,-3.1106693744659424
1781638898576309800,55.05030981445312,-2.6452653408050537,-12.323036193847656,-2.823530673980713
1781638898634535400,55.10853540039062,-0.47976094484329224,-7.264609336853027,-3.45882511138916
1781638898731578000,55.205578125,-0.747757077217102,-11.01296615600586,-0.9762716293334961
1781638898828620800,55.302620849609376,0.9116654396057129,-7.741977691650391,3.675375461578369
1781638898925663500,55.39966357421875,-0.7549355626106262,-13.724034309387207,4.621737003326416
1781638898983889200,55.45788916015625,-1.5744773149490356,-6.619743824005127,-2.225325107574463
1781638899080931800,55.55493188476562,-4.770092010498047,-21.65983009338379,-3.269792079925537
1781638899177974500,55.651974609375,1.444068431854248,-6.179464340209961,2.365305185317993
1781638899236200200,55.7102001953125,1.4524433612823486,-6.240481376647949,-2.644068956375122
1781638899333243000,55.807242919921876,3.3128628730773926,-4.9292144775390625,1.3722838163375854
1781638899430285600,55.90428564453125,5.151747226715088,-11.92463207244873,4.859822750091553
1781638899527328300,56.00132836914062,0.02632104977965355,-7.944170951843262,-1.4572290182113647
1781638899585554000,56.05955395507812,-2.124826431274414,-11.736795425415039,-1.542174220085144
1781638899682596600,56.1565966796875,-0.6580262184143066,-5.071587562561035,0.8135597109794617
1781638899779639300,56.25363940429688,-0.21296121180057526,-8.660821914672852,1.4380863904953003
1781638899876682000,56.35068188476563,2.833101987838745,-9.053244590759277,0.9966106414794922
1781638899934907400,56.40890747070313,-1.0301101207733154,-15.572489738464355,4.204189300537109
1781638900031950000,56.5059501953125,-3.6191442012786865,-4.685146808624268,-0.14117653667926788
1781638900128993000,56.602992919921874,-2.7601208686828613,-16.37408447265625,1.3040883541107178
1781638900226035500,56.700035400390625,0.7561319470405579,-6.996613502502441,-0.007178467698395252
1781638900284261000,56.75826123046875,1.2646067142486572,-6.057430744171143,-1.9956140518188477
1781638900381303800,56.8553037109375,-3.4002010822296143,-11.316854476928711,2.772084951400757
1781638900478346500,56.95234643554687,-3.4468610286712646,-13.15095329284668,5.519045352935791
1781638900575389200,57.04938916015625,-1.6019947528839111,-7.323233604431152,-1.0636097192764282
1781638900633614800,57.10761474609375,-2.8737800121307373,-11.775080680847168,-4.18983268737793
1781638900730657500,57.204657470703125,-2.8498518466949463,-7.025327205657959,1.0707881450653076
1781638900827700000,57.30169995117188,0.22851456701755524,-6.2668023109436035,1.8185452222824097
1781638900885925600,57.359925537109376,2.368894338607788,-8.050651550292969,2.9204399585723877
1781638900982968300,57.45696826171875,-0.06340979784727097,-13.085150718688965,2.368894338607788
1781638901080011000,57.55401098632812,-3.1800613403320312,-8.6033935546875,-1.179661512374878
1781638901177053700,57.6510537109375,-1.215553879737854,-9.689735412597656,5.601597785949707
1781638901235279400,57.709279296875,0.7058826684951782,-6.811169624328613,2.372483730316162
1781638901332322000,57.80632202148438,1.892722725868225,-6.013163089752197,0.15553347766399384
1781638901429364500,57.90336450195313,-2.785245656967163,-19.106689453125,1.444068431854248
1781638901526407200,58.0004072265625,-6.007181167602539,-16.62533187866211,-3.012563705444336
1781638901584632800,58.0586328125,-0.6376872062683105,-7.3304123878479,-0.760917603969574
1781638901681675500,58.155675537109374,0.20937198400497437,-7.53140926361084,-4.295116424560547
1781638901778718200,58.25271826171875,-2.7517459392547607,-9.488738059997559,-1.867598056793213
1781638901836944000,58.31094384765625,0.7310073375701904,-7.465606689453125,3.5341989994049072
1781638901933986300,58.407986328125,1.4691931009292603,-12.06939697265625,0.4773681163787842
1781638902031029000,58.50502905273437,-2.1379871368408203,-10.38365364074707,-2.128415822982788
1781638902128071700,58.60207177734375,-3.4815568923950195,-16.869400024414062,-3.379862070083618
1781638902186297000,58.66029711914062,-2.2719850540161133,-10.597811698913574,6.2428741455078125
1781638902283339800,58.75733984375,0.8566305041313171,-6.613761901855469,-2.857030153274536
1781638902380382500,58.85438256835938,4.2006001472473145,-3.487539052963257,0.7657032608985901
1781638902477425000,58.9514248046875,6.833901405334473,-14.897713661193848,3.1381869316101074
1781638902535650600,59.00965063476563,-4.803591251373291,-16.2388916015625,-1.7934205532073975
1781638902632693200,59.106693359375,-2.1547367572784424,-11.022537231445312,-0.5694918036460876
1781638902729736000,59.20373583984375,0.4211367964744568,-6.405586242675781,-1.1473584175109863
1781638902787961300,59.26196142578125,-2.5052852630615234,-8.02193832397461,-0.8817551732063293
1781638902885004000,59.359004150390625,-0.4139583110809326,-7.106683254241943,2.8187451362609863
1781638902982046700,59.456046630859376,0.5443671345710754,-13.453645706176758,3.9158542156219482
1781638903079089400,59.55308935546875,-2.8283164501190186,-6.996613502502441,-2.3988046646118164
1781638903137314800,59.61131469726563,-2.5088746547698975,-13.831710815429688,-3.005385160446167
1781638903234357500,59.708357421875,-0.4007977843284607,-7.878368377685547,6.058627128601074
1781638903331400200,59.805400146484374,0.8901300430297852,-6.102894306182861,-2.149951219558716
1781638903389625900,59.8636259765625,2.210968017578125,-4.894518852233887,0.07178468257188797
1781638903486668300,59.960668212890624,2.0554347038269043,-19.940587997436523,-0.5383850932121277
1781638903583711000,60.0577109375,-3.744767427444458,-15.846467971801758,-5.86002254486084
1781638903680753700,60.15475366210938,-2.493321180343628,-13.325629234313965,-1.4847464561462402
1781638903738979000,60.21297900390625,0.30149564146995544,-6.714260101318359,-3.9290146827697754
1781638903797204700,60.27120483398438,-3.5988051891326904,-7.225128173828125,1.058824062347412
1781638903894247200,60.3682470703125,0.8183453679084778,-6.142375946044922,1.9812572002410889
1781638903991289900,60.46528979492187,1.8640087842941284,-11.343175888061523,0.14715859293937683
1781638904088332300,60.562332275390624,-2.1535403728485107,-10.62532901763916,-3.322434186935425
1781638904185375000,60.659375,-5.747560024261475,-21.511476516723633,-3.724428415298462
1781638904282417700,60.75641772460938,1.058824062347412,-5.79780912399292,2.6009981632232666
1781638904340643000,60.81464306640625,1.0791629552841187,-5.498706340789795,-3.710071563720703
1781638904437685800,60.91168579101563,3.363112211227417,-4.526023864746094,1.6055840253829956
1781638904534728400,61.008728515625,5.0464630126953125,-13.893924713134766,3.5641093254089355
1781638904631771000,61.10577099609375,0.4701896607875824,-8.169096946716309,-0.363709032535553
1781638904689996500,61.16399658203125,-1.1234302520751953,-11.662617683410645,-1.3555340766906738
1781638904787039200,61.261039306640626,0.6831508874893188,-6.126822471618652,1.2502498626708984
1781638904884081700,61.35808154296875,0.3529413342475891,-8.693124771118164,0.8063812255859375
1781638904981124400,61.45512426757813,2.084148406982422,-8.37009334564209,1.5302101373672485
1781638905039350000,61.51335009765625,-0.8470591902732849,-15.511472702026367,3.6741790771484375
1781638905136392400,61.61039233398437,-3.3655049800872803,-6.020341873168945,0.06819544732570648
1781638905233435100,61.70743505859375,-4.077369689941406,-17.370695114135742,0.9128618240356445
1781638905291660500,61.76566064453125,0.9954141974449158,-6.586244106292725,4.274777889251709
1781638905388703200,61.862703125,0.9595218896865845,-6.897311210632324,-2.132004976272583
1781638905485745700,61.95974560546875,2.788834810256958,-7.080362319946289,1.908276081085205
1781638905582788400,62.05678833007813,-1.1353943347930908,-15.276976585388184,4.037888050079346
1781638905641014000,62.11501391601563,-0.8566305041313171,-10.594222068786621,-0.6580262184143066
1781638905738056400,62.21205639648438,-1.552941918373108,-12.775279998779297,-2.9216363430023193
1781638905835099100,62.30909912109375,-0.8123632669448853,-6.4319071769714355,1.5230315923690796
1781638905932141600,62.4061416015625,-0.9942178130149841,-8.307880401611328,2.204986095428467
1781638905990367000,62.46436694335937,1.6163517236709595,-8.076972961425781,2.289931297302246
1781638906087409400,62.561409423828124,-1.0348957777023315,-16.029518127441406,2.633301258087158
1781638906184452400,62.65845239257813,-3.5880374908447266,-6.337390899658203,-1.0396814346313477
1781638906242677800,62.716677734375,-3.2578279972076416,-18.836299896240234,-3.1860432624816895
1781638906339720200,62.81372021484375,1.4871392250061035,-6.5491557121276855,2.878565549850464
1781638906436763000,62.91076293945312,1.5696916580200195,-6.297909259796143,-0.48454657196998596
1781638906533805300,63.00780541992187,0.007178467698395252,-14.081761360168457,2.3437697887420654
1781638906592031000,63.06603100585937,6.008377552032471,-12.836297035217285,3.8021950721740723
1781638906689073400,63.16307348632812,0.3768695592880249,-10.071390151977539,-1.389033555984497
1781638906786115800,63.26011572265625,-0.4450650215148926,-10.923234939575195,-4.460221290588379
1781638906883158300,63.357158203125,-3.4851462841033936,-7.750352382659912,-0.2548356056213379
1781638906941384000,63.415384033203125,1.4739787578582764,-8.489734649658203,1.1820544004440308
1781638907038426400,63.51242626953125,1.7001005411148071,-9.671789169311523,1.277767300605774
1781638907135468800,63.60946875,-2.1846470832824707,-12.392428398132324,-0.7238288521766663
1781638907193694500,63.66769458007813,-3.280559778213501,-6.033502101898193,-1.7276179790496826
1781638907290737000,63.76473681640625,-3.150151014328003,-15.824932098388672,2.999403238296509
1781638907387779300,63.861779296875,1.2394821643829346,-6.230910301208496,-0.7645068168640137
1781638907484822000,63.95882202148437,2.242074728012085,-5.14576530456543,0.4450650215148926
1781638907543047700,64.01704760742187,-1.9669002294540405,-11.6183500289917,3.1405797004699707
1781638907640090000,64.11409008789063,-4.843072891235352,-16.852649688720703,0.3170489966869354
1781638907737132500,64.21113256835937,-2.252842426300049,-10.053443908691406,0.05623133108019829
1781638907834175200,64.30817529296876,0.8733802437782288,-6.854240417480469,-1.4775680303573608
1781638907892400600,64.36640063476563,-1.490728497505188,-7.168896675109863,0.24406790733337402
1781638907989443000,64.46344311523437,-1.332802176475525,-8.35453987121582,2.5196423530578613
1781638908086485800,64.56048583984375,2.0315065383911133,-12.228520393371582,0.7417750358581543
1781638908144711200,64.61871118164062,-1.0061819553375244,-13.592429161071777,0.6340979933738708
1781638908241753600,64.71575366210938,-3.5018959045410156,-10.956734657287598,-2.042274236679077
1781638908338796000,64.81279614257812,-2.6392834186553955,-9.615557670593262,6.102894306182861
1781638908435838700,64.90983862304688,0.8219345808029175,-6.778866767883301,-2.3533411026000977
1781638908494064000,64.96806420898437,1.932204246520996,-5.787041664123535,-0.05024927482008934
1781638908591106600,65.0651064453125,-3.869194269180298,-18.805192947387695,2.035095691680908
1781638908688149200,65.16214916992188,-7.17368221282959,-18.861425399780273,-4.852644443511963
1781638908746374700,65.22037475585938,0.09810572862625122,-4.6887359619140625,-0.14715859293937683
1781638908843417000,65.3174169921875,1.6821542978286743,-7.720442295074463,-3.954139471054077
1781638908940459800,65.41445971679687,-2.7038896083831787,-10.797612190246582,0.06699903309345245
1781638909037502200,65.51150219726563,-0.31345975399017334,-6.345765590667725,1.1940184831619263
1781638909095727600,65.5697275390625,3.311666488647461,-11.45683479309082,1.659422516822815
1781638909192770000,65.66677001953126,-1.6187444925308228,-10.52363395690918,-2.3880369663238525
1781638909289812500,65.7638125,-4.273581027984619,-20.035104751586914,-4.817948341369629
1781638909348038000,65.82203784179687,-1.28255295753479,-10.475777626037598,6.5766730308532715
1781638909445080600,65.91908056640625,1.2299108505249023,-5.807380676269531,-3.348755359649658
1781638909542123000,66.016123046875,2.651247501373291,-5.344369411468506,0.47976094484329224
1781638909639165700,66.11316577148438,7.256234645843506,-13.47757339477539,3.5509488582611084
1781638909697391000,66.17139111328125,-4.218546390533447,-15.089139938354492,-2.3270199298858643
1781638909794433500,66.26843359375,-1.659422516822815,-11.68175983428955,-0.6281159520149231
1781638909891476000,66.36547607421875,0.763310432434082,-6.565905570983887,0.17706887423992157
1781638909988518400,66.46251831054687,-0.28953152894973755,-9.220742225646973,1.3830515146255493
1781638910046744000,66.520744140625,-0.10169496387243271,-7.033702373504639,2.251646041870117
1781638910143786500,66.61778637695312,0.13519448041915894,-13.195219993591309,3.0939197540283203
1781638910240829000,66.71482885742188,-3.387040376663208,-8.177471160888672,-0.4247260093688965
1781638910337871400,66.81187133789062,-2.5256242752075195,-16.786848068237305,-2.3605196475982666
1781638910396096800,66.8700966796875,-1.277767300605774,-9.214759826660156,5.535795211791992
1781638910493139200,66.96713916015625,0.8147560954093933,-6.954739093780518,-1.8819550275802612
1781638910590181600,67.064181640625,3.4923245906829834,-4.861019134521484,1.6845471858978271
1781638910648407000,67.12240698242188,-1.3806586265563965,-20.30070686340332,0.9391828775405884
1781638910745449700,67.21944970703125,-2.3605196475982666,-14.118849754333496,-4.811966419219971
1781638910842492000,67.31649194335938,-1.0432707071304321,-10.868200302124023,-0.3361915946006775
1781638910939534600,67.41353466796875,0.7417750358581543,-6.460621356964111,-0.8039883971214294
1781638910997760000,67.47176000976563,-2.0482561588287354,-9.546165466308594,-0.6628118753433228
1781638911094802400,67.56880249023438,1.3316057920455933,-6.8243303298950195,2.304288148880005
1781638911191844900,67.66584497070312,-0.40319061279296875,-14.781661987304688,1.5780665874481201
1781638911288887000,67.76288696289062,-2.5148565769195557,-8.408378601074219,-0.0323031060397625
1781638911347112700,67.82111279296875,-2.589034080505371,-10.15872859954834,-3.2937204837799072
1781638911444155100,67.91815502929687,-1.191625714302063,-8.878568649291992,6.032305717468262
1781638911541197600,68.01519750976563,1.3866406679153442,-6.771687984466553,-1.8149559497833252
1781638911599423000,68.07342309570312,1.8089739084243774,-6.051448345184326,-0.10289137065410614
1781638911696465400,68.17046533203126,-1.3663017749786377,-18.13161277770996,-0.09451649338006973
1781638911793507800,68.2675078125,-5.008177757263184,-13.549358367919922,-3.0376882553100586
1781638911890550300,68.36455029296874,-1.2610175609588623,-9.81535816192627,-0.3326023519039154
1781638911948775700,68.42277563476563,0.8195417523384094,-7.913064479827881,-4.115654945373535
1781638912045818400,68.519818359375,-2.2372891902923584,-10.206584930419922,-1.7168502807617188
1781638912142860500,68.61686059570313,1.196411371231079,-6.678368091583252,4.025924205780029
1781638912239903000,68.71390307617187,-0.8614161610603333,-14.282758712768555,3.8739798069000244
1781638912298128400,68.77212841796874,-1.7120646238327026,-11.309676170349121,-2.6775684356689453
1781638912395170800,68.8691708984375,-2.9874391555786133,-14.841482162475586,-2.6321048736572266
1781638912492213200,68.96621313476562,0.019142581149935722,-7.5673017501831055,5.093122959136963
1781638912550438700,69.02443872070313,0.519242525100708,-6.836294174194336,-1.8556339740753174
1781638912647481000,69.12148120117187,3.0424740314483643,-4.319045066833496,1.373480200767517
1781638912744523500,69.2185234375,7.909475326538086,-14.014761924743652,1.1174482107162476
1781638912880383000,69.35438305664063,-0.8602197170257568,-8.868997573852539,-0.7489534616470337
1781638912938608000,69.41260815429688,-2.3916261196136475,-11.079965591430664,-4.346562385559082
1781638912996833800,69.47083374023437,0.6771687865257263,-5.3934221267700195,-1.0480563640594482
1781638913093876200,69.56787622070313,0.5312066078186035,-9.558130264282227,-0.031106693670153618
1781638913190918400,69.66491845703125,0.7848458290100098,-6.941578388214111,2.803191661834717
1781638913249144000,69.72314404296876,0.4259224236011505,-16.278371810913086,2.974278450012207
1781638913346186500,69.8201865234375,-3.190829038619995,-7.300501823425293,-1.7288143634796143
1781638913443228700,69.91722875976562,-4.371686935424805,-18.465412139892578,-1.1880364418029785
1781638913501454000,69.9754541015625,-0.6089733839035034,-6.6006011962890625,5.540580749511719
1781638913598496500,70.07249658203125,1.3399807214736938,-6.740581512451172,-2.4406790733337402
1781638913695539000,70.1695390625,4.273581027984619,-6.0023956298828125,1.0348957777023315
1781638913792581400,70.26658129882813,1.29810631275177,-13.336397171020508,4.179064750671387
1781638913850806800,70.32480688476562,-2.86061954498291,-12.746565818786621,-3.1932218074798584
1781638913947849200,70.42184912109374,-2.472982168197632,-11.864810943603516,-2.6632115840911865
1781638914044891400,70.51889135742188,-1.0600204467773438,-7.052844524383545,1.9680966138839722
1781638914141933800,70.61593383789062,-0.6580262184143066,-7.573283672332764,1.6414763927459717
1781638914200159200,70.6741591796875,0.9882357716560364,-7.841279983520508,4.168296813964844
1781638914297201700,70.77120166015625,-0.8721838593482971,-16.559528350830078,3.460021495819092
1781638914394244000,70.868244140625,-3.799802303314209,-8.060222625732422,-2.9551360607147217
1781638914452469500,70.92646948242188,-2.933600664138794,-14.770894050598145,-3.7112679481506348
1781638914549511700,71.02351171875,1.26699960231781,-6.5288166999816895,3.1860432624816895
1781638914646554000,71.12055419921874,1.4763715267181396,-5.5692949295043945,-0.5551348328590393
1781638914743596500,71.21759643554688,-1.726421594619751,-11.703295707702637,2.778067111968994
1781638914801822000,71.27582202148437,4.340580463409424,-15.795022010803223,3.7639100551605225
1781638914898864400,71.37286450195313,-0.22612173855304718,-7.276573657989502,-0.19740787148475647
1781638914995906600,71.46990649414063,-1.3040883541107178,-9.546165466308594,-4.191029071807861
1781638915092949000,71.56694897460937,-2.3018953800201416,-7.610372543334961,0.27756741642951965
1781638915151174400,71.62517431640624,-0.6580262184143066,-8.219346046447754,2.018345832824707
1781638915248216600,71.72221655273438,2.124826431274414,-6.602993965148926,1.5804593563079834
1781638915345259000,71.81925903320312,-2.2468605041503906,-15.233905792236328,1.7647067308425903
1781638915403484400,71.877484375,-4.18863582611084,-8.909674644470215,1.0061819553375244
1781638915500526800,71.97452685546875,-4.012763500213623,-16.94597053527832,0.31106695532798767
1781638915597569000,72.07156909179687,1.8197416067123413,-5.9545392990112305,1.5050854682922363
1781638915694611200,72.16861108398437,2.1918256282806396,-5.929414749145508,-0.9403793215751648
1781638915752836900,72.2268369140625,2.9898319244384766,-6.452246189117432,1.1054840087890625
1781638915849879000,72.32387915039062,0.43908295035362244,-12.819547653198242,5.642275810241699
1781638915946921500,72.42092138671875,-0.2356930375099182,-7.0097737312316895,-1.0959128141403198
1781638916005147000,72.47914697265625,-3.1896326541900635,-11.669795989990234,-2.943171739578247
1781638916102189300,72.57618920898437,-1.7383856773376465,-6.26440954208374,1.7048860788345337
1781638916199231500,72.6732314453125,0.519242525100708,-7.884350776672363,2.2169501781463623
1781638916296274000,72.77027392578125,2.458625316619873,-9.945767402648926,0.4737788736820221
1781638916354499000,72.8284990234375,-0.9439685344696045,-15.381064414978027,4.882554531097412
1781638916451541500,72.92554150390625,-3.5952160358428955,-7.551748275756836,-1.2502498626708984
1781638916548584000,73.022583984375,-4.353740692138672,-13.371092796325684,6.308676719665527
1781638916645626000,73.11962622070313,1.1700903177261353,-5.710471153259277,-2.1272194385528564
1781638916703851500,73.1778515625,1.954936146736145,-6.473781585693359,-1.0001999139785767
1781638916800893700,73.27489379882813,-4.658825874328613,-15.946966171264648,1.817348837852478
1781638916897936100,73.37193603515625,-4.6540398597717285,-17.124235153198242,-1.8640087842941284
1781638916956161500,73.43016162109375,-1.3698909282684326,-6.423532485961914,1.4799607992172241
1781638917053203700,73.52720361328124,0.23449662327766418,-7.950153350830078,-4.304687976837158
1781638917150246100,73.62424609375,-2.493321180343628,-8.568697929382324,-0.31345975399017334
1781638917247288300,73.72128833007812,-0.5910272002220154,-7.29093074798584,1.1162517070770264
1781638917305513700,73.779513671875,4.724628448486328,-8.733802795410156,1.934597134590149
1781638917402556200,73.87655615234375,-2.379662036895752,-11.583654403686523,-1.6869399547576904
1781638917499598300,73.97359838867187,-3.1992039680480957,-15.245869636535645,-4.518845558166504
1781638917596640800,74.07064086914062,0.9774680733680725,-6.356533527374268,3.662214994430542
1781638917654866200,74.1288662109375,1.6534404754638672,-5.282155990600586,-1.6414763927459717
1781638917751908400,74.22590844726562,3.2470602989196777,-4.917250633239746,0.06939185410737991
1781638917848950800,74.32295068359375,6.725028038024902,-17.42094612121582,1.1330015659332275
1781638917907176000,74.38117602539063,-5.527420520782471,-16.84906005859375,-0.2069791555404663
1781638918004218000,74.47821801757813,-1.5828521251678467,-10.717453002929688,-1.29810631275177
1781638918101260500,74.57526049804687,1.1593226194381714,-6.52044153213501,-0.8542376756668091
1781638918198302700,74.672302734375,0.04307080805301666,-9.128618240356445,1.7096717357635498
1781638918256528100,74.73052807617188,-1.3782658576965332,-7.685746192932129,2.170290231704712
1781638918353570600,74.82757055664062,2.4993033409118652,-12.190235137939453,2.3844478130340576
1781638918450612700,74.92461279296874,-3.565305709838867,-9.192028045654297,-0.24646073579788208
1781638918547655000,75.02165502929688,-3.1585259437561035,-17.059629440307617,0.13639089465141296
1781638918605880300,75.07988037109375,-0.12323036789894104,-7.390232563018799,4.589433670043945
1781638918702922800,75.1769228515625,1.454836130142212,-5.949753284454346,-1.6462619304656982
1781638918799965000,75.27396484375,1.8532410860061646,-7.258627414703369,1.3627125024795532
1781638918858190300,75.3321904296875,4.941178798675537,-18.393627166748047,1.5290136337280273
1781638918955232500,75.429232421875,-2.9072794914245605,-12.232109069824219,-4.575077056884766
1781638919052275000,75.52627490234374,-2.324627161026001,-11.68295669555664,-2.981456995010376
1781638919149317000,75.62331713867188,-1.628315806388855,-6.7417778968811035,2.149951219558716
1781638919207542300,75.68154223632813,-0.9762716293334961,-10.277173042297363,0.5072783827781677
1781638919304584400,75.77858447265625,1.8317056894302368,-7.502695560455322,3.617947816848755
1781638919401627000,75.875626953125,-0.9906286001205444,-15.400206565856934,2.7397818565368652
1781638919498669300,75.97266943359375,-4.156332969665527,-9.126225471496582,-2.286342144012451
1781638919556894500,76.03089453125,-3.7292141914367676,-16.451852798461914,-2.063809633255005
1781638919653936600,76.1279365234375,1.8891334533691406,-5.539384365081787,2.528017044067383
1781638919750978800,76.22497875976562,1.6821542978286743,-6.273981094360352,-0.9487541913986206
1781638919809204200,76.28320434570313,4.231706619262695,-5.309673309326172,1.246660590171814
1781638919906246700,76.38024658203125,6.271588325500488,-12.839886665344238,4.82751989364624
1781638920003288800,76.47728881835937,0.97148597240448,-8.26839828491211,-2.7433712482452393
1781638920100331000,76.5743310546875,-0.6041877269744873,-11.242676734924316,-4.106083869934082
1781638920158556400,76.63255639648438,0.8039883971214294,-5.862415313720703,0.3936193287372589
1781638920255598600,76.7295986328125,0.5252245664596558,-8.535198211669922,2.094916343688965
1781638920352640800,76.82664086914062,2.7050859928131104,-7.957331657409668,1.3459627628326416
1781638920449683200,76.92368310546875,-1.4333007335662842,-13.59482192993164,0.9379864931106567
1781638920507908400,76.98190844726562,-4.110869407653809,-7.138986587524414,0.5168496966362
1781638920604950500,77.07895043945312,-4.901697158813477,-16.503297805786133,2.7936203479766846
1781638920701993000,77.17599291992188,1.4009976387023926,-5.801398277282715,-0.02512463741004467
1781638920799035100,77.27303515625,2.6225335597991943,-5.633901119232178,-0.7525427341461182
1781638920857260300,77.33126025390625,-0.6424728631973267,-10.25324535369873,3.0101709365844727
1781638920954302500,77.42830249023437,-0.7776673436164856,-12.863814353942871,6.7106709480285645
1781638921051344600,77.5253447265625,-0.0526420995593071,-6.358926296234131,-1.794616937637329
1781638921109570000,77.58357006835938,-3.266202926635742,-11.883954048156738,-2.541177749633789
1781638921206612500,77.68061254882812,-3.1896326541900635,-6.601797580718994,1.0001999139785767
1781638921303654700,77.77765454101562,1.1473584175109863,-7.412964344024658,2.9383862018585205
1781638921400696800,77.87469677734374,2.355733871459961,-10.231709480285645,-0.6951149702072144
1781638921458922200,77.93292211914063,-1.4739787578582764,-15.527026176452637,2.589034080505371
1781638921555964400,78.02996435546875,-3.737588882446289,-8.37966537475586,-2.719442844390869
1781638921653006600,78.12700659179687,-4.223331928253174,-11.935399055480957,6.990631580352783
1781638921750048800,78.224048828125,1.2789636850357056,-6.208178520202637,-2.550748825073242
1781638921808274000,78.28227392578125,2.4765713214874268,-5.976074695587158,-1.3088740110397339
1781638921905316000,78.37931616210938,-4.208974838256836,-21.512672424316406,2.183450698852539
1781638922002358500,78.47635864257812,-5.103890895843506,-14.446666717529297,-2.825923442840576
1781638922060583700,78.53458374023438,-0.46420758962631226,-6.8410797119140625,-0.5252245664596558
1781638922157625900,78.6316259765625,0.8015955686569214,-8.349754333496094,-3.82373046875
1781638922254668000,78.72866796875,-3.1417760848999023,-9.42891788482666,-0.22013968229293823
1781638922351710200,78.82571020507812,1.568495273590088,-7.584051132202148,3.34995174407959
1781638922409935600,78.883935546875,1.2610175609588623,-10.85025405883789,-0.02153540402650833
1781638922506977800,78.98097778320313,-2.2097716331481934,-11.135000228881836,-1.1018948554992676
1781638922604020000,79.07802001953125,-3.737588882446289,-15.956538200378418,-4.884947299957275
1781638922701062100,79.17506225585937,1.8185452222824097,-6.247660160064697,4.584648132324219
1781638922759287600,79.23328759765624,0.24287149310112,-6.281159400939941,-2.117648124694824
1781638922856329700,79.33032983398438,3.9493536949157715,-4.213760852813721,0.9858429431915283
1781638922953371600,79.42737158203126,5.824130535125732,-15.394224166870117,3.6155550479888916
1781638923050413800,79.52441381835938,-0.8697910308837891,-12.878171920776367,-3.6885361671447754
1781638923108639000,79.58263891601563,-0.8446664214134216,-8.39282512664795,0.08255238085985184
1781638923205681200,79.67968115234375,0.6795616149902344,-5.8612189292907715,-1.8604196310043335
1781638923302723600,79.7767236328125,0.09451649338006973,-9.641879081726074,1.5840486288070679
1781638923360948700,79.83494873046875,0.3900300860404968,-6.184250354766846,1.963310956954956
1781638923457991000,79.93199096679687,-1.6295121908187866,-15.810575485229492,4.743771076202393
1781638923555033000,80.029033203125,-2.9359934329986572,-5.959324836730957,-0.08135596662759781
1781638923613258500,80.08725854492188,-2.555534601211548,-12.616157531738281,-4.376472473144531
1781638923710300700,80.18430078125,-0.23330020904541016,-7.674978733062744,6.392425537109375
1781638923807342800,80.2813427734375,1.8508483171463013,-6.98704195022583,-3.4061830043792725
1781638923904384800,80.378384765625,2.6177480220794678,-7.320840835571289,1.0564311742782593
1781638923962610200,80.43661010742187,4.735395908355713,-18.632909774780273,0.8685946464538574
1781638924059652400,80.53365234375,-3.077169895172119,-14.445469856262207,-5.838487148284912
1781638924156694500,80.63069458007813,-1.9310078620910645,-12.498908996582031,-1.9884356260299683
1781638924253736700,80.72773681640625,-1.7778671979904175,-6.763313293457031,1.4069796800613403
1781638924311961900,80.7859619140625,-0.5563312768936157,-9.142974853515625,0.8207381963729858
1781638924409003800,80.88300366210937,1.867598056793213,-9.396614074707031,2.328216314315796
1781638924506046000,80.9800458984375,0.0323031060397625,-15.783058166503906,3.9038901329040527
1781638924564271400,81.03827124023438,-2.7768707275390625,-9.489934921264648,-1.8041882514953613
1781638924661313500,81.1353134765625,-4.668396949768066,-18.515661239624023,-3.260220766067505
1781638924758355700,81.23235571289062,1.1928220987319946,-5.771488189697266,3.152543783187866
1781638924855397600,81.32939770507812,1.703689694404602,-6.273981094360352,-1.4584254026412964
1781638924913623000,81.387623046875,4.569094657897949,-3.7160534858703613,1.3160524368286133
1781638925010665200,81.48466528320313,6.585047721862793,-12.90927791595459,3.221935749053955
1781638925107707400,81.58170727539063,0.4749752879142761,-9.869196891784668,-1.7515461444854736
1781638925204749300,81.67874926757813,-1.4249259233474731,-10.576275825500488,-4.202992916107178
1781638925262974700,81.736974609375,0.8757730722427368,-6.075376510620117,-0.7992027401924133
1781638925360017000,81.83401684570312,-0.01196411345154047,-9.45045280456543,2.1547367572784424
1781638925457059000,81.93105908203125,3.562912940979004,-7.458428382873535,1.8891334533691406
1781638925515284200,81.9892841796875,-0.9690931439399719,-14.510076522827148,4.442275047302246
1781638925612326100,82.086326171875,-3.851248025894165,-4.734199523925781,-1.2646067142486572
1781638925709368300,82.18336840820312,-3.7543387413024902,-17.07757568359375,-0.13040883839130402
1781638925806410500,82.28041040039062,1.8628123998641968,-6.685546398162842,-0.2907279431819916
1781638925864635600,82.3386357421875,1.4895321130752563,-6.952346324920654,-2.1571295261383057
1781638925961677800,82.435677734375,-0.015553346835076809,-9.215956687927246,3.7543387413024902
1781638926058720000,82.53271997070313,-1.031306505203247,-12.933206558227539,2.5387847423553467
1781638926155762000,82.62976196289063,0.04187439754605293,-7.09711217880249,-0.25244277715682983
1781638926213987300,82.6879873046875,-2.414358139038086,-11.485548973083496,-3.600001573562622
1781638926311029500,82.78502954101563,-3.6358940601348877,-7.194021224975586,1.5481562614440918
1781638926408071400,82.88207153320313,1.454836130142212,-7.319644451141357,2.699103832244873
1781638926466296600,82.94029663085938,2.7278177738189697,-7.0301127433776855,2.8689942359924316
1781638926563338800,83.0373388671875,-1.4404792785644531,-14.508879661560059,0.5635097622871399
1781638926660381000,83.134380859375,-3.1405797004699707,-9.773484230041504,-2.572284460067749
1781638926757423000,83.23142309570312,-2.118844509124756,-10.784451484680176,6.122036933898926
1781638926815648300,83.28964819335937,1.6522440910339355,-6.009573936462402,0.7034898400306702
1781638926912690200,83.38669018554687,1.8508483171463013,-5.879165172576904,-0.1256231814622879
1781638927009732400,83.483732421875,-3.7196428775787354,-19.435701370239258,2.3844478130340576
1781638927106774500,83.5807744140625,-4.784449100494385,-15.193227767944336,-2.837887763977051
1781638927164999700,83.63899975585937,-0.9463613629341125,-5.897111415863037,-0.16869398951530457
1781638927262041900,83.73604174804687,0.9882357716560364,-9.122636795043945,-5.6446685791015625
1781638927359083800,83.83308374023437,-2.4741785526275635,-10.39202880859375,-0.6484549641609192
1781638927456126000,83.9301259765625,0.15074782073497772,-8.264809608459473,4.096512317657471
1781638927514351000,83.98835107421876,2.493321180343628,-9.761520385742188,-0.3732803463935852
1781638927611393300,84.08539331054688,-0.9559326171875,-11.72004508972168,-0.98703932762146
1781638927708435200,84.18243530273438,-2.3605196475982666,-11.882757186889648,-3.59043025970459
1781638927766660400,84.24066040039062,-4.427918434143066,-17.07757568359375,2.801995277404785
1781638927863702500,84.33770263671875,0.7645068168640137,-6.9344000816345215,0.08374879509210587
1781638927960744400,84.43474438476562,1.3028919696807861,-5.485546112060547,-0.33858439326286316
1781638928057786600,84.53178662109374,1.755135416984558,-19.835302352905273,1.5433706045150757
1781638928116012000,84.59001196289063,-1.042074203491211,-14.342578887939453,2.025524377822876
1781638928213054000,84.68705395507813,0.1950150430202484,-6.415157318115234,0.7046862840652466
1781638928310096100,84.78409619140625,0.9750752449035645,-7.499105930328369,-3.0305099487304688
1781638928407138000,84.88113793945313,-1.301695466041565,-9.840482711791992,-0.4905286431312561
1781638928465363200,84.93936328125,2.007578134536743,-6.976274490356445,3.8021950721740723
1781638928562405400,85.0364052734375,1.7527425289154053,-13.334004402160645,-2.0315065383911133
1781638928659447300,85.133447265625,-2.431107759475708,-9.755537986755371,0.8219345808029175
1781638928756489500,85.23048950195313,-3.363112211227417,-17.05484390258789,-4.120440483093262
1781638928814714600,85.28871459960938,-2.1308085918426514,-9.535398483276367,5.903093338012695
1781638928911756800,85.3857568359375,1.7371892929077148,-6.262016773223877,-2.3545374870300293
1781638929008798700,85.482798828125,4.085744857788086,-4.767699241638184,1.31365966796875
1781638929067024000,85.54102392578125,0.7932206988334656,-19.87957000732422,1.4991034269332886
1781638929164066000,85.63806616210937,-4.089334011077881,-16.346567153930664,-5.874379634857178
1781638929261108000,85.73510791015624,-1.222732424736023,-11.046465873718262,0.1698904037475586
1781638929358150000,85.83214990234374,-0.137587308883667,-6.081358909606934,0.97148597240448
1781638929416375300,85.89037524414063,-1.6522440910339355,-9.591629981994629,-0.3326023519039154
1781638929513417500,85.98741748046875,1.3148560523986816,-7.746763229370117,4.565505504608154
1781638929610459400,86.08445947265625,-1.0791629552841187,-15.816557884216309,4.001996040344238
1781638929707501300,86.18150122070313,-4.508078098297119,-6.515655994415283,-1.1413763761520386
1781638929765726500,86.2397265625,-2.9144580364227295,-14.650056838989258,-3.4683964252471924
1781638929862768600,86.3367685546875,0.6771687865257263,-7.170093059539795,5.018945693969727
1781638929959810600,86.433810546875,1.1617153882980347,-6.368497371673584,-1.7718851566314697
1781638930018035700,86.49203564453126,3.1345977783203125,-4.622933387756348,1.1054840087890625
1781638930115078000,86.58907788085938,7.684549808502197,-13.9453706741333,2.5471596717834473
1781638930212119800,86.68611987304688,-2.4717857837677,-11.431710243225098,-2.2600209712982178
1781638930309161700,86.78316162109375,-2.0446670055389404,-11.804990768432617,-3.7220356464385986
1781638930367387100,86.84138720703125,0.1495514214038849,-6.551548480987549,-1.3052847385406494
1781638930464429000,86.93842895507812,1.0360921621322632,-9.670592308044434,0.8123632669448853
1781638930561471000,87.03547094726562,2.122433662414551,-7.843672752380371,0.867398202419281
1781638930658513200,87.13251318359374,-1.3232308626174927,-12.607782363891602,0.3900300860404968
1781638930716738300,87.19073828125,-3.7232320308685303,-6.92482852935791,-0.6149554252624512
1781638930813780200,87.2877802734375,-4.256831645965576,-16.558332443237305,2.029113531112671
1781638930910822400,87.38482250976563,1.8305093050003052,-7.000202655792236,-0.5359922647476196
1781638930969047300,87.44304736328125,0.9056833982467651,-7.762316703796387,-1.5146567821502686
1781638931066089500,87.54008935546875,0.5431707501411438,-7.814958572387695,2.344966173171997
1781638931163131600,87.63713159179687,0.8482556343078613,-13.04088306427002,4.96630334854126
1781638931260173600,87.73417358398437,-1.4524433612823486,-7.4847493171691895,0.3314059376716614
1781638931318398700,87.79239868164062,-1.3232308626174927,-10.29751205444336,-2.3222343921661377
1781638931415440600,87.88944067382812,-0.486939400434494,-7.062416076660156,1.0719845294952393
1781638931512482600,87.98648266601562,-0.22372891008853912,-8.933603286743164,2.4323041439056396
1781638931570707700,88.04470776367188,0.8231309652328491,-8.00518798828125,2.3437697887420654
1781638931667750000,88.14175,-0.900897741317749,-14.45743465423584,3.4504501819610596
1781638931764791800,88.23879174804688,-3.882354736328125,-5.923432350158691,-0.3086741268634796
1781638931861833700,88.33583374023438,-3.6263227462768555,-14.645271301269531,2.7589244842529297
1781638931920059100,88.39405908203125,2.3150558471679688,-5.942574977874756,4.95074987411499
1781638932017101000,88.49110107421875,1.5541383028030396,-7.832904815673828,-1.9310078620910645
1781638932114143000,88.58814306640625,-3.0101709365844727,-11.469995498657227,3.4229328632354736
1781638932211185200,88.68518505859375,-1.8113667964935303,-12.20937728881836,3.4947173595428467
1781638932269410000,88.74341015625,-1.6737794876098633,-13.343575477600098,-2.909672260284424
1781638932366452000,88.84045190429687,-2.410768747329712,-12.772887229919434,-3.9385859966278076
1781638932463494000,88.93749389648437,-3.7016966342926025,-7.829315662384033,0.8087740540504456
1781638932521719300,88.99571923828125,0.7980063557624817,-9.69093132019043,0.760917603969574
1781638932618761200,89.09276123046875,2.2337000370025635,-7.482356548309326,2.926422119140625
1781638932715803100,89.18980322265625,-1.9010975360870361,-13.657034873962402,0.8350951075553894
1781638932812845000,89.28684497070313,-3.0317063331604004,-11.47956657409668,-4.701896667480469
1781638932871070200,89.3450703125,-3.4755749702453613,-14.782857894897461,1.887937068939209
1781638932968112400,89.4421123046875,1.074377417564392,-6.671189308166504,-0.7310073375701904
1781638933065154300,89.539154296875,2.1020946502685547,-5.711667537689209,0.11605189740657806
1781638933162196200,89.6361962890625,-2.218146562576294,-18.839889526367188,0.9451649188995361
1781638933220421400,89.69442138671874,1.3411771059036255,-11.606386184692383,5.699703693389893
1781638933317463300,89.79146337890624,-0.7525427341461182,-9.213563919067383,-1.1485549211502075
1781638933414505200,89.88850512695312,0.9379864931106567,-9.468399047851562,-4.974678039550781
1781638933472730600,89.94673071289063,-1.8711873292922974,-6.850651264190674,1.2299108505249023
1781638933569772500,90.0437724609375,1.195214867591858,-7.525427341461182,1.8580267429351807
1781638933666814500,90.140814453125,2.2671995162963867,-10.534401893615723,0.5431707501411438
1781638933763856400,90.2378564453125,-1.7240287065505981,-12.516855239868164,-0.23449662327766418
1781638933822081500,90.29608154296875,-3.6681971549987793,-6.2500529289245605,-2.4370899200439453
1781638933919123500,90.39312353515625,-4.482953071594238,-15.353546142578125,3.8057844638824463
1781638934016165400,90.49016528320313,0.5670989751815796,-7.160521984100342,-1.6450655460357666
1781638934113207600,90.58720751953125,2.7840490341186523,-5.37906551361084,0.9092726111412048
1781638934171432400,90.64543237304687,-4.351347923278809,-12.63171100616455,3.4504501819610596
1781638934268474600,90.742474609375,-2.3162522315979004,-14.2456693649292,2.541177749633789
1781638934365516500,90.8395166015625,-1.3627125024795532,-7.940581798553467,-0.4127618968486786
1781638934423741700,90.89774169921876,-2.724228620529175,-11.438888549804688,-3.476771354675293
1781638934520783600,90.99478369140625,-3.291327476501465,-7.908278942108154,0.9810572862625122
1781638934617825500,91.09182543945313,0.25363919138908386,-6.67717170715332,0.9379864931106567
1781638934714867500,91.18886743164063,2.5471596717834473,-10.721041679382324,1.3627125024795532
1781638934773092600,91.24709252929688,-1.8137595653533936,-15.208780288696289,3.372683525085449
1781638934870134500,91.34413452148438,-2.999403238296509,-6.792026996612549,-2.7601208686828613
1781638934967176400,91.44117651367188,-3.8703906536102295,-13.416556358337402,5.341976642608643
1781638935025401600,91.49940161132812,1.389033555984497,-6.401997089385986,2.651247501373291
1781638935122443500,91.59644360351562,1.2550355195999146,-6.4115681648254395,-0.8709874153137207
1781638935219485400,91.6934853515625,-4.466203689575195,-16.546367645263672,2.121237277984619
1781638935316527400,91.79052734375,-4.790431022644043,-15.940984725952148,-2.2947168350219727
1781638935374752500,91.84875244140625,-0.592223584651947,-7.051648139953613,-0.2225325107574463
1781638935471794400,91.94579443359375,0.0526420995593071,-8.982656478881836,-4.096512317657471
1781638935568836400,92.04283642578125,-2.981456995010376,-9.432506561279297,-0.5563312768936157
1781638935665878300,92.13987817382812,-0.013160524889826775,-8.554341316223145,3.7232320308685303
1781638935724103400,92.198103515625,2.9168508052825928,-8.304290771484375,-0.3314059376716614
1781638935821145300,92.29514526367187,-1.908276081085205,-12.149557113647461,-2.2612173557281494
1781638935918187300,92.39218725585937,-2.854637384414673,-15.333207130432129,-3.6993038654327393
1781638935976412400,92.45041235351563,-4.729413986206055,-14.000405311584473,4.797609329223633
1781638936073454300,92.54745434570313,0.8817551732063293,-6.6149582862854,-2.874976396560669
1781638936170496300,92.64449633789063,2.6632115840911865,-5.5728840827941895,1.1928220987319946
1781638936267538200,92.7415380859375,5.656632900238037,-16.392030715942383,0.9822536706924438
1781638936325763300,92.79976342773438,-4.152743816375732,-12.827921867370605,0.8482556343078613
1781638936422805200,92.89680517578125,0.3445664644241333,-4.9639105796813965,1.0372886657714844
1781638936519847200,92.99384716796875,-0.26560330390930176,-6.966702938079834,-4.31306266784668
1781638936616889000,93.09088916015625,0.7848458290100098,-10.065408706665039,1.0492527484893799
1781638936675114200,93.1491142578125,1.1078768968582153,-6.745367050170898,3.9278182983398438
1781638936772156200,93.24615625,1.5122638940811157,-12.844672203063965,0.6819544434547424
1781638936908014600,93.3820146484375,-4.481756687164307,-7.1988067626953125,-1.6606189012527466
1781638936966240000,93.44023999023437,-3.731606960296631,-15.364314079284668,-4.555934429168701
1781638937024465000,93.49846484375,-1.3028919696807861,-10.411170959472656,6.69990348815918
1781638937121506800,93.5955068359375,2.152343988418579,-7.7455668449401855,-4.901697158813477
1781638937218549000,93.69254907226562,3.7471601963043213,-4.8227338790893555,1.26699960231781
1781638937276774000,93.75077392578125,0.2835494875907898,-17.84447479248047,1.8269200325012207
1781638937373815800,93.84781591796875,-6.850651264190674,-16.540386199951172,-2.912065267562866
1781638937470857700,93.94485766601562,-0.5228317379951477,-5.820540904998779,0.8063812255859375
1781638937567899600,94.04189965820312,-1.592423439025879,-6.200999736785889,-1.592423439025879
1781638937626124800,94.10012475585937,-0.38763725757598877,-10.024730682373047,2.0027925968170166
1781638937723166700,94.19716674804687,-0.8374879360198975,-8.514859199523926,1.7252250909805298
1781638937820208600,94.29420874023438,-0.015553346835076809,-14.300704956054688,3.1381869316101074
1781638937917250600,94.39125048828124,-4.287938117980957,-6.530013084411621,-0.019142581149935722
1781638937975475500,94.44947534179687,-2.6117658615112305,-11.196017265319824,-4.291527271270752
1781638938072517400,94.54651733398437,2.1343977451324463,-7.396214962005615,5.029713153839111
1781638938169559300,94.64355932617187,1.7024933099746704,-7.392625331878662,-2.8283164501190186
1781638938227784400,94.70178442382813,2.2396819591522217,-5.960521221160889,0.711864709854126
1781638938324826400,94.79882641601563,5.424529075622559,-17.095521926879883,-0.851844847202301
1781638938421868300,94.89586840820313,-3.8213376998901367,-13.447663307189941,-2.3497519493103027
1781638938518910000,94.99290991210937,-2.8354947566986084,-10.810772895812988,-3.091526746749878
1781638938577135400,95.05113525390625,0.6999006271362305,-6.537191390991211,-1.5469598770141602
1781638938674177300,95.14817724609375,-1.0755738019943237,-10.170692443847656,0.12203395366668701
1781638938771219000,95.24521899414063,2.8319056034088135,-6.228517532348633,4.996213912963867
1781638938868260900,95.3422607421875,-1.34476637840271,-14.870196342468262,2.100898265838623
1781638938926486000,95.40048608398438,-2.5112674236297607,-6.7106709480285645,-1.7395820617675781
1781638939023528000,95.49752783203125,-3.6155550479888916,-19.288543701171875,0.27756741642951965
1781638939120569600,95.59456958007813,1.317248821258545,-6.7896342277526855,1.1377872228622437
1781638939217611800,95.69161181640625,1.8245272636413574,-5.850451469421387,0.22013968229293823
1781638939275836700,95.74983666992188,2.2779672145843506,-5.918646812438965,2.7553353309631348
1781638939372878600,95.84687866210938,2.6452653408050537,-10.908878326416016,3.8428730964660645
1781638939469920500,95.94392041015625,-0.16390834748744965,-7.859225749969482,-1.3567304611206055
1781638939528145700,96.00214575195312,-2.4849462509155273,-10.8969144821167,-0.2021935135126114
1781638939625187600,96.0991875,-1.2717852592468262,-5.8719868659973145,1.7766708135604858
1781638939722229200,96.19622924804688,1.0456634759902954,-7.7216386795043945,1.9968105554580688
1781638939819271200,96.29327124023438,2.2265214920043945,-11.101500511169434,0.2679961323738098
1781638939877496300,96.35149633789062,-1.6055840253829956,-14.583057403564453,4.386044025421143
1781638939974538000,96.4485380859375,-3.7603209018707275,-5.309673309326172,-2.586641311645508
1781638940071580000,96.54557983398438,-4.198207378387451,-13.902299880981445,3.3332018852233887
1781638940129805000,96.60380517578125,1.4811571836471558,-6.733402729034424,3.294916868209839
1781638940226847000,96.70084692382812,1.160519003868103,-7.255038261413574,-0.8075776696205139
1781638940323889000,96.79788891601562,-3.3583266735076904,-12.678370475769043,3.497110366821289
1781638940420930600,96.8949306640625,-5.016552448272705,-13.652249336242676,1.9166508913040161
1781638940479155700,96.95315576171875,-0.16510476171970367,-10.096514701843262,-0.41156548261642456
1781638940576197600,97.05019775390625,-0.9762716293334961,-9.5533447265625,-4.701896667480469
1781638940673239600,97.14723950195312,-3.7603209018707275,-8.84506893157959,1.1569297313690186
1781638940770281200,97.24428125,-0.49172505736351013,-6.8482584953308105,2.2097716331481934
1781638940828506400,97.30250634765625,2.801995277404785,-7.389036178588867,1.568495273590088
1781638940925548000,97.39954809570312,-1.6534404754638672,-14.95394515991211,0.973878800868988
1781638941022590000,97.49658984375,-2.8725836277008057,-8.256434440612793,-4.514060020446777
1781638941119632000,97.5936318359375,-3.1621150970458984,-12.308679580688477,7.401000499725342
1781638941177857000,97.65185693359375,1.7910277843475342,-6.375676155090332,-0.3326023519039154
1781638941274898700,97.74889868164063,2.0159530639648438,-6.510870456695557,0.28953152894973755
1781638941371940600,97.84594067382812,-2.7517459392547607,-16.423137664794922,2.851048231124878
1781638941430165800,97.90416577148437,1.7359927892684937,-15.517455101013184,3.803391695022583
1781638941527207700,98.00120776367187,-2.3916261196136475,-8.410771369934082,-0.7393822073936462
1781638941624249300,98.09824926757813,0.4307080805301666,-7.781459331512451,-3.373879909515381
1781638941721291300,98.19529125976563,-2.187039852142334,-8.481359481811523,-0.6939185857772827
1781638941779516200,98.25351611328125,-0.1782652884721756,-7.4500532150268555,1.6773686408996582
1781638941876558000,98.35055810546875,3.146561861038208,-8.61057186126709,0.37806597352027893
1781638941973599700,98.44759985351563,-1.9058831930160522,-13.47159194946289,-2.3473589420318604
1781638942070642000,98.54464184570313,-2.3473589420318604,-13.256237030029297,-4.096512317657471
1781638942128866800,98.60286669921875,-4.893322467803955,-14.839089393615723,5.288137912750244
1781638942225908700,98.69990869140625,0.9332008361816406,-6.040680885314941,-2.311466693878174
1781638942322950400,98.79695043945313,2.2671995162963867,-4.955535888671875,0.8123632669448853
1781638942381175600,98.85517553710937,-2.7218358516693115,-12.500105857849121,3.5856447219848633
1781638942478217500,98.95221752929687,-4.543970108032227,-15.52224063873291,1.6654045581817627
1781638942575259100,99.04925903320313,-1.4344971179962158,-7.954938888549805,-0.21774685382843018
1781638942672301000,99.14630102539063,1.828116536140442,-6.385247230529785,-2.038684844970703
1781638942730526000,99.20452587890625,-4.4650068283081055,-8.105687141418457,1.5996019840240479
1781638942827567900,99.30156787109375,0.5802595019340515,-7.568498134613037,1.919043779373169
1781638942924609500,99.39860961914063,0.8602197170257568,-12.058629989624023,-1.6235301494598389
1781638943021651500,99.4956513671875,-1.333998680114746,-9.80937671661377,-1.667797327041626
1781638943079876600,99.55387670898438,-2.8737800121307373,-7.447660446166992,-0.08374879509210587
1781638943176918300,99.65091821289063,-1.8221344947814941,-11.431710243225098,4.78803825378418
1781638943273960200,99.74796020507813,1.215553879737854,-7.055237770080566,-3.6921253204345703
1781638943332185300,99.80618530273438,1.1150553226470947,-6.232106685638428,-1.384247899055481
1781638943429227000,99.90322705078125,-3.5126636028289795,-16.031911849975586,1.7599210739135742
1781638943526268700,100.0002685546875,-4.433900356292725,-17.07757568359375,-2.720639228820801
1781638943623310600,100.097310546875,-1.667797327041626,-10.73539924621582,-1.0205388069152832
1781638943681535500,100.15553540039062,0.16271193325519562,-7.607979774475098,-3.586841106414795
1781638943778577400,100.25257739257812,-1.8149559497833252,-8.37727165222168,-0.5443671345710754
1781638943875619000,100.349619140625,-0.31465616822242737,-7.549355506896973,2.5256242752075195
1781638943972661000,100.44666088867187,-0.5730810165405273,-14.364114761352539,3.1202406883239746
1781638944030886000,100.50488598632812,-1.825723648071289,-13.302897453308105,-1.9908283948898315
1781638944127927800,100.601927734375,-3.6670007705688477,-13.649856567382812,-4.764110088348389
1781638944224969500,100.69896948242187,1.4620146751403809,-6.567101955413818,6.147161483764648
1781638944283194600,100.75719458007812,1.674975872039795,-6.617351055145264,-3.9349968433380127
1781638944380236500,100.85423657226562,2.5423741340637207,-5.5034918785095215,0.8757730722427368
1781638944477278200,100.9512783203125,5.240281581878662,-17.202001571655273,0.6221339106559753
1781638944613137000,101.08713696289063,-0.7968099117279053,-4.804787635803223,-0.7154539823532104
1781638944671361800,101.14536181640625,-1.9728822708129883,-13.563714981079102,-3.205185890197754
1781638944729586700,101.20358666992188,-0.22013968229293823,-5.684150218963623,-1.3758729696273804
1781638944826628600,101.30062866210938,0.7800601720809937,-9.798608779907227,1.2370892763137817
1781638944884853800,101.35885375976562,-0.6795616149902344,-6.918846607208252,1.94297194480896
1781638944981895400,101.4558955078125,-1.415354609489441,-14.700305938720703,3.617947816848755
1781638945078937000,101.55293701171875,-3.0927233695983887,-7.216753005981445,-1.191625714302063
1781638945175978800,101.64997875976563,-4.147958278656006,-18.083757400512695,-2.1858434677124023
1781638945234204000,101.70820385742188,1.2550355195999146,-7.366304397583008,6.394818305969238
1781638945331245800,101.80524584960938,1.597209095954895,-6.736992359161377,-3.2997024059295654
1781638945428287500,101.90228759765625,1.856830358505249,-6.138786315917969,2.991028308868408
1781638945525329200,101.9993291015625,2.8390841484069824,-12.768101692199707,3.889533281326294
1781638945583554300,102.05755419921876,-3.9385859966278076,-14.81396484375,-5.174479007720947
1781638945680596000,102.15459594726562,-1.7431713342666626,-11.105090141296387,-1.7527425289154053
1781638945777637600,102.2516376953125,-0.6484549641609192,-6.631708145141602,1.215553879737854
1781638945835862800,102.30986279296874,-0.2153540402650833,-10.405189514160156,0.7968099117279053
1781638945932904400,102.40690454101562,0.8374879360198975,-7.17368221282959,1.2873386144638062
1781638946029946400,102.5039462890625,-0.6592226624488831,-15.699309349060059,5.168497085571289
1781638946126988000,102.60098803710937,-4.18983268737793,-5.174479007720947,-1.6007983684539795
1781638946185213200,102.65921313476562,-2.5052852630615234,-16.229320526123047,-4.214957237243652
1781638946282254800,102.7562548828125,0.48095735907554626,-6.617351055145264,4.694717884063721
1781638946379296500,102.85329663085938,0.7680960893630981,-7.15812873840332,-2.344966173171997
1781638946476338400,102.95033837890625,-0.039481572806835175,-9.704092025756836,1.8771693706512451
1781638946534563300,103.00856323242188,7.7216386795043945,-14.842679023742676,1.5960127115249634
1781638946631605000,103.10560498046875,1.3878371715545654,-9.232706069946289,-1.0037890672683716
1781638946728646700,103.20264672851563,-1.5038890838623047,-10.785648345947266,-3.7639100551605225
1781638946786871800,103.26087182617188,0.9547362327575684,-5.870790481567383,0.9379864931106567
1781638946883913500,103.35791357421876,0.064606212079525,-9.215956687927246,-0.7824530005455017
1781638946980955400,103.45495532226562,3.597608804702759,-7.719245910644531,1.0863415002822876
1781638947116813800,103.59081372070312,-2.3844478130340576,-9.291330337524414,-2.6009981632232666
1781638947175038700,103.64903881835937,-2.6668007373809814,-8.776873588562012,-4.120440483093262
1781638947233263900,103.70726391601562,-4.930410861968994,-17.298912048339844,1.5876377820968628
1781638947330305500,103.80430541992187,1.495514154434204,-6.281159400939941,0.0933200865983963
1781638947427347200,103.90134716796875,1.8089739084243774,-6.314659118652344,0.39840495586395264
1781638947485572000,103.95957202148438,1.155733346939087,-8.725427627563477,3.047259569168091
1781638947582614000,104.05661401367188,-2.7421748638153076,-15.584453582763672,3.623929977416992
1781638947679655700,104.15365576171875,-2.926422119140625,-8.172685623168945,-0.42352959513664246
1781638947737880800,104.211880859375,-2.9515466690063477,-11.436495780944824,-3.5856447219848633
1781638947834922500,104.30892260742188,-2.7146573066711426,-7.383054256439209,1.5385849475860596
1781638947931964200,104.40596411132813,0.6891329288482666,-7.558926582336426,3.373879909515381
1781638948029005800,104.503005859375,1.5625132322311401,-11.234302520751953,-1.4416756629943848
1781638948087231000,104.56123095703126,-1.1270195245742798,-15.03888988494873,4.122833251953125
1781638948184272600,104.65827270507812,-3.38105845451355,-5.724828243255615,-2.7864420413970947
1781638948281314300,104.75531420898437,-4.796412944793701,-14.93121337890625,4.396811485290527
1781638948339539500,104.81353955078124,2.6368906497955322,-6.440282344818115,3.10109806060791
1781638948436581000,104.9105810546875,1.947757601737976,-5.85284423828125,-1.3615161180496216
1781638948533622800,105.00762280273437,-2.548356056213379,-14.47896957397461,3.3020951747894287
1781638948669481200,105.14348120117188,-4.029513359069824,-13.073186874389648,-5.139782905578613
1781638948727706000,105.2017060546875,-1.2705888748168945,-7.293323516845703,-0.18065811693668365
1781638948785931300,105.25993115234375,-2.2408783435821533,-11.075180053710938,-4.727021217346191
1781638948882973000,105.35697290039063,-5.186442852020264,-8.214560508728027,0.5455635786056519
1781638948980014600,105.4540146484375,1.4368900060653687,-6.636493682861328,2.537588357925415
1781638949038239500,105.51223950195312,2.6021945476531982,-8.091329574584961,2.0721843242645264
1781638949135281200,105.60928125,-1.7982062101364136,-13.34716510772705,1.0013962984085083
1781638949232322800,105.70632275390625,-2.809173822402954,-9.723235130310059,-3.9972102642059326
1781638949290548000,105.7645478515625,-5.894718647003174,-17.923437118530273,1.6773686408996582
1781638949387589600,105.86158959960937,0.2955136001110077,-6.51326322555542,0.18903298676013947
1781638949484631300,105.95863134765625,1.7359927892684937,-5.698507308959961,-0.040677983313798904
1781638949581673000,106.0556728515625,-0.2021935135126114,-19.214365005493164,0.8482556343078613
1781638949639898000,106.11389819335938,-0.7692924737930298,-13.39262866973877,4.246063709259033
1781638949736939800,106.21093969726563,-0.5288137793540955,-6.86261510848999,-0.5718846321105957
1781638949833981400,106.3079814453125,0.6101697683334351,-7.3986077308654785,-4.34536600112915
1781638949931023000,106.40502319335937,-1.2023934125900269,-10.61815071105957,0.13280165195465088
1781638949989248000,106.463248046875,1.207179069519043,-7.165307521820068,2.417947292327881
1781638950086289700,106.56028955078125,1.4416756629943848,-11.861222267150879,0.8446664214134216
1781638950183331300,106.65733129882813,-1.454836130142212,-9.962516784667969,-2.313859462738037
1781638950241556500,106.71555639648437,-2.344966173171997,-9.31166934967041,-1.911865234375
1781638950338598100,106.81259814453125,-1.832902193069458,-10.310672760009766,6.0502519607543945
1781638950435639800,106.90963989257813,2.228914260864258,-6.7692952156066895,-3.933800458908081
1781638950532681500,107.00668139648438,2.6117658615112305,-4.4721856117248535,0.5659025311470032
1781638950590906600,107.06490673828125,-4.504488468170166,-17.8684024810791,1.4416756629943848
1781638950687948300,107.1619482421875,-5.426921844482422,-15.451652526855469,-1.456032633781433
1781638950784990000,107.25898999023437,-1.4919248819351196,-7.792226791381836,1.332802176475525
1781638950882031600,107.35603149414062,0.3696911036968231,-5.685346603393555,-0.8877372145652771
1781638950940256500,107.41425659179687,-2.0853450298309326,-9.534201622009277,0.4905286431312561
1781638951037298200,107.51129809570313,-0.064606212079525,-7.606783390045166,2.173879384994507
1781638951134339800,107.60833984375,-0.3326023519039154,-13.817354202270508,3.518645763397217
1781638951231381500,107.70538159179688,-3.146561861038208,-7.044469833374023,-1.1318050622940063
1781638951289606400,107.7636064453125,-1.633101463317871,-10.61815071105957,-4.71744966506958
1781638951386648000,107.86064794921874,-0.12801600992679596,-8.4562349319458,5.910272121429443
1781638951483689700,107.95768969726562,1.648654818534851,-6.437889099121094,-2.5184457302093506
1781638951541915000,108.01591479492187,2.0721843242645264,-5.4173502922058105,0.7310073375701904
1781638951638956500,108.11295654296875,4.935196876525879,-18.687944412231445,-0.020338991656899452
