time,seconds_elapsed,z,y,x
1780751929857600800,0.252600830078125,-0.8787640929222107,-9.817750930786133,1.1461620330810547
1780751929906043400,0.30104345703125,-0.8500502705574036,-9.84257698059082,1.2041879892349243
1780751929954560500,0.349560546875,-0.906281590461731,-9.873384475708008,1.280758261680603
1780751930003077400,0.398077392578125,-0.8144569993019104,-9.786046028137207,1.1787642240524292
1780751930051594000,0.446593994140625,-0.8536394834518433,-9.799506187438965,1.2562319040298462
1780751930100110800,0.49511083984375,-0.862313449382782,-9.840782165527344,1.1527422666549683
1780751930148628000,0.5436279296875,-0.8380861282348633,-9.838688850402832,1.1623135805130005
1780751930197144800,0.592144775390625,-0.9337990283966064,-9.863214492797852,1.150349497795105
1780751930245661700,0.64066162109375,-0.9284151792526245,-9.863813400268555,1.1524431705474854
1780751930294178300,0.68917822265625,-0.8805587291717529,-9.832108497619629,1.2146565914154053
1780751930342695400,0.7376953125,-0.8877372145652771,-9.84975528717041,1.1718848943710327
1780751930391212300,0.78621240234375,-0.8581260442733765,-9.798608779907227,1.2098709344863892
1780751930439729200,0.834729248046875,-0.8183453679084778,-9.804889678955078,1.2005987167358398
1780751930488246000,0.88324609375,-0.8542376756668091,-9.842277526855469,1.2170493602752686
1780751930536763100,0.93176318359375,-0.8207381963729858,-9.796216011047363,1.2658032178878784
1780751930585280000,0.980280029296875,-0.9203394055366516,-9.835996627807617,1.2305090427398682
1780751930633796900,1.028796875,-0.8679963946342468,-9.855438232421875,1.1527422666549683
1780751930682313500,1.0773134765625,-0.8470591902732849,-9.874281883239746,1.1012966632843018
1780751930730830300,1.125830322265625,-0.7543373107910156,-9.795618057250977,1.0686944723129272
1780751930779347500,1.174347412109375,-0.7316055297851562,-9.749855041503906,1.2939188480377197
1780751930827864300,1.2228642578125,-0.8691928386688232,-9.850353240966797,1.3214362859725952
1780751930876381200,1.271381103515625,-0.8512466549873352,-9.792028427124023,1.4539388418197632
1780751930924898000,1.31989794921875,-0.9302098155021667,-9.772886276245117,1.4084752798080444
1780751930973415200,1.368415283203125,-1.0686944723129272,-9.974780082702637,1.241276741027832
1780751931021932000,1.41693212890625,-0.97926265001297,-9.861719131469727,1.355234980583191
1780751931118965800,1.5139658203125,-0.9601200819015503,-9.875777244567871,1.4006985425949097
1780751931167482600,1.562482666015625,-0.9388837814331055,-9.664610862731934,1.2538390159606934
1780751931215999700,1.610999755859375,-0.9053842425346375,-9.979565620422363,1.0785647630691528
1780751931264516600,1.6595166015625,-1.0917253494262695,-10.089037895202637,1.1228320598602295
1780751931313033500,1.708033447265625,-1.2218350172042847,-9.811470031738281,1.0322039127349854
1780751931361550300,1.75655029296875,-1.2185449600219727,-9.722935676574707,0.7992027401924133
1780751931410067200,1.805067138671875,-0.9840483069419861,-9.3759765625,0.6658028960227966
1780751931458584300,1.853584228515625,-1.2185449600219727,-9.614361763000488,0.9672985672950745
1780751931507101000,1.902100830078125,-1.4141582250595093,-10.297213554382324,0.698704183101654
1780751931555617800,1.95061767578125,-0.8662018179893494,-9.798608779907227,1.098903775215149
1780751931604134700,1.999134765625,-0.9460622668266296,-9.847362518310547,1.1198409795761108
1780751931652651800,2.04765185546875,-1.197009563446045,-9.937392234802246,0.8081758618354797
1780751931701168600,2.096168701171875,-0.9403793215751648,-9.756135940551758,0.9834501147270203
1780751931749685500,2.144685546875,-1.0235298871994019,-9.833005905151367,1.0274182558059692
1780751931798202400,2.193202392578125,-1.1102696657180786,-9.863813400268555,1.2762718200683594
1780751931846719200,2.24171923828125,-1.0510473251342773,-9.819247245788574,1.2610175609588623
1780751931895236400,2.290236328125,-0.9595218896865845,-9.80399227142334,1.2299108505249023
1780751931943753200,2.338753173828125,-1.0456634759902954,-9.754940032958984,1.1407781839370728
1780751931992270000,2.38727001953125,-1.1422736644744873,-9.887741088867188,1.212263822555542
1780751932040787000,2.435786865234375,-1.090528964996338,-9.782755851745605,1.2035897970199585
1780751932089303800,2.4843037109375,-1.1662019491195679,-9.817750930786133,1.158724308013916
1780751932137821000,2.532821044921875,-1.1413763761520386,-9.814460754394531,1.095314621925354
1780751932186337800,2.581337890625,-1.1054840087890625,-9.807282447814941,1.0609177350997925
1780751932234854700,2.629854736328125,-1.196411371231079,-9.844072341918945,1.1365907192230225
1780751932283371500,2.67837158203125,-1.1925230026245117,-9.891031265258789,1.1216355562210083
1780751932331888600,2.726888671875,-1.1327024698257446,-9.813862800598145,1.150349497795105
1780751932380405500,2.775405517578125,-1.1446665525436401,-9.71815013885498,1.220937728881836
1780751932428922400,2.82392236328125,-1.2505489587783813,-9.788140296936035,1.169192910194397
1780751932477439200,2.872439208984375,-1.1883355379104614,-9.759725570678711,1.1318050622940063
1780751932525955800,2.920955810546875,-1.2065808773040771,-9.802796363830566,1.1644073724746704
1780751932574473000,2.969472900390625,-1.3010972738265991,-9.841679573059082,1.0839486122131348
1780751932622989800,3.01798974609375,-1.230808138847351,-9.78843879699707,1.0857433080673218
1780751932671506700,3.066506591796875,-1.2409776449203491,-9.78963565826416,1.0974082946777344
1780751932768540700,3.163540771484375,-1.2400803565979004,-9.81236743927002,1.1183454990386963
1780751932817057500,3.2120576171875,-1.2370892763137817,-9.765707015991211,1.1407781839370728
1780751932865574400,3.260574462890625,-1.236491084098816,-9.821640014648438,1.1539387702941895
1780751932914091300,3.30909130859375,-1.2664014101028442,-9.806385040283203,1.135095238685608
1780751932962608000,3.357608154296875,-1.25144624710083,-9.802496910095215,1.1419745683670044
1780751933011125200,3.406125244140625,-1.2547364234924316,-9.787542343139648,1.150050401687622
1780751933059642000,3.45464208984375,-1.2442678213119507,-9.7636137008667,1.1892328262329102
1780751933108159000,3.503158935546875,-1.292722463607788,-9.802796363830566,1.2044870853424072
1780751933156675800,3.55167578125,-1.2628121376037598,-9.804291725158691,1.1700903177261353
1780751933205192700,3.600192626953125,-1.2236297130584717,-9.792327880859375,1.1883355379104614
1780751933253709600,3.64870947265625,-1.231406331062317,-9.72831916809082,1.2337992191314697
1780751933302226400,3.697226318359375,-1.3106685876846313,-9.715457916259766,1.2409776449203491
1780751933350743300,3.745743408203125,-1.2855439186096191,-9.762118339538574,1.3106685876846313
1780751933399260200,3.79426025390625,-1.3800604343414307,-9.782755851745605,1.1874382495880127
1780751933447777300,3.84277734375,-1.332802176475525,-9.773184776306152,1.2472587823867798
1780751933496294100,3.891294189453125,-1.3558331727981567,-9.789037704467773,1.1575279235839844
1780751933544811000,3.93981103515625,-1.4030914306640625,-9.784252166748047,1.1730812788009644
1780751933593327900,3.988327880859375,-1.2346965074539185,-9.734002113342285,1.169192910194397
1780751933641845000,4.036844970703125,-1.3456636667251587,-9.785149574279785,1.179063320159912
1780751933690361900,4.08536181640625,-1.3405789136886597,-9.824331283569336,1.2293126583099365
1780751933738878700,4.133878662109375,-1.2475578784942627,-9.799206733703613,1.2041879892349243
1780751933787395600,4.1823955078125,-1.2499507665634155,-9.734899520874023,1.2658032178878784
1780751933835912200,4.230912109375,-1.2442678213119507,-9.761220932006836,1.2690932750701904
1780751933884429300,4.27942919921875,-1.2418749332427979,-9.77707290649414,1.2532408237457275
1780751933932946200,4.3279462890625,-1.2442678213119507,-9.778569221496582,1.196411371231079
1780751933981463000,4.376463134765625,-1.2266206741333008,-9.791430473327637,1.210768222808838
1780751934029980000,4.42497998046875,-1.257129192352295,-9.779465675354004,1.194616675376892
1780751934078496800,4.473496826171875,-1.2936197519302368,-9.784850120544434,1.20687997341156
1780751934127014000,4.522013916015625,-1.277767300605774,-9.816255569458008,1.1940184831619263
1780751934175530800,4.57053076171875,-1.2915260791778564,-9.812067985534668,1.2011969089508057
1780751934224047600,4.619047607421875,-1.2457633018493652,-9.74925708770752,1.212562918663025
1780751934272564200,4.667564208984375,-1.2888340950012207,-9.781859397888184,1.1994023323059082
1780751934369598200,4.76459814453125,-1.292722463607788,-9.801599502563477,1.2029916048049927
1780751934418115000,4.813114990234375,-1.257129192352295,-9.788140296936035,1.1682956218719482
1780751934466632000,4.8616318359375,-1.272084355354309,-9.784252166748047,1.179661512374878
1780751934515148800,4.910148681640625,-1.2424731254577637,-9.794720649719238,1.1599208116531372
1780751934563666000,4.958666015625,-1.2197413444519043,-9.758528709411621,1.200299620628357
1780751934612182800,5.007182861328125,-1.2346965074539185,-9.799506187438965,1.1575279235839844
1780751934660699400,5.055699462890625,-1.25144624710083,-9.817152976989746,1.1787642240524292
1780751934709216500,5.104216552734375,-1.261914849281311,-9.792028427124023,1.1629117727279663
1780751934757733400,5.1527333984375,-1.2538390159606934,-9.785747528076172,1.1572288274765015
1780751934806250200,5.201250244140625,-1.2744771242141724,-9.811470031738281,1.1207382678985596
1780751934854767000,5.24976708984375,-1.2681959867477417,-9.768099784851074,1.1404790878295898
1780751934903284000,5.298283935546875,-1.2436695098876953,-9.79083251953125,1.1694921255111694
1780751934951800800,5.34680078125,-1.2472587823867798,-9.798608779907227,1.1644073724746704
1780751935000317700,5.395317626953125,-1.2810574769973755,-9.801898956298828,1.1204391717910767
1780751935048834800,5.443834716796875,-1.2436695098876953,-9.783354759216309,1.1428718566894531
1780751935097351400,5.492351318359375,-1.272084355354309,-9.814760208129883,1.1237293481826782
1780751935145868300,5.540868408203125,-1.2544373273849487,-9.769296646118164,1.1431710720062256
1780751935194385200,5.58938525390625,-1.2616157531738281,-9.806684494018555,1.1383854150772095
1780751935242902300,5.63790234375,-1.2532408237457275,-9.812067985534668,1.1365907192230225
1780751935291419100,5.686419189453125,-1.2810574769973755,-9.804291725158691,1.1318050622940063
1780751935339936000,5.73493603515625,-1.2346965074539185,-9.76989459991455,1.1596217155456543
1780751935388452900,5.783452880859375,-1.2649059295654297,-9.819247245788574,1.1829516887664795
1780751935436969700,5.8319697265625,-1.2529417276382446,-9.794720649719238,1.1572288274765015
1780751935485486600,5.880486572265625,-1.2164511680603027,-9.811470031738281,1.1341979503631592
1780751935534003500,5.92900341796875,-1.2436695098876953,-9.778569221496582,1.1563315391540527
1780751935582520300,5.977520263671875,-1.2179467678070068,-9.78664493560791,1.1826525926589966
1780751935631037200,6.026037109375,-1.2472587823867798,-9.816255569458008,1.1431710720062256
1780751935679554000,6.074553955078125,-1.2451651096343994,-9.796216011047363,1.1515458822250366
1780751935728071000,6.12307080078125,-1.277169108390808,-9.801898956298828,1.1222338676452637
1780751935776587800,6.171587890625,-1.2472587823867798,-9.792925834655762,1.1261221170425415
1780751935825104600,6.220104736328125,-1.2346965074539185,-9.78126049041748,1.1407781839370728
1780751935873621500,6.26862158203125,-1.2385848760604858,-9.797711372375488,1.1159526109695435
1780751935922138600,6.317138671875,-1.2164511680603027,-9.783653259277344,1.1437692642211914
1780751936019172400,6.41417236328125,-1.2400803565979004,-9.809077262878418,1.155135154724121
1780751936067689000,6.46268896484375,-1.2352946996688843,-9.800403594970703,1.1335997581481934
1780751936116205800,6.511205810546875,-1.2035897970199585,-9.777970314025879,1.1524431705474854
1780751936164723000,6.559722900390625,-1.252044439315796,-9.80399227142334,1.134796142578125
1780751936213239800,6.60823974609375,-1.252044439315796,-9.839286804199219,1.100698471069336
1780751936261756700,6.656756591796875,-1.2245270013809204,-9.787542343139648,1.0911271572113037
1780751936310273500,6.7052734375,-1.226022481918335,-9.78963565826416,1.145264744758606
1780751936358790400,6.753790283203125,-1.2586246728897095,-9.824930191040039,1.0896315574645996
1780751936407307300,6.802307373046875,-1.236191987991333,-9.80518913269043,1.1084750890731812
1780751936455824100,6.85082421875,-1.2738789319992065,-9.800403594970703,1.093519926071167
1780751936504341000,6.899341064453125,-1.2418749332427979,-9.792028427124023,1.1333006620407104
1780751936552857900,6.94785791015625,-1.2236297130584717,-9.800403594970703,1.1198409795761108
1780751936601374700,6.996374755859375,-1.236191987991333,-9.817152976989746,1.0950154066085815
1780751936649891600,7.0448916015625,-1.2424731254577637,-9.809077262878418,1.0992028713226318
1780751936698408400,7.093408447265625,-1.191625714302063,-9.784252166748047,1.0809576511383057
1780751936746925300,7.14192529296875,-1.2714861631393433,-9.825528144836426,1.1237293481826782
1780751936795442200,7.190442138671875,-1.217348575592041,-9.778867721557617,1.1279168128967285
1780751936843959000,7.238958984375,-1.2529417276382446,-9.815957069396973,1.0606186389923096
1780751936892476000,7.287475830078125,-1.2370892763137817,-9.799506187438965,1.0767701864242554
1780751936940992800,7.33599267578125,-1.2403794527053833,-9.80100154876709,1.0863415002822876
1780751936989509600,7.384509521484375,-1.2628121376037598,-9.812965393066406,1.095314621925354
1780751937038026500,7.433026611328125,-1.272084355354309,-9.827920913696289,1.0654042959213257
1780751937086543400,7.48154345703125,-1.2041879892349243,-9.742975234985352,1.083350419998169
1780751937135060200,7.530060302734375,-1.2484551668167114,-9.794720649719238,1.1207382678985596
1780751937183577000,7.5785771484375,-1.2074781656265259,-9.83539867401123,1.07826566696167
1780751937232094000,7.627093994140625,-1.2616157531738281,-9.815957069396973,1.1204391717910767
1780751937280610800,7.67561083984375,-1.2424731254577637,-9.776474952697754,1.0247262716293335
1780751937329127700,7.724127685546875,-1.2385848760604858,-9.807282447814941,1.0959128141403198
1780751937377644500,7.77264453125,-1.2523435354232788,-9.803394317626953,1.0600204467773438
1780751937426161400,7.821161376953125,-1.2212368249893188,-9.791430473327637,1.0734800100326538
1780751937474678300,7.86967822265625,-1.179063320159912,-9.792327880859375,1.1045867204666138
1780751937523195100,7.918195068359375,-1.236491084098816,-9.800403594970703,1.0495518445968628
1780751937571712000,7.9667119140625,-1.1835498809814453,-9.802496910095215,1.0878369808197021
1780751937668745700,8.063745849609376,-1.1931211948394775,-9.804889678955078,1.1048858165740967
1780751937717262600,8.1122626953125,-1.1868400573730469,-9.823433876037598,0.981655478477478
1780751937765779500,8.160779541015625,-1.196411371231079,-9.751350402832031,0.9562317728996277
1780751937814296300,8.20929638671875,-1.1910275220870972,-9.792925834655762,0.9302098155021667
1780751937862813200,8.257813232421874,-1.2831511497497559,-9.748957633972168,0.8413762450218201
1780751937911330000,8.306330078125,-1.2340983152389526,-9.721440315246582,0.8359923958778381
1780751937959847000,8.354846923828125,-1.4108680486679077,-9.888937950134277,1.048953652381897
1780751938008363800,8.40336376953125,-1.6313068866729736,-9.854242324829102,0.838983416557312
1780751938056880600,8.451880615234375,-0.9969097375869751,-9.86949634552002,0.9619147181510925
1780751938105397500,8.5003974609375,-1.0115658044815063,-9.961320877075195,0.9873384237289429
1780751938153914400,8.548914306640626,-0.8006982803344727,-9.671191215515137,0.6011967062950134
1780751938202431200,8.59743115234375,-0.9373882412910461,-10.281360626220703,0.7642077207565308
1780751938250948000,8.645947998046875,-0.9541380405426025,-10.191031455993652,0.5009972453117371
1780751938299465000,8.69446484375,-0.8943174481391907,-10.066604614257812,0.8470591902732849
1780751938347981600,8.742981689453124,-0.8991031050682068,-9.742975234985352,1.2457633018493652
1780751938396498400,8.79149853515625,-0.35832518339157104,-9.57188892364502,1.230808138847351
1780751938445015600,8.840015625,-0.0568295381963253,-9.749855041503906,1.3863415718078613
1780751938493532200,8.8885322265625,0.24496522545814514,-9.223732948303223,1.1931211948394775
1780751938542049000,8.937049072265625,1.1180464029312134,-9.706186294555664,1.3007981777191162
1780751938590566000,8.98556591796875,1.0911271572113037,-10.250253677368164,1.3193426132202148
1780751938639082800,9.034082763671876,2.0368902683258057,-11.165508270263672,2.3575284481048584
1780751938687599600,9.082599609375,0.0029910283628851175,-12.10379409790039,2.203789710998535
1780751938736116500,9.131116455078125,-2.369492530822754,-9.551549911499023,-0.30927231907844543
1780751938784633300,9.17963330078125,-3.5045878887176514,-7.980661869049072,-3.8111681938171387
1780751938833150200,9.228150146484374,-0.9053842425346375,-10.089037895202637,1.1718848943710327
1780751938881667000,9.2766669921875,-4.273581027984619,-14.764613151550293,5.145166873931885
1780751938930184000,9.325183837890625,0.3047857880592346,-8.954839706420898,0.9825528264045715
1780751938978700800,9.37370068359375,1.968395709991455,-8.254639625549316,0.6454638838768005
1780751939027217700,9.4222177734375,0.7058826684951782,-9.301798820495605,1.1467602252960205
1780751939075734300,9.470734375,0.5727819204330444,-8.752944946289062,-0.5521438121795654
1780751939124251400,9.51925146484375,2.037189483642578,-6.698108673095703,0.6801598072052002
1780751939172768300,9.567768310546874,1.9821544885635376,-8.146663665771484,2.8704898357391357
1780751939269801700,9.6648017578125,-0.05114658549427986,-13.77936840057373,3.9529430866241455
1780751939318318600,9.713318603515624,-3.926621913909912,-13.621441841125488,-1.3298112154006958
1780751939366835500,9.76183544921875,-1.1030912399291992,-7.7455668449401855,-0.6756733059883118
1780751939415352300,9.810352294921875,-1.9334007501602173,-11.129616737365723,-0.041575293987989426
1780751939463869200,9.858869140625,0.3798605799674988,-8.445168495178223,-2.517249345779419
1780751939512385800,9.9073857421875,-1.4506487846374512,-7.0908308029174805,0.9418748021125793
1780751939560903000,9.95590283203125,-0.09571290761232376,-8.379066467285156,1.1300104856491089
1780751939609419800,10.004419677734376,-0.6263213157653809,-8.015955924987793,3.1351959705352783
1780751939657936600,10.0529365234375,-0.49351966381073,-8.765806198120117,3.753441333770752
1780751939706453200,10.101453369140625,2.169692039489746,-8.93958568572998,1.5236297845840454
1780751939754970000,10.14997021484375,1.6414763927459717,-12.202796936035156,2.5283162593841553
1780751939803487000,10.198487060546874,-0.45164528489112854,-12.519845962524414,3.2380871772766113
1780751939852003800,10.24700390625,-2.857628345489502,-7.3043904304504395,-1.7324036359786987
1780751939900520700,10.295520751953125,-2.617149829864502,-11.33659553527832,-0.46809592843055725
1780751939949037300,10.344037353515626,-4.673780918121338,-19.832611083984375,2.612962245941162
1780751939997554200,10.39255419921875,-0.8557332158088684,-9.562616348266602,7.855038642883301
1780751940046071300,10.4410712890625,3.176172971725464,-6.119344711303711,1.716252088546753
1780751940094588000,10.489587890625,2.0730817317962646,-7.668996810913086,-2.8585257530212402
1780751940143104800,10.538104736328124,2.1756739616394043,-5.913562297821045,-0.8811569213867188
1780751940191621600,10.58662158203125,2.597707986831665,-5.468197822570801,1.3390833139419556
1780751940240138500,10.635138427734375,-1.1231311559677124,-14.052449226379395,2.8914270401000977
1780751940288655400,10.6836552734375,4.270590305328369,-13.92533016204834,4.200301170349121
1780751940337172200,10.732172119140625,-4.829314231872559,-14.770894050598145,1.0633105039596558
1780751940385689000,10.780689208984375,-0.6586244106292725,-8.974879264831543,-1.212263822555542
1780751940434205700,10.829205810546876,-1.1581261157989502,-10.214960098266602,0.6493522524833679
1780751940482722600,10.87772265625,-0.3119642436504364,-10.47188949584961,-3.4785659313201904
1780751940531239400,10.926239501953125,-0.4489533603191376,-6.79950475692749,-1.667797327041626
1780751940579756300,10.97475634765625,-3.3541390895843506,-8.699405670166016,1.444367527961731
1780751940628273200,11.023273193359374,0.0005982056609354913,-9.386445045471191,2.068295955657959
1780751940676789800,11.071789794921875,0.9882357716560364,-5.844768524169922,2.5953152179718018
1780751940725306600,11.120306640625,3.029313564300537,-6.802196502685547,2.155334949493408
1780751940773823700,11.16882373046875,2.478066921234131,-13.316058158874512,3.4393835067749023
1780751940822340400,11.21734033203125,-1.3417752981185913,-14.336895942687988,1.4084752798080444
1780751940919373800,11.314373779296876,-3.79890513420105,-14.703296661376953,2.042872428894043
1780751940967890700,11.362890625,-3.2991042137145996,-19.16710662841797,2.5489542484283447
1780751941016407800,11.41140771484375,1.0345966815948486,-6.419943332672119,6.2174506187438965
1780751941064924400,11.45992431640625,2.4415764808654785,-6.420541286468506,1.8296120166778564
1780751941113441300,11.508441162109374,2.499901533126831,-7.5341010093688965,-2.577967405319214
1780751941161958000,11.5569580078125,2.169692039489746,-6.356234073638916,0.33918261528015137
1780751941210475000,11.60547509765625,-0.13639089465141296,-7.565506935119629,2.9904301166534424
1780751941258991900,11.653991943359374,2.352742910385132,-15.710375785827637,0.804885745048523
1780751941307508500,11.702508544921875,2.301297187805176,-11.559127807617188,5.556732177734375
1780751941356025300,11.751025390625,-6.507879257202148,-15.628421783447266,-1.3513466119766235
1780751941404542200,11.799542236328126,0.7345965504646301,-6.698108673095703,-0.8225327730178833
1780751941453059000,11.84805908203125,-0.966102123260498,-10.711770057678223,0.49621158838272095
1780751941501576000,11.896575927734375,-0.5560321807861328,-8.834300994873047,-3.743271827697754
1780751941550092500,11.945092529296875,-1.7021942138671875,-7.362117290496826,0.6508477330207825
1780751941598609400,11.993609375,-2.4125633239746094,-9.847960472106934,1.4769697189331055
1780751941647126300,12.042126220703125,0.4043870270252228,-7.537989616394043,1.4228321313858032
1780751941695643100,12.09064306640625,1.4946168661117554,-6.246762752532959,3.146561861038208
1780751941744159700,12.13915966796875,3.3221352100372314,-8.665008544921875,1.2394821643829346
1780751941792676600,12.187676513671875,0.7974081635475159,-15.687943458557129,4.899603366851807
1780751941841193500,12.236193359375,-2.501995086669922,-11.43529987335205,0.776171863079071
1780751941889710300,12.28471044921875,-3.7648072242736816,-6.140581130981445,-1.89840567111969
1780751941938227200,12.333227294921874,-2.941676378250122,-18.972091674804688,-1.2433704137802124
1780751941986743800,12.381743896484375,-4.59003210067749,-15.3218412399292,5.590231895446777
1780751942035260700,12.4302607421875,2.379063844680786,-4.730610370635986,5.521737575531006
1780751942083777500,12.478777587890624,2.423929452896118,-6.2638115882873535,-0.06161518394947052
1780751942132294400,12.52729443359375,2.201396942138672,-7.0199432373046875,-2.353640079498291
1780751942180811300,12.575811279296875,2.824428081512451,-4.910670280456543,-0.012861421331763268
1780751942229328100,12.624328125,-1.306481122970581,-10.755139350891113,2.7436702251434326
1780751942277844700,12.6728447265625,5.02343225479126,-17.260326385498047,1.9100706577301025
1780751942326361600,12.721361572265625,-3.7046875953674316,-16.115062713623047,1.7497515678405762
1780751942374878500,12.76987841796875,-0.633499801158905,-7.9953179359436035,0.13489536941051483
1780751942423395300,12.818395263671874,-1.7338991165161133,-10.270892143249512,0.2847459018230438
1780751942471912000,12.866911865234375,-0.7139584422111511,-10.9271240234375,-3.3547372817993164
1780751942568945400,12.9639453125,-2.111067771911621,-7.467999458312988,1.3725829124450684
1780751942617462500,13.012462646484375,-0.18903298676013947,-9.487542152404785,0.6140581369400024
1780751942665979100,13.060979248046875,0.12771691381931305,-7.57806921005249,2.6473591327667236
1780751942714496000,13.10949609375,3.1926236152648926,-6.128616809844971,3.232703447341919
1780751942763012600,13.1580126953125,2.079961061477661,-13.061820983886719,2.74755859375
1780751942811529700,13.20652978515625,-2.0309081077575684,-14.086546897888184,1.170688509941101
1780751942860046300,13.25504638671875,-3.2359936237335205,-6.226722717285156,-1.954936146736145
1780751942908563200,13.303563232421874,-2.1750757694244385,-15.534204483032227,-0.3900300860404968
1780751942957079800,13.352079833984375,-4.18983268737793,-18.667905807495117,4.316053867340088
1780751943005596700,13.4005966796875,0.40259242057800293,-7.084549427032471,7.00050163269043
1780751943054113500,13.449113525390626,3.368196964263916,-5.749354839324951,-0.046360939741134644
1780751943102630400,13.49763037109375,2.1592233180999756,-6.656234264373779,-1.7688941955566406
1780751943151147000,13.54614697265625,2.2722842693328857,-5.595914840698242,0.5823532342910767
1780751943199663900,13.594663818359376,0.2560320198535919,-7.884350776672363,1.4922239780426025
1780751943248180700,13.6431806640625,3.603590965270996,-17.174184799194336,0.1094716340303421
1780751943296697600,13.691697509765625,-1.8577276468276978,-14.052449226379395,5.038686275482178
1780751943345214500,13.74021435546875,-2.729612350463867,-13.057034492492676,-0.8548358678817749
1780751943393731000,13.78873095703125,-0.4013960063457489,-7.886743545532227,0.9409775137901306
1780751943442248000,13.837248046875,-0.9571290612220764,-11.41226863861084,-2.606382131576538
1780751943490764500,13.8857646484375,0.6245267391204834,-5.963512420654297,-3.8883368968963623
1780751943539281400,13.934281494140626,-1.9175482988357544,-7.462615489959717,1.9965113401412964
1780751943587798300,13.98279833984375,-1.6253247261047363,-10.267004013061523,1.3456636667251587
1780751943636315100,14.031315185546875,0.09661021083593369,-7.7201433181762695,1.5990036725997925
1780751943684831700,14.079831787109375,2.4089741706848145,-6.308078765869141,4.225724697113037
1780751943733348600,14.1283486328125,2.558525562286377,-10.017252922058105,2.265105724334717
1780751943781865200,14.176865234375,-1.6815561056137085,-15.881163597106934,3.07627272605896
1780751943830382300,14.22538232421875,-2.3258235454559326,-8.37727165222168,-3.0562326908111572
1780751943878899000,14.27389892578125,-1.191625714302063,-9.1986083984375,-1.083350419998169
1780751943975932400,14.370932373046875,-1.5586248636245728,-10.430314064025879,5.942873954772949
1780751944024449300,14.41944921875,2.7487549781799316,-5.363811016082764,1.7626129388809204
1780751944072966100,14.467966064453124,2.1670000553131104,-6.404688835144043,-2.7188446521759033
1780751944121483000,14.51648291015625,2.0673987865448,-6.02811861038208,-0.804885745048523
1780751944169999600,14.56499951171875,2.6009981632232666,-4.996213912963867,1.77397882938385
1780751944218516200,14.61351611328125,-1.017547845840454,-16.56311798095703,1.4769697189331055
1780751944267033300,14.662033447265625,3.4965121746063232,-13.047164916992188,4.871787071228027
1780751944315550000,14.710550048828125,-5.7517476081848145,-14.231013298034668,0.01196411345154047
1780751944364066800,14.75906689453125,0.0933200865983963,-9.256035804748535,-0.5234299302101135
1780751944412583400,14.80758349609375,-0.7154539823532104,-11.583056449890137,-0.3978067636489868
1780751944461100300,14.856100341796875,-1.1778669357299805,-8.401798248291016,-4.3295135498046875
1780751944509617200,14.9046171875,-1.023230791091919,-6.4941205978393555,0.40767714381217957
1780751944558134000,14.953134033203124,-2.1296122074127197,-9.438189506530762,-0.47916272282600403
1780751944606650600,15.001650634765625,0.9221340417861938,-7.674679756164551,2.265105724334717
1780751944655167500,15.05016748046875,1.2376874685287476,-7.1488566398620605,4.722534656524658
1780751944703684000,15.09868408203125,2.0069799423217773,-9.237791061401367,1.7931214570999146
1780751944752201000,15.147200927734374,0.08225327730178833,-13.067802429199219,4.634000301361084
1780751944800717800,15.1957177734375,-2.823530673980713,-11.543574333190918,-2.415255308151245
1780751944849234400,15.244234375,-2.4843480587005615,-6.821040153503418,-3.3460633754730225
1780751944897751300,15.292751220703124,-3.0825538635253906,-18.78934097290039,-0.30149564146995544
1780751944946268000,15.341267822265625,-3.9870407581329346,-14.854044914245605,5.544768333435059
1780751944994784800,15.38978466796875,2.4966113567352295,-6.454339981079102,4.129114627838135
1780751945043301600,15.438301513671876,1.6525431871414185,-6.6107707023620605,-1.1901301145553589
1780751945091818500,15.486818603515625,2.233400821685791,-6.491129398345947,-1.441077470779419
1780751945140335000,15.535335205078125,2.374577283859253,-4.185046672821045,1.8242281675338745
1780751945188852000,15.58385205078125,-1.2960125207901,-11.668001174926758,1.1838489770889282
1780751945237368600,15.63236865234375,5.521139144897461,-15.534204483032227,1.4470595121383667
1780751945285885400,15.680885498046875,-4.228715896606445,-14.45743465423584,3.4663026332855225
1780751945334402300,15.72940234375,-0.600000262260437,-10.152148246765137,-1.5361921787261963
1780751945382919000,15.7779189453125,-0.6317051649093628,-9.220144271850586,1.8167506456375122
1780751945431435800,15.826435791015625,-0.6690930128097534,-11.918051719665527,-4.242474555969238
1780751945479952600,15.87495263671875,-0.3607180118560791,-6.739983081817627,-2.1185452938079834
1780751945576986000,15.971986083984374,0.020937198773026466,-8.834898948669434,-0.8955138921737671
1780751945625502700,16.020502685546877,1.0136594772338867,-6.258128643035889,2.462214469909668
1780751945674019800,16.069019775390625,2.6162524223327637,-7.134500026702881,5.042574405670166
1780751945722536400,16.117536376953126,0.15074782073497772,-14.630315780639648,3.7663028240203857
1780751945771053000,16.166052978515626,-1.80508553981781,-13.344173431396484,0.6173482537269592
1780751945819570000,16.21456982421875,-2.1879372596740723,-7.462316513061523,-3.9065821170806885
1780751945868086500,16.26308642578125,-2.281855583190918,-11.752647399902344,-3.0978081226348877
1780751945916603400,16.311603271484376,-4.415655136108398,-18.037097930908203,2.8241288661956787
1780751945965120300,16.360120361328125,-0.8261220455169678,-9.069695472717285,10.225129127502441
1780751946013636900,16.408636962890625,3.6777684688568115,-7.294220924377441,1.0298110246658325
1780751946062153500,16.457153564453126,1.6151553392410278,-8.002197265625,-4.255335807800293
1780751946110670300,16.50567041015625,2.5348963737487793,-4.6989054679870605,-0.4289134442806244
1780751946159187200,16.554187255859375,1.4964114427566528,-5.793023586273193,1.225723385810852
1780751946207704000,16.6027041015625,0.9897312521934509,-16.146766662597656,1.4428720474243164
1780751946256220700,16.651220703125,1.628016710281372,-12.323036193847656,5.459524154663086
1780751946304737500,16.699737548828125,-5.18614387512207,-15.009279251098633,-1.9845472574234009
1780751946353254100,16.748254150390625,-0.020039889961481094,-8.725129127502441,-1.404586911201477
1780751946401771000,16.79677099609375,-1.6040884256362915,-11.511271476745605,-0.4372883439064026
1780751946450287600,16.84528759765625,-0.06789634376764297,-8.86780071258545,-3.054737091064453
1780751946498804500,16.893804443359375,-1.6495521068572998,-7.918747425079346,0.0852443054318428
1780751946547321300,16.9423212890625,-2.861815929412842,-10.196714401245117,-0.09032905846834183
1780751946595838000,16.990837890625,0.7522436380386353,-7.21735143661499,1.407876968383789
1780751946644354800,17.039354736328125,1.0734800100326538,-4.306482315063477,3.009572744369507
1780751946692871400,17.087871337890626,2.0736799240112305,-8.017451286315918,1.8502501249313354
1780751946741388300,17.13638818359375,0.46839502453804016,-14.900704383850098,5.601597785949707
1780751946789905000,17.18490478515625,-1.8454644680023193,-11.756535530090332,0.14685949683189392
1780751946838421500,17.23342138671875,-1.9612172842025757,-8.23430061340332,-2.4807589054107666
1780751946886938400,17.2819384765625,-3.358027458190918,-19.305891036987305,-2.597109794616699
1780751946935455200,17.330455322265625,-5.071288585662842,-15.116357803344727,4.747958183288574
1780751946983971800,17.378971923828125,0.7250252366065979,-6.413661956787109,5.064109802246094
1780751947032488700,17.42748876953125,2.477468729019165,-5.638985633850098,-1.5792629718780518
1780751947081005300,17.47600537109375,1.7012969255447388,-5.560321807861328,-2.635395050048828
1780751947178039000,17.5730390625,-1.7745771408081055,-9.933504104614258,1.4985052347183228
1780751947226555600,17.6215556640625,4.0304107666015625,-16.511972427368164,0.961017370223999
1780751947275072300,17.670072265625,0.605384111404419,-9.83838939666748,5.822634696960449
1780751947323589000,17.718589111328125,-4.7401814460754395,-15.495321273803711,-2.6862425804138184
1780751947372106000,17.76710595703125,-0.7591229677200317,-11.06291675567627,-1.2427722215652466
1780751947420622600,17.81562255859375,-1.6193426847457886,-10.456036567687988,-1.9597218036651611
1780751947469139500,17.864139404296875,0.9652048349380493,-8.441280364990234,-3.684049606323242
1780751947517656000,17.912656005859375,-1.9438693523406982,-7.749754428863525,0.1540379524230957
1780751947566173000,17.9611728515625,-3.791128396987915,-9.636494636535645,-0.19202402234077454
1780751947614689500,18.009689453125,2.1430718898773193,-4.8161540031433105,2.248655080795288
1780751947663206400,18.058206298828125,1.1216355562210083,-5.272285461425781,1.9932212829589844
1780751947711723000,18.106722900390626,1.820937991142273,-10.649556159973145,3.147160053253174
1780751947760239900,18.155239990234374,0.17318053543567657,-13.984253883361816,4.161118507385254
1780751947808756500,18.203756591796875,-3.688236951828003,-13.1365966796875,0.32213374972343445
1780751947857273300,18.2522734375,-4.209872245788574,-11.83011531829834,-4.9986066818237305
1780751947905790000,18.3007900390625,-2.4047868251800537,-16.72882080078125,0.08434699475765228
1780751947954306800,18.349306884765625,-4.363012790679932,-11.826825141906738,7.186244487762451
1780751948002823400,18.397823486328125,1.8610178232192993,-6.005087375640869,2.2142581939697266
1780751948051340300,18.44634033203125,0.8629116415977478,-6.971787929534912,-2.4822545051574707
1780751948099857000,18.49485693359375,1.555932879447937,-5.327320575714111,-1.5442678928375244
1780751948148373500,18.54337353515625,2.6449663639068604,-4.35882568359375,0.906281590461731
1780751948196890400,18.591890380859375,-1.843071699142456,-11.372188568115234,2.9306094646453857
1780751948245407000,18.640406982421876,6.174080848693848,-16.229618072509766,1.9803597927093506
1780751948293923800,18.688923828125,-3.9227335453033447,-13.796417236328125,3.751347780227661
1780751948342440400,18.7374404296875,-1.4820544719696045,-12.046067237854004,-2.580958366394043
1780751948390957300,18.785957275390626,-2.418246269226074,-7.241578578948975,-1.7467604875564575
1780751948439474000,18.834473876953126,-1.5894324779510498,-15.680167198181152,-4.477868556976318
1780751948487990800,18.88299072265625,-2.211566209793091,-8.531010627746582,-3.7369906902313232
1780751948536507400,18.93150732421875,0.7100701332092285,-7.699504852294922,-1.599302887916565
1780751948585024300,18.980024169921876,1.7276179790496826,-7.621738433837891,-0.9254241585731506
1780751948633540900,19.028540771484376,-1.495514154434204,-8.201698303222656,2.5857439041137695
1780751948730574300,19.12557421875,2.4421746730804443,-8.961718559265137,4.11415958404541
1780751948779091000,19.174091064453126,0.6514459848403931,-12.453744888305664,5.389533996582031
1780751948827607800,19.22260791015625,-2.2163519859313965,-12.6044921875,0.576670229434967
1780751948876124400,19.27112451171875,-4.347758769989014,-7.554141044616699,-1.7476578950881958
1780751948924641300,19.319641357421876,-2.6362924575805664,-12.706785202026367,-3.8087754249572754
1780751948973158000,19.368157958984376,-5.6533427238464355,-18.81476402282715,3.5048868656158447
1780751949021674800,19.4166748046875,-0.10707881301641464,-8.64616584777832,1.4075778722763062
1780751949070191400,19.46519140625,2.7559335231781006,-8.038089752197266,-1.215553879737854
1780751949118708200,19.513708251953126,0.5162515044212341,-7.168298244476318,1.2376874685287476
1780751949167224800,19.562224853515627,0.3852444589138031,-5.004289627075195,2.0787646770477295
1780751949215741700,19.61074169921875,3.0478577613830566,-3.7184464931488037,1.5260226726531982
1780751949264258300,19.65925830078125,-1.4820544719696045,-12.901501655578613,3.339782238006592
1780751949312775000,19.70777490234375,4.586442947387695,-15.48485279083252,0.8886345028877258
1780751949361291800,19.756291748046873,-2.764308452606201,-15.687943458557129,1.1078768968582153
1780751949409808600,19.80480859375,-2.769991397857666,-11.331510543823242,-0.8703892230987549
1780751949458325200,19.8533251953125,-2.0955145359039307,-5.366203784942627,-1.230808138847351
1780751949506841900,19.901841796875,-1.2936197519302368,-12.528221130371094,-4.420141696929932
1780751949555358500,19.9503583984375,-1.0432707071304321,-9.623035430908203,-3.906881093978882
1780751949603875000,19.998875,1.0977073907852173,-8.659027099609375,-0.20189441740512848
1780751949652392000,20.047391845703125,1.5128620862960815,-8.861519813537598,-0.2638086974620819
1780751949700908800,20.09590869140625,0.08614161610603333,-8.218448638916016,4.057330131530762
1780751949749425400,20.14442529296875,1.1575279235839844,-7.290033340454102,3.38105845451355
1780751949797942000,20.19294189453125,1.1668001413345337,-8.677870750427246,2.596810817718506
1780751949846459000,20.241458984375,1.07826566696167,-14.95095443725586,3.020639419555664
1780751949894975500,20.2899755859375,-0.16331014037132263,-11.877971649169922,3.7399818897247314
1780751949943492000,20.3384921875,-3.22552490234375,-8.316554069519043,0.11635100096464157
1780751949992009000,20.387009033203125,-3.2440693378448486,-9.363713264465332,-3.8781673908233643
1780751950040525800,20.43552587890625,-2.383251428604126,-18.561124801635742,-0.2805584669113159
1780751950089042400,20.48404248046875,-4.311268329620361,-11.912368774414062,6.352345943450928
1780751950137559000,20.53255908203125,3.2455646991729736,-5.632704734802246,2.2531416416168213
1780751950186075600,20.58107568359375,2.486142635345459,-5.694319725036621,-1.7796618938446045
1780751950283109400,20.678109375,1.7132610082626343,-5.690730571746826,0.5377869009971619
1780751950331626000,20.7266259765625,-1.1850453615188599,-12.965808868408203,1.215553879737854
1780751950380142600,20.775142578125,6.061916828155518,-15.15314769744873,1.8586249351501465
1780751950428659200,20.8236591796875,-3.975076675415039,-15.796517372131348,3.0116662979125977
1780751950477176000,20.872176025390626,-1.0546365976333618,-9.080163955688477,-0.2793620526790619
1780751950525692700,20.920692626953127,-1.9453648328781128,-8.56002426147461,-1.1024930477142334
1780751950574209300,20.969209228515624,-1.1015957593917847,-11.289935111999512,-3.690629720687866
1780751950622726000,21.017725830078124,-0.28175488114356995,-7.03579568862915,-2.4717857837677
1780751950671242800,21.06624267578125,-1.6241283416748047,-7.9887375831604,0.5306084156036377
1780751950719759600,21.114759521484373,-0.9116654396057129,-8.721240043640137,0.022133609279990196
1780751950768276200,21.163276123046874,0.38763725757598877,-7.787142276763916,2.2669003009796143
1780751950816792800,21.211792724609374,1.989033818244934,-7.89332389831543,3.9433717727661133
1780751950865309400,21.260309326171875,2.335394859313965,-10.757532119750977,1.6109678745269775
1780751950913826300,21.308826416015624,-0.615553617477417,-15.29731559753418,3.7767715454101562
1780751950962343000,21.357343017578124,-2.425424814224243,-9.955936431884766,-1.8562321662902832
1780751951010859500,21.405859619140625,-2.2295124530792236,-6.995716094970703,-2.933600664138794
1780751951059376000,21.454376220703125,-2.6368906497955322,-17.277076721191406,-0.7986045479774475
1780751951107893000,21.50289306640625,-4.701896667480469,-14.324333190917969,6.216553211212158
1780751951156409900,21.551409912109374,2.119143486022949,-6.281159400939941,4.629214286804199
1780751951204926500,21.599926513671875,2.569293260574341,-7.109076023101807,-2.400599241256714
1780751951253443000,21.648443115234375,2.3084757328033447,-6.366703033447266,-1.6366907358169556
1780751951301960000,21.6969599609375,2.4430718421936035,-5.4143595695495605,1.695015788078308
1780751951350476500,21.7454765625,-1.3519448041915894,-11.811869621276855,2.5899314880371094
1780751951398993200,21.7939931640625,5.8749775886535645,-15.369099617004395,1.3558331727981567
1780751951447509800,21.842509765625,-5.670092582702637,-15.468701362609863,0.5934200286865234
1780751951496026400,21.8910263671875,-0.12681959569454193,-10.133604049682617,-1.3567304611206055
1780751951544543200,21.939543212890626,-1.709073543548584,-9.301798820495605,-0.2551347017288208
1780751951593059800,21.988059814453123,-0.7863413691520691,-10.439287185668945,-3.8596229553222656
1780751951641576700,22.03657666015625,-0.6143572330474854,-5.820840358734131,-3.2542388439178467
1780751951690093300,22.08509326171875,-2.558525562286377,-8.826225280761719,0.2886342406272888
1780751951738610200,22.133610107421877,0.16689938306808472,-9.19143009185791,0.7193422913551331
1780751951787126800,22.182126708984374,0.1788634955883026,-6.883253574371338,3.4911282062530518
1780751951835643400,22.230643310546874,2.030609130859375,-8.618049621582031,3.4322049617767334
1780751951932676900,22.3276767578125,-0.9825528264045715,-14.190934181213379,2.454437732696533
1780751951981193500,22.376193359375,-2.809173822402954,-7.5412797927856445,-2.030010938644409
1780751952029710000,22.4247099609375,-3.2859437465667725,-10.458429336547852,-2.599203586578369
1780751952078226700,22.473226806640625,-3.8159539699554443,-19.548763275146484,-0.2386840581893921
1780751952126743300,22.521743408203125,-2.0859432220458984,-9.54915714263916,8.019246101379395
1780751952175260200,22.57026025390625,3.7609190940856934,-5.663811206817627,2.523829698562622
1780751952223776800,22.61877685546875,2.628216505050659,-7.2472615242004395,-4.231407642364502
1780751952272293400,22.66729345703125,1.6600207090377808,-6.396912097930908,-0.8270193338394165
1780751952320810000,22.71581005859375,2.233999013900757,-6.20129919052124,2.227717876434326
1780751952369326800,22.764326904296876,-0.672383189201355,-15.763317108154297,2.204387903213501
1780751952417843500,22.812843505859377,3.444169044494629,-13.768301963806152,3.0245277881622314
1780751952466360300,22.8613603515625,-4.968098163604736,-14.541183471679688,-1.466800332069397
1780751952514877000,22.909876953125,-0.24496522545814514,-8.27587604522705,-0.6370890140533447
1780751952563393800,22.958393798828126,-1.6767704486846924,-11.98654556274414,-1.2699905633926392
1780751952611910400,23.006910400390623,-0.29850462079048157,-7.5463643074035645,-4.2918267250061035
1780751952660427000,23.055427001953124,-0.2967100143432617,-6.528517246246338,-0.43938204646110535
1780751952708943600,23.103943603515624,-2.63449764251709,-9.796216011047363,0.7178468108177185
1780751952757460200,23.152460205078125,-0.41545382142066956,-9.304789543151855,1.5906288623809814
1780751952805977000,23.20097705078125,1.2999008893966675,-5.851946830749512,2.680858612060547
1780751952854493700,23.24949365234375,3.9332022666931152,-8.334799766540527,1.5619150400161743
1780751952903010300,23.29801025390625,-0.4049852192401886,-14.654244422912598,3.6834514141082764
1780751952951527000,23.34652685546875,-2.510071039199829,-12.249457359313965,-0.8476574420928955
1780751953000043800,23.395043701171875,-2.9775686264038086,-4.739583492279053,-2.71645188331604
1780751953048560400,23.443560302734376,-1.4994025230407715,-16.486547470092773,-0.997208833694458
1780751953097077000,23.492076904296876,-4.773082733154297,-19.33310890197754,5.167898654937744
1780751953145593600,23.540593505859373,1.170688509941101,-5.839085578918457,8.353343963623047
1780751953194110500,23.5891103515625,4.204787731170654,-7.093822002410889,-2.24057936668396
1780751953242627000,23.637626953125,2.551347255706787,-6.2428741455078125,-4.3208394050598145
1780751953291143700,23.686143798828127,2.296511650085449,-5.095216751098633,0.3978067636489868
1780751953339660300,23.734660400390624,-0.615553617477417,-9.249754905700684,2.3682961463928223
1780751953388177000,23.783177001953124,3.284747362136841,-17.12932014465332,1.6265212297439575
1780751953485210400,23.88021044921875,-2.0027925968170166,-11.331809997558594,-1.9821544885635376
1780751953533727000,23.92872705078125,-2.0338993072509766,-7.678567886352539,1.0863415002822876
1780751953582243600,23.97724365234375,-1.0977073907852173,-12.195320129394531,-2.7813572883605957
1780751953630760400,24.025760498046875,0.06939185410737991,-5.671587944030762,-3.217449188232422
1780751953679277000,24.074277099609375,-3.002394199371338,-6.3978095054626465,0.45134615898132324
1780751953727793700,24.122793701171876,0.6699903607368469,-8.547162055969238,-2.026122570037842
1780751953776310300,24.171310302734376,-0.26171496510505676,-9.15822982788086,5.191527843475342
1780751953824827000,24.219826904296873,-0.07746763527393341,-8.563912391662598,2.830709218978882
1780751953873343700,24.26834375,3.3858439922332764,-10.159028053283691,1.4327025413513184
1780751953921860400,24.3168603515625,-0.30149564146995544,-13.489238739013672,4.144967079162598
1780751953970377000,24.365376953125,-2.924926519393921,-10.770992279052734,-4.18983268737793
1780751954018893600,24.4138935546875,-2.9297122955322266,-7.028318405151367,-2.7861428260803223
1780751954067410200,24.46241015625,-3.656233072280884,-18.50848388671875,-1.0630114078521729
1780751954115926800,24.5109267578125,-3.5901312828063965,-13.674083709716797,5.762814044952393
1780751954164443400,24.559443359375,2.235494613647461,-5.678766250610352,6.207879066467285
1780751954212960000,24.6079599609375,2.4843480587005615,-7.432106971740723,-2.0673987865448
1780751954261476900,24.656476806640626,1.7964116334915161,-6.511468410491943,-3.9035911560058594
1780751954309993500,24.704993408203126,2.620738983154297,-4.789832592010498,1.6265212297439575
1780751954358510000,24.753510009765623,-2.145763635635376,-11.689537048339844,3.3954153060913086
1780751954407026700,24.802026611328124,4.661816596984863,-16.435701370239258,1.9845472574234009
1780751954455543300,24.850543212890624,-3.5539398193359375,-15.245570182800293,0.397208571434021
1780751954504060200,24.89906005859375,-1.0465607643127441,-10.080962181091309,-2.2953150272369385
1780751954552576800,24.94757666015625,-1.6908283233642578,-9.216255187988281,-0.24586252868175507
1780751954601093400,24.99609326171875,-0.3858426511287689,-10.653444290161133,-4.628317356109619
1780751954649610000,25.04460986328125,0.29042884707450867,-6.105586051940918,-3.5844483375549316
1780751954698126800,25.093126953125,-2.7732813358306885,-8.549555778503418,0.4612165689468384
1780751954746643500,25.1416435546875,0.2949153780937195,-10.02173900604248,1.080060362815857
1780751954795160000,25.19016015625,-0.4298107624053955,-7.395317554473877,3.5270206928253174
1780751954843676700,25.2386767578125,2.0563318729400635,-7.208677291870117,2.778067111968994
1780751954892193500,25.287193603515625,3.107379198074341,-10.81406307220459,2.0228323936462402
1780751954940710100,25.335710205078126,-0.8201399445533752,-15.09721565246582,3.4169507026672363
1780751955037743000,25.4327431640625,-3.0753753185272217,-7.227221488952637,-2.4430718421936035
1780751955086259700,25.481259765625,-3.1585259437561035,-17.843278884887695,-2.1032910346984863
1780751955134776600,25.529776611328124,-4.083651065826416,-13.943575859069824,6.80458927154541
1780751955183293200,25.578293212890625,3.0556344985961914,-5.947958946228027,4.856532573699951
1780751955231809800,25.626809814453125,2.8905298709869385,-7.045068264007568,-3.6003007888793945
1780751955280326400,25.675326416015626,2.0033907890319824,-5.757729530334473,-2.037189483642578
1780751955328843300,25.72384326171875,2.626721143722534,-5.045864582061768,1.1485549211502075
1780751955377360000,25.77235986328125,-1.7569299936294556,-13.010375022888184,2.150250196456909
1780751955425876500,25.82087646484375,5.009673118591309,-16.07318878173828,1.7362918853759766
1780751955474393600,25.8693935546875,-3.6113674640655518,-14.261222839355469,-0.1908276081085205
1780751955522910200,25.91791015625,-1.2496516704559326,-10.080363273620605,-0.6915257573127747
1780751955571426800,25.9664267578125,-1.8023936748504639,-10.050453186035156,0.2757728099822998
1780751955619943400,26.014943359375,-0.9346963167190552,-10.451848983764648,-5.419743061065674
1780751955668460000,26.0634599609375,-0.29431718587875366,-6.004489421844482,-2.7595226764678955
1780751955716976600,26.1119765625,-2.9925239086151123,-7.99382209777832,0.010468599386513233
1780751955765493500,26.160493408203124,0.5641079545021057,-8.684151649475098,0.10378868132829666
1780751955814010000,26.209010009765624,0.46331027150154114,-6.861119747161865,4.619643211364746
1780751955862526700,26.257526611328124,2.3300111293792725,-8.551349639892578,2.6608188152313232
1780751955911043300,26.306043212890625,1.4279168844223022,-13.607982635498047,3.5590245723724365
1780751955959560000,26.354559814453125,-1.4174482822418213,-13.296317100524902,2.3895325660705566
1780751956008076500,26.40307666015625,-2.669492721557617,-6.601797580718994,-3.1489546298980713
1780751956056593200,26.45159326171875,-1.994118571281433,-9.847063064575195,-3.7863426208496094
1780751956105109800,26.50010986328125,-3.9535412788391113,-20.761924743652344,-0.8877372145652771
1780751956153626400,26.54862646484375,-2.8450660705566406,-10.522138595581055,8.189136505126953
1780751956202143200,26.597143310546876,3.6197423934936523,-5.467599868774414,1.9746768474578857
1780751956250659800,26.645659912109377,2.494218587875366,-7.64447021484375,-4.0456647872924805
1780751956299176400,26.694176513671874,1.7697914838790894,-5.556134223937988,-1.1485549211502075
1780751956347693000,26.742693115234374,1.4745769500732422,-6.0472612380981445,2.407179594039917
1780751956396209400,26.79120947265625,0.24825534224510193,-17.191831588745117,1.1063814163208008
1780751956444726300,26.839726318359375,0.6382854580879211,-14.216656684875488,3.1489546298980713
1780751956493243000,26.888242919921876,-3.696312665939331,-13.780863761901855,-4.028914928436279
1780751956590276000,26.985276123046877,-1.8885352611541748,-12.175579071044922,-1.8032909631729126
1780751956638793000,27.03379296875,0.08793623000383377,-6.974479675292969,-3.3179476261138916
1780751956687309600,27.0823095703125,-1.2484551668167114,-6.376872539520264,0.9053842425346375
1780751956735826000,27.130825927734374,-1.4605190753936768,-9.184550285339355,-0.43130627274513245
1780751956784342500,27.179342529296875,0.025423740968108177,-8.459226608276367,2.2301106452941895
1780751956832859400,27.227859375,0.2847459018230438,-7.394420146942139,4.602295398712158
1780751956881376000,27.2763759765625,3.195913791656494,-8.203493118286133,0.2431706041097641
1780751956929892600,27.324892578125,0.6819544434547424,-13.490734100341797,4.074079513549805
1780751956978409200,27.3734091796875,-1.9423737525939941,-13.277174949645996,-1.2251251935958862
1780751957026925800,27.42192578125,-1.6085749864578247,-5.236393451690674,-3.336193084716797
1780751957075442400,27.4704423828125,-3.0765717029571533,-15.987345695495605,-1.927717685699463
1780751957123959000,27.518958984375,-4.507479667663574,-18.41695785522461,3.4657044410705566
1780751957172475600,27.5674755859375,1.0064810514450073,-6.474380016326904,7.348358154296875
1780751957220992300,27.6159921875,3.053839921951294,-7.496713161468506,-2.014756679534912
1780751957269509000,27.664509033203124,2.4711875915527344,-6.420541286468506,-4.018446445465088
1780751957318025500,27.713025390625,2.3386850357055664,-4.800002098083496,0.0568295381963253
1780751957366542000,27.7615419921875,-1.1979068517684937,-9.053544044494629,1.5643078088760376
1780751957415058700,27.81005859375,4.149752616882324,-16.610076904296875,1.7635103464126587
1780751957463575300,27.8585751953125,-1.9175482988357544,-14.96411418914795,1.9079769849777222
1780751957512092200,27.907092041015623,-2.9001009464263916,-11.495718002319336,-2.416750907897949
1780751957560608800,27.95560888671875,-1.1572288274765015,-9.437891006469727,0.3852444589138031
1780751957609125000,28.004125,-1.693520188331604,-11.276775360107422,-3.5662031173706055
1780751957657641700,28.052641845703125,0.6038886308670044,-6.002096652984619,-3.8668015003204346
1780751957706158600,28.10115869140625,-2.2923240661621094,-7.63310432434082,1.2376874685287476
1780751957754675200,28.14967529296875,-1.2233306169509888,-10.49970531463623,-0.38614174723625183
1780751957803191800,28.19819189453125,0.27696922421455383,-6.521039962768555,2.6392834186553955
1780751957851708200,28.246708251953127,2.1879372596740723,-6.368198394775391,3.050250768661499
1780751957900225000,28.29522509765625,2.4661028385162354,-11.200204849243164,1.3806586265563965
1780751957948741600,28.34374169921875,-1.2625130414962769,-14.9342041015625,3.301496982574463
1780751957997258200,28.39225830078125,-1.449153184890747,-9.109476089477539,-3.6131622791290283
1780751958045774800,28.44077490234375,-1.3776676654815674,-8.244171142578125,-1.6328023672103882
1780751958094291200,28.489291259765626,-5.875874996185303,-22.434507369995117,-1.3845469951629639
1780751958191324700,28.58632470703125,3.8724844455718994,-4.668995380401611,3.7226338386535645
1780751958239841300,28.63484130859375,2.644667148590088,-7.010073184967041,-4.227519512176514
1780751958288358000,28.68335791015625,1.2577273845672607,-5.78644323348999,-1.5442678928375244
1780751958336874500,28.73187451171875,2.137687921524048,-5.343770980834961,0.9481559991836548
1780751958385391000,28.78039111328125,-2.5283162593841553,-14.247464179992676,2.274078845977783
1780751958433907700,28.82890771484375,5.2492547035217285,-14.115859031677246,2.3359930515289307
1780751958482424300,28.87742431640625,-5.225027561187744,-15.823138236999512,-1.028315544128418
1780751958530941000,28.92594091796875,-0.36221352219581604,-8.773882865905762,-1.2451651096343994
1780751958579457500,28.97445751953125,-1.1766705513000488,-9.868598937988281,0.054137613624334335
1780751958627974100,29.02297412109375,-1.628016710281372,-11.300403594970703,-4.694717884063721
1780751958676490800,29.07149072265625,0.21385852992534637,-6.515655994415283,-2.2429721355438232
1780751958725007400,29.12000732421875,-2.7987051010131836,-8.229515075683594,0.8859425783157349
1780751958773524000,29.16852392578125,0.014955141581594944,-9.037691116333008,0.3278166949748993
1780751958822040600,29.21704052734375,-0.6020939946174622,-6.894619464874268,2.706880569458008
1780751958870557200,29.26555712890625,2.633002281188965,-7.281957626342773,2.523829698562622
1780751958919073800,29.31407373046875,2.7762725353240967,-11.706286430358887,2.131406784057617
1780751958967590400,29.36259033203125,-1.9094724655151367,-15.222539901733398,2.344068765640259
1780751959016107000,29.41110693359375,-2.280359983444214,-8.14815902709961,-3.8341991901397705
1780751959064623600,29.45962353515625,-1.2544373273849487,-7.540382385253906,-2.834597587585449
1780751959113140200,29.50814013671875,-3.479762315750122,-20.457138061523438,-0.29850462079048157
1780751959161656800,29.55665673828125,-3.7806596755981445,-12.90628719329834,8.93958568572998
1780751959210173400,29.60517333984375,4.200899124145508,-6.776473522186279,1.8505492210388184
1780751959258690000,29.65368994140625,2.6240291595458984,-8.101499557495117,-3.9595232009887695
1780751959307206700,29.70220654296875,1.9022940397262573,-5.221737384796143,-0.7953144311904907
1780751959355723300,29.75072314453125,1.7802600860595703,-4.077968120574951,0.47676992416381836
1780751959404239600,29.799239501953124,-1.1748759746551514,-15.459129333496094,-0.8177471160888672
1780751959452756500,29.847756591796873,5.227719306945801,-13.149158477783203,2.328814744949341
1780751959501273000,29.896273193359374,-5.847161293029785,-15.229718208312988,-0.22163519263267517
1780751959549789700,29.944789794921874,-0.5542375445365906,-8.146065711975098,-0.13698910176753998
1780751959598306000,29.99330615234375,-2.0641086101531982,-11.753544807434082,-0.7594220638275146
1780751959646823000,30.041822998046875,-1.1431710720062256,-9.994221687316895,-4.897210597991943
1780751959743856000,30.138856201171876,-2.6847469806671143,-8.596514701843262,-0.7465606927871704
1780751959792372500,30.18737255859375,0.4331009089946747,-8.281558990478516,0.2234298139810562
1780751959840889300,30.235889404296874,0.8512466549873352,-6.729215621948242,4.532604217529297
1780751959889406000,30.284406005859374,2.7379872798919678,-8.285746574401855,2.6162524223327637
1780751959937922600,30.332922607421875,0.9436694383621216,-14.004592895507812,2.7020950317382812
1780751959986439000,30.38143896484375,-1.9630118608474731,-12.922738075256348,0.7657032608985901
1780751960034955500,30.42995556640625,-2.2764716148376465,-6.238088607788086,-3.375375509262085
1780751960083472400,30.478472412109376,-1.8454644680023193,-12.941282272338867,-4.155435562133789
1780751960131988700,30.52698876953125,-5.145166873931885,-20.3695011138916,2.5920250415802
1780751960180505300,30.57550537109375,0.06939185410737991,-8.200202941894531,9.150752067565918
1780751960229022000,30.62402197265625,3.156731367111206,-6.792625427246094,-0.022133609279990196
1780751960277538800,30.672538818359374,2.3315064907073975,-6.7085771560668945,-4.77667236328125
1780751960326055200,30.72105517578125,2.335394859313965,-4.538287162780762,-0.8838488459587097
1780751960374571800,30.76957177734375,0.9490532875061035,-6.51954460144043,0.7232306599617004
1780751960423088400,30.81808837890625,0.3484548032283783,-19.22064781188965,0.041575293987989426
1780751960471605000,30.86660498046875,2.9015965461730957,-13.541581153869629,4.043272018432617
1780751960520121600,30.91512158203125,-5.226522922515869,-13.427024841308594,-1.8394824266433716
1780751960568638200,30.96363818359375,-0.8105686902999878,-7.10010290145874,0.28893333673477173
1780751960617154800,31.01215478515625,-1.4371891021728516,-10.969297409057617,-1.0609177350997925
1780751960665671400,31.06067138671875,-0.27696922421455383,-8.134101867675781,-5.209773063659668
1780751960714188000,31.10918798828125,-0.47198426723480225,-6.431009769439697,1.1001001596450806
1780751960762704600,31.15770458984375,-2.4038894176483154,-10.789237022399902,0.23778675496578217
1780751960811221200,31.20622119140625,-0.7456633448600769,-9.12293529510498,0.9696913957595825
1780751960859737600,31.254737548828125,1.2113664150238037,-5.810670852661133,2.0608184337615967
1780751960908254200,31.303254150390625,4.529015064239502,-7.528717517852783,1.7880367040634155
1780751960956771000,31.35177099609375,-0.6876373887062073,-14.911173820495605,4.288536548614502
1780751961005287700,31.40028759765625,-1.5212370157241821,-12.676277160644531,0.16121642291545868
1780751961053804000,31.448803955078127,-2.430509567260742,-4.515256404876709,-2.282752752304077
1780751961102320600,31.497320556640624,-1.8625133037567139,-14.880964279174805,-2.699103832244873
1780751961150837200,31.545837158203124,-5.84147834777832,-20.777477264404297,1.3725829124450684
1780751961199353900,31.594353759765625,0.8177471160888672,-7.8684983253479,7.894819259643555
1780751961247870500,31.642870361328125,2.8325037956237793,-6.457630157470703,0.0023928226437419653
1780751961344903400,31.7399033203125,2.171187400817871,-4.948357105255127,-1.181456208229065
1780751961393420300,31.788420166015626,0.19680966436862946,-7.759026527404785,0.9314061999320984
1780751961441937000,31.83693701171875,0.7283154129981995,-18.317955017089844,2.9006991386413574
1780751961490453500,31.88545361328125,2.123929262161255,-12.931711196899414,3.846163272857666
1780751961538969900,31.933969970703124,-4.4736809730529785,-14.82652759552002,-2.6168506145477295
1780751961587486700,31.98248681640625,-0.11635100096464157,-7.147959232330322,-0.42741793394088745
1780751961636003300,32.03100341796875,-1.425225019454956,-11.587542533874512,-0.9529415965080261
1780751961684519700,32.07951977539062,-0.763310432434082,-8.426624298095703,-5.340780258178711
1780751961733036300,32.128036376953126,-1.2969099283218384,-6.689733982086182,-0.2105683982372284
1780751961781553200,32.17655322265625,-2.2325034141540527,-9.522537231445312,-0.4052843451499939
1780751961830069500,32.22506958007813,0.16360925137996674,-7.731209754943848,1.352842092514038
1780751961878586000,32.273586181640624,-0.024526432156562805,-7.794919013977051,4.622035980224609
1780751961927102700,32.32210278320313,2.66560435295105,-8.10688304901123,1.8966110944747925
1780751961975619300,32.370619384765625,1.358525037765503,-12.521042823791504,2.9856443405151367
1780751962024136000,32.41913598632812,-2.1032910346984863,-14.12243938446045,-0.15643078088760376
1780751962072652500,32.467652587890626,-2.097907304763794,-7.096214771270752,-3.461517095565796
1780751962121169000,32.5161689453125,-2.4110679626464844,-12.859028816223145,-2.533101797103882
1780751962169685500,32.564685546875,-5.2181477546691895,-18.80339813232422,0.9098708033561707
1780751962218202400,32.613202392578124,-0.8294121623039246,-7.892426490783691,6.773183822631836
1780751962266718700,32.66171875,2.659024238586426,-5.883352756500244,-0.615553617477417
1780751962315235300,32.7102353515625,2.665006160736084,-5.91505765914917,-4.489533424377441
1780751962363752000,32.758751953125,1.9660029411315918,-6.091528415679932,-0.6930212378501892
1780751962412268500,32.8072685546875,-0.5401797294616699,-8.952446937561035,1.9579271078109741
1780751962460785200,32.85578515625,2.079961061477661,-16.740785598754883,2.203789710998535
1780751962509301800,32.9043017578125,1.0815558433532715,-13.776078224182129,3.0011978149414062
1780751962557818400,32.952818359375,-4.226323127746582,-12.728321075439453,-2.456531524658203
1780751962606334700,33.001334716796876,-1.051944613456726,-8.651549339294434,0.0014955141814425588
1780751962654851600,33.0498515625,-1.6495521068572998,-12.113066673278809,-2.562114953994751
1780751962703368200,33.0983681640625,0.21595224738121033,-6.732804775238037,-4.3483567237854
1780751962751884500,33.146884521484374,-1.7395820617675781,-6.723831653594971,-0.03290131315588951
1780751962848917500,33.24391748046875,-0.1585244983434677,-8.31834888458252,1.9564316272735596
1780751962897434400,33.29243432617187,0.882951557636261,-7.432705402374268,4.54546594619751
1780751962945951000,33.340950927734376,3.262314558029175,-8.749954223632812,1.8625133037567139
1780751962994467300,33.38946728515625,0.4651049077510834,-15.1746826171875,3.8021950721740723
1780751963042984000,33.43798388671875,-2.0213370323181152,-12.168400764465332,-0.5479564070701599
1780751963091500800,33.486500732421874,-3.054737091064453,-5.494519233703613,-2.429612398147583
1780751963140017200,33.53501708984375,-1.9399809837341309,-14.929718017578125,-2.0156540870666504
1780751963188533800,33.58353369140625,-3.912863254547119,-16.581363677978516,1.8287147283554077
1780751963237050400,33.63205029296875,-0.25274190306663513,-7.408777236938477,6.174977779388428
1780751963285567000,33.68056689453125,2.964108943939209,-7.086045265197754,-1.5966109037399292
1780751963334083600,33.72908349609375,1.7569299936294556,-6.535397052764893,-3.1663026809692383
1780751963382600200,33.77760009765625,2.3799612522125244,-5.645267009735107,0.4450650215148926
1780751963431116500,33.82611645507812,-0.6705885529518127,-10.365707397460938,2.531008243560791
1780751963479633200,33.874633056640626,3.611666679382324,-16.263118743896484,1.5855441093444824
1780751963528149800,33.92314965820312,-2.2292134761810303,-14.290834426879883,1.1374880075454712
1780751963576666400,33.97166625976563,-2.705385208129883,-10.914261817932129,-2.8202404975891113
1780751963625183000,34.020182861328124,-0.6948158740997314,-9.020941734313965,-0.35832518339157104
1780751963673699600,34.06869946289063,-1.7084753513336182,-11.759227752685547,-3.525225877761841
1780751963722216000,34.1172158203125,0.1666002720594406,-6.136693000793457,-1.934298038482666
1780751963770732800,34.16573291015625,-2.500499725341797,-7.377072334289551,1.150349497795105
1780751963819249200,34.214249267578126,-0.8255237936973572,-9.754940032958984,-0.8662018179893494
1780751963867765800,34.26276586914062,-0.4785645306110382,-7.241279602050781,2.1209380626678467
1780751963916282400,34.31128247070313,2.4717857837677,-7.192226886749268,3.314059257507324
1780751963964799000,34.35979907226562,2.8755745887756348,-11.500802993774414,0.9604191780090332
1780751964013315600,34.40831567382813,-0.7465606927871704,-15.026028633117676,2.7406792640686035
1780751964061832200,34.456832275390624,-2.7427730560302734,-8.213064193725586,-2.2582263946533203
1780751964110348500,34.5053486328125,-2.861815929412842,-8.523234367370605,-2.775674343109131
1780751964158865200,34.553865234375,-3.690629720687866,-21.082263946533203,-0.532103955745697
1780751964207381800,34.6023818359375,-3.2404799461364746,-11.910573959350586,7.732705593109131
1780751964255898400,34.6508984375,3.5294134616851807,-5.2507500648498535,3.0837502479553223
1780751964304415000,34.6994150390625,3.1432716846466064,-7.074679374694824,-5.289633750915527
1780751964352931300,34.747931396484375,1.4817553758621216,-6.273382663726807,-2.3575284481048584
1780751964449964800,34.84496484375,-1.0887342691421509,-15.447464942932129,1.4602199792861938
1780751964498481200,34.89348120117187,4.917848587036133,-14.064413070678711,2.352742910385132
1780751964546997800,34.94199780273438,-5.153541564941406,-14.236397743225098,-0.4576273262500763
1780751964595514000,34.99051416015625,-0.9038887619972229,-9.358329772949219,-0.22402802109718323
1780751964644031000,35.03903100585938,-1.5361921787261963,-9.965209007263184,-1.38933265209198
1780751964692547600,35.087547607421875,-0.03200400248169899,-9.117551803588867,-7.127620220184326
1780751964741064000,35.13606396484375,-0.20907287299633026,-6.380162239074707,-0.3206382393836975
1780751964789580500,35.18458056640625,-2.1287147998809814,-9.941579818725586,0.8838488459587097
1780751964838097200,35.23309716796875,0.26620152592658997,-9.629316329956055,1.8409779071807861
1780751964886613800,35.28161376953125,0.06849455088376999,-6.174977779388428,2.903391122817993
1780751964935130400,35.33013037109375,3.5886356830596924,-7.506284713745117,1.4629119634628296
1780751964983646700,35.378646728515626,1.9157536029815674,-13.767404556274414,2.644068956375122
1780751965032163300,35.42716333007812,-1.8191434144973755,-14.730216026306152,1.0911271572113037
1780751965080680000,35.47567993164063,-2.6479573249816895,-6.052944183349609,-2.084746837615967
1780751965129196500,35.524196533203124,-2.2606191635131836,-10.883454322814941,-3.2955150604248047
1780751965177713200,35.57271313476563,-5.076971530914307,-20.80469512939453,1.0785647630691528
1780751965226229800,35.621229736328125,-0.9891330599784851,-10.01874828338623,7.9025959968566895
1780751965274746400,35.66974633789062,3.0652058124542236,-6.214758396148682,-0.44446679949760437
1780751965323262700,35.7182626953125,2.7125635147094727,-5.25553560256958,-4.083052635192871
1780751965371779300,35.766779296875,1.9770697355270386,-5.135894775390625,-0.5964110493659973
1780751965420296000,35.8152958984375,2.075474500656128,-6.483053684234619,1.83619225025177
1780751965468812300,35.86381225585937,-0.6508477330207825,-19.102800369262695,1.007378339767456
1780751965517329200,35.9123291015625,3.4672000408172607,-12.358031272888184,3.4112677574157715
1780751965565845500,35.96084545898437,-5.805585861206055,-13.640584945678711,-2.549851655960083
1780751965614362000,36.00936206054688,0.2760719060897827,-8.286344528198242,-1.0785647630691528
1780751965662878700,36.057878662109374,-1.4141582250595093,-10.911271095275879,-1.0552347898483276
1780751965711395300,36.10639526367188,-0.02153540402650833,-8.277371406555176,-5.01296329498291
1780751965759912000,36.154911865234375,-0.8201399445533752,-6.939185619354248,0.11096715182065964
1780751965808428300,36.20342822265625,-2.9306094646453857,-9.982257843017578,0.06999006122350693
1780751965856945000,36.25194482421875,0.07567301392555237,-8.450851440429688,1.1724830865859985
1780751965905461500,36.30046142578125,1.5687943696975708,-6.2276201248168945,3.264707326889038
1780751966002494700,36.39749462890625,-0.39182472229003906,-15.723237991333008,3.619443416595459
1780751966051011000,36.446010986328126,-3.029911756515503,-12.050254821777344,-1.0103694200515747
1780751966099527700,36.49452758789062,-1.755733609199524,-4.500001907348633,-2.768495798110962
1780751966148044300,36.54304418945313,-0.062213387340307236,-13.875380516052246,-2.5226333141326904
1780751966196561000,36.591560791015624,-6.700800895690918,-18.957735061645508,3.3792638778686523
1780751966245077200,36.6400771484375,0.519242525100708,-7.2574310302734375,5.534000396728516
1780751966293593900,36.68859375,3.1034910678863525,-6.20219612121582,-2.381755828857422
1780751966342110500,36.7371103515625,2.193620204925537,-5.612066268920898,-3.336193084716797
1780751966390627000,36.785626953125,1.9492532014846802,-5.400002479553223,0.8676972985267639
1780751966439143700,36.83414379882812,-0.8599206209182739,-11.410473823547363,2.394318103790283
1780751966487660000,36.882659912109375,4.114757537841797,-17.07757568359375,1.2843475341796875
1780751966536176600,36.9311767578125,-3.0188448429107666,-14.428720474243164,1.5137593746185303
1780751966584693200,36.979693359375,-1.2729816436767578,-10.048359870910645,-1.7099708318710327
1780751966633209900,37.0282099609375,-1.4994025230407715,-9.969097137451172,-0.8135597109794617
1780751966681726200,37.07672631835938,-1.5439687967300415,-10.900802612304688,-3.90987229347229
1780751966730242800,37.125242919921874,0.39481574296951294,-5.6685967445373535,-2.4406790733337402
1780751966778759400,37.17375952148438,-3.0795626640319824,-8.259425163269043,0.4540380835533142
1780751966827276000,37.222276123046875,0.09391828626394272,-9.934999465942383,-0.43938204646110535
1780751966875792400,37.27079248046875,-0.40378883481025696,-6.561119556427002,3.341277837753296
1780751966924309000,37.31930908203125,2.4750759601593018,-7.47338342666626,2.4149563312530518
1780751966972825600,37.36782568359375,2.6617159843444824,-11.736196517944336,1.848754644393921
1780751967021342200,37.41634228515625,-1.6277176141738892,-14.676976203918457,1.9749759435653687
1780751967069858800,37.46485888671875,-3.057429075241089,-7.486543655395508,-2.9201409816741943
1780751967118375400,37.51337548828125,-2.600399971008301,-10.290931701660156,-2.7595226764678955
1780751967166891800,37.56189184570312,-4.1006999015808105,-22.03729820251465,-0.20039889216423035
1780751967215408400,37.61040844726563,-1.8610178232192993,-9.628120422363281,7.792825222015381
1780751967263925000,37.658925048828124,2.8073792457580566,-5.100002288818359,1.714158296585083
1780751967312441600,37.70744165039063,2.8920252323150635,-6.116652965545654,-5.246861934661865
1780751967360958000,37.7559580078125,1.913360834121704,-5.524130344390869,-1.3926228284835815
1780751967409474600,37.804474609375,1.848754644393921,-6.592226505279541,1.8909281492233276
1780751967457991200,37.8529912109375,-0.6460621356964111,-18.21416664123535,2.117648124694824
1780751967555024100,37.950024169921875,-4.802993297576904,-14.360824584960938,-3.0370900630950928
1780751967603540700,37.99854077148437,0.7594220638275146,-6.652944087982178,-1.4276177883148193
1780751967652057000,38.04705712890625,-1.3280165195465088,-11.36052417755127,-0.4181457459926605
1780751967700574000,38.09557397460937,-0.8437690734863281,-9.091828346252441,-4.383651256561279
1780751967749090300,38.14409033203125,-0.9266205430030823,-6.511767864227295,-0.27696922421455383
1780751967797607000,38.19260693359375,-2.29142689704895,-9.596116065979004,-0.23599213361740112
1780751967846123300,38.241123291015626,0.5853442549705505,-8.22114086151123,1.2472587823867798
1780751967894640000,38.28964013671875,-0.08135596662759781,-7.304689407348633,3.9122650623321533
1780751967943156500,38.33815649414063,3.053241729736328,-8.140382766723633,1.4108680486679077
1780751967991673000,38.386673095703124,0.7992027401924133,-14.11526107788086,3.545564889907837
1780751968040189700,38.43518969726563,-1.9923239946365356,-13.970195770263672,-0.2183450609445572
1780751968088706300,38.483706298828125,-2.3258235454559326,-5.583950519561768,-2.8827531337738037
1780751968137222700,38.53222265625,-0.9900303483009338,-10.03310489654541,-2.941676378250122
1780751968185739300,38.5807392578125,-5.019543647766113,-21.395124435424805,0.37148571014404297
1780751968234255600,38.62925561523438,-0.9858429431915283,-9.474979400634766,6.9756760597229
1780751968282772200,38.677772216796875,2.84087872505188,-5.341677665710449,0.8703892230987549
1780751968331289000,38.7262890625,1.9567307233810425,-5.810371398925781,-3.9400815963745117
1780751968379805400,38.774805419921876,2.321038007736206,-5.195715427398682,-0.9385846853256226
1780751968428322000,38.82332202148437,1.6588243246078491,-7.189534664154053,2.80977201461792
1780751968476838700,38.87183862304688,-0.5255236625671387,-19.404296875,1.425225019454956
1780751968525355000,38.92035498046875,1.1012966632843018,-14.097015380859375,3.3308091163635254
1780751968573871600,38.96887158203125,-3.092125177383423,-12.918251037597656,-2.971287488937378
1780751968622388000,39.01738793945312,-0.3574278950691223,-7.078866481781006,-0.019740786403417587
1780751968670904600,39.06590454101563,-1.1772687435150146,-11.257332801818848,-1.3657035827636719
1780751968719421200,39.114421142578124,0.7615157961845398,-7.835597038269043,-4.475475788116455
1780751968767937500,39.1629375,-2.0715861320495605,-7.308577537536621,0.4250251352787018
1780751968816454400,39.211454345703125,-2.014756679534912,-9.51476001739502,-1.1724830865859985
1780751968864970800,39.259970703125,0.8566305041313171,-8.10269546508789,1.4964114427566528
1780751968913487400,39.3084873046875,1.1682956218719482,-7.085147857666016,5.650949954986572
1780751968962003700,39.35700366210938,2.778067111968994,-9.034400939941406,0.7794619798660278
1780751969010520300,39.405520263671875,-0.9523434042930603,-15.338890075683594,3.637688636779785
1780751969059037000,39.45403686523437,-1.379163146018982,-12.484850883483887,-1.3088740110397339
1780751969156070000,39.55106982421875,-1.5439687967300415,-12.807882308959961,-3.422334671020508
1780751969204586500,39.59958642578125,-5.761019706726074,-18.62034797668457,1.2484551668167114
1780751969253103000,39.64810302734375,0.4695914387702942,-8.004590034484863,6.601797580718994
1780751969301619700,39.69661962890625,2.641676187515259,-6.138188362121582,-1.0839486122131348
1780751969350136000,39.74513598632812,2.129014015197754,-5.748457431793213,-3.178565740585327
1780751969398652700,39.79365258789063,2.7478578090667725,-4.749752998352051,0.3287140130996704
1780751969447169300,39.842169189453124,-0.4298107624053955,-10.27777099609375,2.98085880279541
1780751969495685600,39.890685546875,2.3084757328033447,-18.417556762695312,1.9363917112350464
1780751969544202200,39.9392021484375,-0.4085744619369507,-13.048660278320312,2.342573404312134
1780751969592718600,39.98771850585938,-2.706880569458008,-11.522039413452148,-2.791825771331787
1780751969641235200,40.036235107421874,-0.9852447509765625,-9.534799575805664,-0.9299107193946838
1780751969689751800,40.08475170898438,-1.6351951360702515,-10.397412300109863,-2.255833625793457
1780751969738268400,40.133268310546875,1.072582721710205,-6.777071952819824,-3.2078778743743896
1780751969786785000,40.18178491210937,-1.8526428937911987,-6.652645111083984,0.4944169819355011
1780751969835301400,40.23030126953125,-1.8478572368621826,-10.469496726989746,-0.3798605799674988
1780751969883818000,40.27881787109375,0.001794616924598813,-7.608278751373291,2.462812662124634
1780751969932334600,40.32733447265625,1.5738791227340698,-7.463811874389648,2.6967110633850098
1780751969980851000,40.37585083007812,3.0652058124542236,-10.538887977600098,1.4261223077774048
1780751970029367600,40.424367431640626,-1.6564314365386963,-15.81266975402832,4.509573459625244
1780751970077884200,40.47288427734375,-2.3410778045654297,-11.011770248413086,-2.0012969970703125
1780751970126400500,40.521400390625,-1.685145378112793,-4.247260093688965,-2.83878493309021
1780751970174917000,40.56991723632812,-0.672383189201355,-14.753545761108398,-2.9766714572906494
1780751970223433700,40.61843383789063,-6.486343860626221,-18.416059494018555,2.9048867225646973
1780751970271950000,40.6669501953125,1.7892330884933472,-6.818647384643555,6.030810356140137
1780751970320466700,40.715466796875,2.2549362182617188,-6.377769470214844,-1.5451651811599731
1780751970368983300,40.7639833984375,2.360220432281494,-5.814558982849121,-4.055236339569092
1780751970417500000,40.8125,1.8741782903671265,-4.989633560180664,0.24406790733337402
1780751970466016300,40.861016357421875,-0.3690928816795349,-10.581958770751953,1.9079769849777222
1780751970514532600,40.90953271484375,2.6183462142944336,-18.20848274230957,2.4248266220092773
1780751970563049200,40.95804931640625,-0.6804589629173279,-15.564713478088379,1.0298110246658325
1780751970611565800,41.00656591796875,-1.3926228284835815,-9.078967094421387,-1.4219348430633545
1780751970660082400,41.05508251953125,-2.33389949798584,-8.036892890930176,0.9364909529685974
1780751970757115600,41.15211572265625,0.20488543808460236,-6.6831536293029785,-4.609473705291748
1780751970805632000,41.20063208007812,-1.5140584707260132,-7.326822757720947,0.5928218364715576
1780751970854148600,41.24914868164063,-0.40289151668548584,-9.81535816192627,0.16450655460357666
1780751970902665000,41.2976650390625,-0.31824541091918945,-7.943274021148682,3.1387851238250732
1780751970951181300,41.346181396484376,0.9218349456787109,-6.629614353179932,3.691227912902832
1780751970999698200,41.3946982421875,3.263211965560913,-10.166206359863281,0.3128615617752075
1780751971048214500,41.44321459960938,-0.5647061467170715,-15.462419509887695,3.783052682876587
1780751971096731100,41.49173120117187,-2.1894326210021973,-12.42413330078125,-0.5518447160720825
1780751971145247500,41.54024755859375,-2.6727828979492188,-5.584249973297119,-2.7451658248901367
1780751971193764000,41.58876416015625,-1.3094722032546997,-12.939786911010742,-3.750450372695923
1780751971242280700,41.63728076171875,-5.311468124389648,-17.141284942626953,3.972683906555176
1780751971290797000,41.685797119140624,0.6254240274429321,-8.344670295715332,5.504090309143066
1780751971339313700,41.73431372070313,2.6551358699798584,-6.6367926597595215,-1.8047864437103271
1780751971387830300,41.782830322265625,2.235494613647461,-5.686244010925293,-2.8253252506256104
1780751971436347000,41.83134692382812,2.3503501415252686,-5.139184951782227,-0.06311069428920746
1780751971484863200,41.87986328125,0.18035900592803955,-8.906683921813965,2.7044878005981445
1780751971533379600,41.92837963867188,2.218146562576294,-18.024234771728516,1.7539390325546265
1780751971581896200,41.976896240234375,-0.20159530639648438,-14.15683650970459,2.903391122817993
1780751971630412800,42.02541284179687,-3.1983065605163574,-12.531211853027344,-3.279961585998535
1780751971678929400,42.073929443359376,-1.0845468044281006,-8.386244773864746,-0.6436693072319031
1780751971727446000,42.12244604492187,-1.285843014717102,-11.00459098815918,-2.3856441974639893
1780751971775962400,42.17096240234375,0.8557332158088684,-7.299006462097168,-3.7471601963043213
1780751971824478700,42.21947875976562,-1.9866410493850708,-7.049853801727295,0.32721850275993347
1780751971872995300,42.267995361328126,-1.0265209674835205,-10.005887031555176,-0.4124628007411957
1780751971921512000,42.31651196289062,0.18035900592803955,-7.889734268188477,2.2636101245880127
1780751971970028500,42.36502856445313,1.5026925802230835,-6.760322093963623,4.637888431549072
1780751972018545000,42.413544921875,2.6862425804138184,-10.322038650512695,0.597308337688446
1780751972067061200,42.462061279296876,-0.3278166949748993,-15.89013671875,3.996013879776001
1780751972115577900,42.51057788085937,-1.5409778356552124,-11.7056884765625,0.029312077909708023
1780751972164094500,42.55909448242188,-2.4032912254333496,-5.816951751708984,-2.2842483520507812
1780751972261127400,42.65612744140625,-5.0327043533325195,-18.08734703063965,0.7806583642959595
1780751972309644000,42.70464404296875,-0.750449001789093,-9.151947975158691,6.758228302001953
1780751972358160600,42.75316064453125,3.1136605739593506,-6.040979862213135,-0.6143572330474854
1780751972406677000,42.801677001953124,1.8975083827972412,-6.071488380432129,-3.253640651702881
1780751972455193600,42.85019360351563,2.0333011150360107,-5.400600910186768,0.14297115802764893
1780751972503710000,42.8987099609375,1.5466607809066772,-7.775177955627441,2.727219581604004
1780751972552226600,42.9472265625,0.1091725304722786,-18.183059692382812,2.004587173461914
1780751972600743200,42.9957431640625,1.2873386144638062,-12.389437675476074,3.822833299636841
1780751972649259500,43.04425952148438,-4.203591346740723,-14.343476295471191,-4.071088790893555
1780751972697776000,43.092776123046875,0.15254244208335876,-7.967501163482666,-1.3414762020111084
1780751972746292700,43.14129272460937,-1.9459630250930786,-11.364112854003906,-1.5188441276550293
1780751972794809300,43.189809326171876,0.08703892678022385,-8.25523853302002,-4.095016956329346
1780751972843325700,43.23832568359375,-0.8991031050682068,-6.846762657165527,-0.33020952343940735
1780751972940358700,43.33535864257812,0.8246265053749084,-7.482356548309326,2.357827663421631
1780751972988875300,43.383875244140626,0.9924231767654419,-5.6895341873168945,2.843271493911743
1780751973037391600,43.4323916015625,2.754737138748169,-9.387042999267578,1.3079767227172852
1780751973085908200,43.480908203125,-0.22881366312503815,-15.870097160339355,4.233800411224365
1780751973134424800,43.5294248046875,-1.1012966632843018,-12.968201637268066,0.22642084956169128
1780751973182941200,43.577941162109376,-2.6733810901641846,-4.958825588226318,-2.0673987865448
1780751973231457800,43.62645776367187,-1.5260226726531982,-10.051350593566895,-2.948854923248291
1780751973279974400,43.67497436523438,-4.88763952255249,-21.266809463500977,-0.23449662327766418
1780751973328490800,43.72349072265625,-0.6454638838768005,-9.144471168518066,7.715357303619385
1780751973377007400,43.77200732421875,2.609971284866333,-5.7490553855896,1.3070793151855469
1780751973425524000,43.82052392578125,2.3569302558898926,-5.987739562988281,-4.715356349945068
1780751973474040600,43.86904052734375,1.446162223815918,-5.396712303161621,-1.292722463607788
1780751973522557000,43.917556884765624,2.3865413665771484,-6.635895252227783,1.7476578950881958
1780751973571073300,43.9660732421875,-1.150349497795105,-18.530616760253906,1.3175479173660278
1780751973619590000,44.01458984375,2.377568483352661,-14.289039611816406,3.3278181552886963
1780751973668106500,44.0631064453125,-3.912863254547119,-13.407882690429688,-2.187039852142334
1780751973716623000,44.111623046875,-0.6502495408058167,-7.645068168640137,-0.6661019921302795
1780751973813655800,44.20865576171875,-0.4695914387702942,-8.516056060791016,-3.9131622314453125
1780751973862172700,44.25717260742187,-0.7019943594932556,-5.949155330657959,0.9206385016441345
1780751973910689000,44.30568896484375,-2.0033907890319824,-8.688937187194824,-1.4470595121383667
1780751973959205400,44.35420532226563,0.36311084032058716,-8.146065711975098,1.4437693357467651
1780751974007722000,44.402721923828125,0.34217363595962524,-7.176074981689453,4.77039098739624
1780751974056238300,44.45123828125,2.953341245651245,-9.313762664794922,0.7304090857505798
1780751974104755200,44.499755126953126,0.36610186100006104,-15.0786714553833,3.461517095565796
1780751974153271600,44.548271484375,-1.9316060543060303,-13.049856185913086,-1.0504491329193115
1780751974201788000,44.596787841796875,-2.746960401535034,-6.165705680847168,-2.604886531829834
1780751974250304500,44.64530444335937,-1.9507486820220947,-12.57129192352295,-3.0876386165618896
1780751974298821000,44.693821044921876,-4.968098163604736,-18.263816833496094,3.075674295425415
1780751974347337500,44.74233740234375,0.3038884699344635,-7.788039684295654,7.462615489959717
1780751974395854000,44.79085400390625,2.160120725631714,-6.37747049331665,-0.3810569941997528
1780751974444370700,44.83937060546875,2.439781904220581,-6.288936138153076,-5.231308460235596
1780751974492887000,44.887886962890626,2.092224359512329,-5.286343574523926,-0.33918261528015137
1780751974541403600,44.93640356445312,0.8327022790908813,-8.22114086151123,2.7550361156463623
1780751974589920000,44.984919921875,1.4165509939193726,-18.398412704467773,1.415055513381958
1780751974638436600,45.0334365234375,0.9897312521934509,-13.911273002624512,2.237887382507324
1780751974686953200,45.081953125,-3.8653059005737305,-12.299108505249023,-2.41375994682312
1780751974735469600,45.13046948242187,-0.16839489340782166,-7.814061641693115,-0.49202415347099304
1780751974783986200,45.17898608398438,-1.7132610082626343,-12.185748100280762,-0.992124080657959
1780751974832502500,45.22750244140625,0.2560320198535919,-7.292426109313965,-4.197908401489258
1780751974881019100,45.27601904296875,-2.20947265625,-6.413661956787109,0.3412763178348541
1780751974929535700,45.32453564453125,-1.3462618589401245,-9.399904251098633,-1.9184455871582031
1780751974978052000,45.37305200195313,0.9684949517250061,-7.560422420501709,2.7550361156463623
1780751975026568700,45.421568603515624,1.1380863189697266,-7.3522467613220215,3.8898322582244873
1780751975075085000,45.4700849609375,2.871387243270874,-10.19192886352539,0.4411766827106476
1780751975123601700,45.5186015625,-0.0526420995593071,-14.726028442382812,3.545564889907837
1780751975172118000,45.56711791992188,-2.08713960647583,-11.278270721435547,-1.9962122440338135
1780751975220634600,45.615634521484374,-2.352742910385132,-5.583950519561768,-1.9468603134155273
1780751975317667800,45.712667724609375,-4.428516387939453,-17.096118927001953,3.990330934524536
1780751975366184200,45.76118408203125,2.1807587146759033,-6.141777515411377,5.876772403717041
1780751975414700800,45.80970068359375,1.8391833305358887,-6.52462911605835,-1.4781662225723267
1780751975463217200,45.85821704101563,2.664108991622925,-5.913262844085693,-3.7495529651641846
1780751975511733800,45.906733642578125,2.444866418838501,-4.702793598175049,0.25274190306663513
1780751975560250400,45.95525048828125,-1.059422254562378,-10.611570358276367,2.4640090465545654
1780751975608766700,46.0037666015625,1.9040886163711548,-18.492332458496094,1.3286148309707642
1780751975657283300,46.05228344726562,-0.5727819204330444,-14.187045097351074,1.7428722381591797
1780751975705799700,46.100799560546875,-1.6238292455673218,-10.130313873291016,-2.602792739868164
1780751975754316000,46.14931591796875,-1.093519926071167,-7.456633567810059,0.851844847202301
1780751975802832600,46.19783251953125,-1.2185449600219727,-12.131610870361328,-1.9770697355270386
1780751975851349200,46.24634936523437,0.37148571014404297,-7.621738433837891,-3.312563896179199
1780751975899865900,46.29486596679688,-2.5357937812805176,-7.192226886749268,1.3184453248977661
1780751975948382200,46.34338232421875,-0.28175488114356995,-9.708279609680176,-2.7182464599609375
1780751975996898800,46.39189892578125,0.8273184299468994,-8.014161109924316,3.704089403152466
1780751976045415200,46.44041528320312,0.37477585673332214,-7.419544696807861,4.606781959533691
1780751976093931800,46.48893188476563,2.618645191192627,-9.740283966064453,0.03409772366285324
1780751976142448400,46.537448486328124,-0.6125625967979431,-14.390435218811035,3.8949170112609863
1780751976190964700,46.58596484375,-1.7341982126235962,-11.899506568908691,-0.5877370834350586
1780751976239481300,46.6344814453125,-2.7798616886138916,-6.018846035003662,-2.1230318546295166
1780751976287997700,46.68299780273438,-2.2893331050872803,-12.534502029418945,-4.7850470542907715
1780751976336514300,46.731514404296874,-4.467998027801514,-17.711074829101562,2.925823926925659
1780751976385030700,46.78003076171875,-0.45224347710609436,-9.330513000488281,7.220043182373047
1780751976433547300,46.82854736328125,2.9551360607147217,-6.504589080810547,-1.5137593746185303
1780751976482064000,46.87706396484375,1.7826528549194336,-6.7040910720825195,-3.559921979904175
1780751976530580500,46.92558056640625,2.014756679534912,-5.0943193435668945,0.04307080805301666
1780751976579096800,46.97409692382813,0.953240692615509,-7.832605838775635,2.347957134246826
1780751976627613200,47.02261328125,1.1623135805130005,-17.391633987426758,1.4015958309173584
1780751976676129800,47.0711298828125,0.9756734371185303,-13.949258804321289,2.274078845977783
1780751976724646400,47.119646484375,-3.578765392303467,-12.37657642364502,-1.8098711967468262
1780751976773162800,47.16816284179688,-0.35473597049713135,-8.9581298828125,-0.24885354936122894
1780751976821679400,47.216679443359375,-1.6917256116867065,-10.52363395690918,-1.8472590446472168
1780751976870195700,47.26519580078125,0.7671987414360046,-7.997710704803467,-4.677370071411133
1780751976918712300,47.31371240234375,-1.2783654928207397,-7.3277201652526855,0.7896314859390259
1780751976967229000,47.36222900390625,-2.0338993072509766,-10.14317512512207,-0.86470627784729
1780751977015745300,47.410745361328125,0.5488536953926086,-7.284350395202637,2.0338993072509766
1780751977064262000,47.45926196289062,1.352842092514038,-5.829813480377197,3.6945180892944336
1780751977112778500,47.507778564453126,2.967698335647583,-10.235597610473633,1.1509476900100708
1780751977161294800,47.556294921875,-0.8341978192329407,-15.90569019317627,4.411467552185059
1780751977209811500,47.6048115234375,-0.9188438653945923,-12.466606140136719,0.02063809521496296
1780751977258327800,47.65332788085937,-2.724527597427368,-5.158327579498291,-2.0027925968170166
1780751977306844400,47.701844482421876,-2.052443504333496,-11.619546890258789,-4.074079513549805
1780751977355361000,47.75036108398437,-4.605286121368408,-19.846071243286133,1.8559330701828003
1780751977403877400,47.79887744140625,-0.1785643845796585,-8.745168685913086,7.146762847900391
1780751977452394000,47.84739404296875,2.9536404609680176,-5.9566330909729,-0.26889345049858093
1780751977500910300,47.895910400390626,2.5908286571502686,-6.226722717285156,-3.939483404159546
1780751977549427000,47.94442700195312,1.5951154232025146,-5.662315845489502,-0.26081767678260803
1780751977597943300,47.992943359375,0.01824527233839035,-7.898109436035156,1.2170493602752686
1780751977646460000,48.0414599609375,3.2288150787353516,-16.861623764038086,0.06849455088376999
1780751977694976500,48.0899765625,-0.024825535714626312,-15.63948917388916,3.186342477798462
1780751977743492900,48.13849291992187,-4.799104690551758,-12.556635856628418,-2.5609183311462402
1780751977792009500,48.18700952148438,0.905982494354248,-6.7555365562438965,-0.41874396800994873
1780751977840525800,48.23552587890625,-0.9442676305770874,-11.606685638427734,-1.205085277557373
1780751977889042400,48.28404248046875,0.2554338276386261,-7.132106781005859,-3.814159393310547
1780751977937558800,48.33255883789062,-3.4618160724639893,-7.197610378265381,1.2305090427398682
1780751977986075400,48.38107543945313,-0.37477585673332214,-9.67657470703125,-2.187039852142334
1780751978034592000,48.429592041015624,1.6121642589569092,-7.591827869415283,3.94097900390625
1780751978083108600,48.47810864257813,0.1746760457754135,-7.203891754150391,2.7900311946868896
1780751978131625000,48.526625,3.2934212684631348,-11.974581718444824,-0.3756731450557709
1780751978180141300,48.57514135742188,-0.2153540402650833,-14.34736442565918,2.7702903747558594
1780751978277174500,48.67217456054688,-2.5645077228546143,-7.948059558868408,-2.5525436401367188
1780751978325691000,48.72069091796875,-2.7762725353240967,-19.227825164794922,-1.210170030593872
1780751978374207500,48.76920751953125,-3.8754754066467285,-13.653446197509766,6.908079147338867
1780751978422723800,48.817723876953124,2.865704298019409,-5.292923450469971,3.987339735031128
1780751978471240400,48.86624047851563,2.155933141708374,-6.402595043182373,-3.552743434906006
1780751978519757000,48.914757080078125,2.7726831436157227,-5.535496234893799,-2.734398126602173
1780751978568273400,48.9632734375,2.5211377143859863,-4.910969257354736,1.413260817527771
1780751978616790000,49.0117900390625,-2.83878493309021,-14.80379581451416,2.2995026111602783
1780751978665306600,49.060306640625,5.54596471786499,-16.37946891784668,1.6190435886383057
1780751978713823000,49.108822998046875,-3.4010982513427734,-13.608580589294434,0.2470589429140091
1780751978762339600,49.15733959960937,-1.3423734903335571,-8.931509971618652,-1.6911274194717407
1780751978810856000,49.20585595703125,-0.23359930515289307,-9.300004005432129,0.4776672124862671
1780751978859372500,49.25437255859375,-0.6753742098808289,-11.015059471130371,-4.49043083190918
1780751978907889200,49.30288916015625,-0.08374879509210587,-6.424130439758301,-1.572981834411621
1780751978956405500,49.35140551757812,-2.6718854904174805,-8.57767105102539,0.9819545745849609
1780751979004922000,49.399922119140626,0.14656038582324982,-9.319147109985352,0.029312077909708023
1780751979053438500,49.4484384765625,0.89581298828125,-7.061219692230225,3.9774694442749023
1780751979101955000,49.496955078125,2.909074068069458,-8.18973445892334,2.5842485427856445
1780751979150471400,49.54547143554687,0.35892340540885925,-14.411971092224121,2.74546480178833
1780751979198988000,49.593988037109376,-2.0482561588287354,-12.894323348999023,1.1279168128967285
1780751979247504400,49.64250439453125,-2.420041084289551,-4.4620161056518555,-3.4881372451782227
1780751979296021000,49.69102099609375,0.12921242415905,-10.02173900604248,-3.8291144371032715
1780751979344537600,49.73953759765625,-4.671388149261475,-24.050859451293945,2.168794631958008
1780751979393054000,49.78805395507813,-1.8529419898986816,-9.098408699035645,7.848458290100098
1780751979441570600,49.83657055664062,3.5958142280578613,-4.948955535888672,1.4817553758621216
1780751979490087000,49.8850869140625,2.245065927505493,-6.208776473999023,-4.740779876708984
1780751979538603500,49.933603515625,1.8098711967468262,-5.027918815612793,-2.1337995529174805
1780751979587120000,49.9821201171875,1.8789639472961426,-7.561917781829834,1.5927225351333618
1780751979635636500,50.03063647460937,0.3032902777194977,-18.183656692504883,2.103889226913452
1780751979684153000,50.07915307617188,0.7408776879310608,-13.502099990844727,4.0456647872924805
1780751979732669400,50.12766943359375,-4.083651065826416,-12.907782554626465,-2.4191436767578125
1780751979781186000,50.17618603515625,-0.014955141581594944,-8.204390525817871,-0.6604190468788147
1780751979829702400,50.22470239257812,-0.9050851464271545,-12.090932846069336,-2.093719720840454
1780751979878219000,50.27321899414063,-0.247358039021492,-7.372286796569824,-4.681856632232666
1780751979926735600,50.321735595703124,-1.7027924060821533,-7.786244869232178,0.7519445419311523
1780751979975252000,50.370251953125,-1.3764712810516357,-9.8240327835083,-1.1045867204666138
1780751980023768600,50.4187685546875,0.4369892477989197,-6.889833927154541,2.0042879581451416
1780751980072285000,50.46728491210938,1.7258232831954956,-6.096911907196045,4.17009162902832
1780751980120801500,50.515801513671875,2.6775684356689453,-11.106585502624512,2.0865414142608643
1780751980169318000,50.56431787109375,-0.6909275650978088,-15.388840675354004,4.178765773773193
1780751980217834500,50.61283447265625,-1.0878369808197021,-11.273185729980469,-0.03200400248169899
1780751980266351000,50.66135107421875,-2.0563318729400635,-5.074279308319092,-3.060420274734497
1780751980314867500,50.709867431640625,-0.7235297560691833,-10.778768539428711,-4.598107814788818
1780751980363384000,50.75838403320312,-6.093921184539795,-21.772891998291016,3.2461631298065186
1780751980411900400,50.806900390625,-0.3655036687850952,-9.634101867675781,7.172784805297852
1780751980460417000,50.8554169921875,4.042374610900879,-6.953542709350586,-0.6317051649093628
1780751980508933400,50.903933349609375,2.0027925968170166,-6.556334018707275,-4.122235298156738
1780751980557450000,50.95244995117187,1.9351953268051147,-4.082155227661133,-1.3558331727981567
1780751980605966300,51.00096630859375,1.3615161180496216,-6.6122660636901855,0.4013960063457489
1780751980654483000,51.04948291015625,0.15613168478012085,-17.817853927612305,-0.08763712644577026
1780751980702999600,51.09799951171875,3.138485908508301,-13.167702674865723,4.6402812004089355
1780751980751516200,51.14651611328125,-3.941876173019409,-13.611870765686035,-1.5840486288070679
1780751980800032500,51.195032470703126,-0.4995017349720001,-7.864609718322754,-0.49591249227523804
1780751980848548900,51.243548828125,-0.38285163044929504,-10.196714401245117,0.23210379481315613
1780751980897065500,51.2920654296875,-0.5757729411125183,-10.130313873291016,-4.693820953369141
1780751980945582000,51.34058203125,-0.9245268702507019,-7.189534664154053,0.24257239699363708
1780751980994098400,51.389098388671876,-2.2917258739471436,-9.68913745880127,-0.32691940665245056
1780751981042615000,51.43761499023437,0.20338992774486542,-8.02074146270752,0.7259225845336914
1780751981091131400,51.48613134765625,0.8653044700622559,-5.971588134765625,2.727219581604004
1780751981139648000,51.53464794921875,3.0254251956939697,-9.156435012817383,2.9557342529296875
1780751981188164600,51.58316455078125,-0.7600203156471252,-15.211771965026855,3.6807594299316406
1780751981236681000,51.63168090820312,-0.618245542049408,-13.122239112854004,0.7905287742614746
1780751981285197300,51.680197265625,-2.8609185218811035,-6.655935287475586,-2.2707886695861816
1780751981333714000,51.7287138671875,-1.9716858863830566,-8.237590789794922,-5.395814895629883
1780751981382230500,51.77723046875,-3.4677982330322266,-19.016658782958984,0.26500511169433594
1780751981430747000,51.82574682617187,-2.965604543685913,-12.26231861114502,6.724429607391357
1780751981479263500,51.87426342773438,3.1758737564086914,-6.372086524963379,1.2170493602752686
1780751981527779800,51.92277978515625,1.8951154947280884,-6.294918060302734,-3.185744285583496
1780751981576296400,51.97129638671875,2.1948165893554688,-4.703691005706787,-0.620638370513916
1780751981624812800,52.01981274414062,2.5211377143859863,-5.679962635040283,2.1693928241729736
1780751981673329400,52.06832934570313,-1.2427722215652466,-18.36012840270996,1.4644074440002441
1780751981721845800,52.116845703125,3.067598581314087,-14.023735046386719,3.933800458908081
1780751981770362400,52.1653623046875,-3.5916268825531006,-12.769597053527832,-1.2786645889282227
1780751981818879000,52.21387890625,-0.48484569787979126,-8.467302322387695,-1.1102696657180786
1780751981867395300,52.26239526367188,-0.23300109803676605,-10.349555969238281,0.09152546525001526
1780751981915912000,52.310911865234374,-1.2696914672851562,-10.150951385498047,-4.583152770996094
1780751981964428300,52.35942822265625,-0.6059823632240295,-6.637091636657715,-0.9490532875061035
1780751982012945000,52.40794482421875,-2.784348249435425,-9.512067794799805,-1.3654043674468994
1780751982061461200,52.45646118164063,0.4058825373649597,-8.545666694641113,0.39900317788124084
1780751982109977900,52.504977783203124,0.4459623098373413,-6.56829833984375,4.0334014892578125
1780751982158494200,52.553494140625,2.6703901290893555,-7.342077255249023,2.3946173191070557
1780751982207010800,52.6020107421875,0.6406782865524292,-14.215161323547363,2.7957141399383545
1780751982255527400,52.65052734375,-1.8496519327163696,-14.165510177612305,1.7602201700210571
1780751982304043800,52.699043701171874,-2.0985054969787598,-7.968996524810791,-2.3808584213256836
1780751982352560000,52.74756005859375,-0.9038887619972229,-8.7538423538208,-3.6161532402038574
1780751982401076700,52.79607666015625,-2.940778970718384,-18.413667678833008,-0.08554340898990631
1780751982449593300,52.84459326171875,-3.2742786407470703,-11.756834983825684,6.558128833770752
1780751982498109700,52.893109619140624,3.2844481468200684,-5.970092296600342,1.6477575302124023
1780751982546626300,52.94162622070313,1.958226203918457,-6.578467845916748,-3.892524242401123
1780751982595142700,52.990142578125,2.347957134246826,-4.8367919921875,-1.2418749332427979
1780751982643659000,53.03865893554688,1.9052850008010864,-6.82014274597168,1.3381860256195068
1780751982692175600,53.087175537109374,-1.5284154415130615,-17.42124366760254,1.1333006620407104
1780751982740692200,53.13569213867188,3.7725839614868164,-13.232309341430664,3.956233024597168
1780751982789208600,53.18420849609375,-3.813561201095581,-12.933206558227539,-1.4673985242843628
1780751982837725200,53.23272509765625,-1.1222338676452637,-9.928718566894531,-1.1237293481826782
1780751982886241800,53.28124169921875,-0.6445665955543518,-10.226325988769531,-0.5757729411125183
1780751982934758100,53.32975805664063,0.006580262444913387,-9.65085220336914,-3.5979080200195312
1780751982983274800,53.378274658203125,-0.763310432434082,-5.968596935272217,0.4298107624053955
1780751983031791000,53.426791015625,-3.539881944656372,-8.58604621887207,-1.312164068222046
1780751983080307500,53.475307373046874,1.4709876775741577,-8.486743927001953,0.7010970115661621
1780751983128824000,53.52382397460938,0.39062830805778503,-6.794120788574219,4.867898464202881
1780751983177340400,53.57234033203125,1.7907286882400513,-9.51775074005127,0.8129615187644958
1780751983274373400,53.669373291015624,-1.38933265209198,-12.722040176391602,0.3188436031341553
1780751983322890000,53.71788989257813,-2.6273193359375,-6.389733791351318,-2.0330018997192383
1780751983371406600,53.766406494140625,-1.4691931009292603,-10.9573335647583,-3.2997024059295654
1780751983419923000,53.8149228515625,-4.384249210357666,-19.360925674438477,3.2470602989196777
1780751983468439600,53.863439453125,-1.090229868888855,-9.438788414001465,6.818647384643555
1780751983516956000,53.91195581054688,2.688934564590454,-5.804987907409668,-0.11874382197856903
1780751983565472500,53.960472412109375,2.4604198932647705,-6.041278839111328,-3.7872400283813477
1780751983613988900,54.00898876953125,2.730210542678833,-4.278367042541504,-0.719641387462616
1780751983662505500,54.05750537109375,0.661914587020874,-7.334898948669434,2.1266210079193115
1780751983711021800,54.10602172851563,0.32243284583091736,-19.033109664916992,2.1056840419769287
1780751983759538200,54.1545380859375,1.5601203441619873,-13.453046798706055,4.596612453460693
1780751983808054800,54.2030546875,-3.1498517990112305,-13.484153747558594,-3.1507492065429688
1780751983856571400,54.2515712890625,-0.5042873620986938,-7.493722438812256,-0.7034898400306702
1780751983905087700,54.30008764648438,-1.3815559148788452,-10.306485176086426,-0.7139584422111511
1780751983953604400,54.348604248046875,0.03738785535097122,-9.600004196166992,-5.124827861785889
1780751984002121000,54.39712084960937,-0.3690928816795349,-6.930212497711182,-0.4163511395454407
1780751984050637300,54.44563720703125,-1.9884356260299683,-9.82822036743164,0.04486542567610741
1780751984099153700,54.49415356445313,0.12771691381931305,-9.269794464111328,2.0859432220458984
1780751984147670300,54.542670166015625,0.37896329164505005,-6.719644069671631,3.446561813354492
1780751984196186600,54.5911865234375,2.9679973125457764,-7.8164544105529785,1.2601202726364136
1780751984244703200,54.639703125,1.3537393808364868,-13.910375595092773,3.0801608562469482
1780751984293219600,54.68821948242187,-2.1433708667755127,-14.081761360168457,1.6719847917556763
1780751984341736200,54.736736083984376,-3.1034910678863525,-7.081259727478027,-2.1708884239196777
1780751984390252500,54.78525244140625,-2.0338993072509766,-9.699007034301758,-5.007280349731445
1780751984438769000,54.833768798828125,-3.231207847595215,-19.191036224365234,0.5273182988166809
1780751984487285500,54.88228540039062,-2.808276414871216,-10.125826835632324,8.005785942077637
1780751984535802000,54.930802001953126,3.087339401245117,-5.450251579284668,1.3597214221954346
1780751984584318500,54.979318359375,2.4750759601593018,-6.341877460479736,-4.796113967895508
1780751984632835000,55.0278349609375,2.077867269515991,-4.840082168579102,-1.4590235948562622
1780751984681351700,55.0763515625,0.9529415965080261,-7.530212879180908,1.334297776222229
1780751984729868000,55.124867919921876,0.28624141216278076,-18.029319763183594,1.705484390258789
1780751984778384600,55.17338452148437,2.706880569458008,-13.466207504272461,4.295116424560547
1780751984826901000,55.22190087890625,-4.050450325012207,-13.554741859436035,-2.292922258377075
1780751984875417300,55.27041723632812,-0.27696922421455383,-7.692027568817139,-0.09391828626394272
1780751984923934000,55.318933837890626,-0.9771689176559448,-11.489437103271484,0.3595215976238251
1780751984972450300,55.3674501953125,-0.22582264244556427,-8.778668403625488,-4.840082168579102
1780751985020967000,55.415966796875,-1.6525431871414185,-5.988337993621826,-0.35892340540885925
1780751985069483300,55.46448315429687,-2.1903300285339355,-8.933303833007812,-3.168994426727295
1780751985117999600,55.51299951171875,2.2866411209106445,-8.562417030334473,3.036491870880127
1780751985166516200,55.56151611328125,-0.4325026869773865,-7.8388872146606445,5.262714385986328
1780751985215032800,55.61003271484375,2.863311290740967,-8.895915985107422,-0.09481559693813324
1780751985263549200,55.65854907226562,0.9556335210800171,-14.649757385253906,3.420240879058838
1780751985312065800,55.707065673828126,-1.0639088153839111,-12.08614730834961,-1.953440546989441
1780751985360582400,55.75558251953125,-2.459223508834839,-5.7394843101501465,-2.2809581756591797
1780751985409098800,55.8040986328125,-2.861815929412842,-15.924234390258789,-1.3145569562911987
1780751985457615000,55.85261499023437,-4.545764923095703,-18.175283432006836,2.3650059700012207
1780751985506131700,55.901131591796876,1.1805589199066162,-6.5042901039123535,6.279664039611816
1780751985554648000,55.94964794921875,2.1113669872283936,-6.787839412689209,-0.9723833203315735
1780751985603164700,55.99816455078125,2.6210381984710693,-5.958726406097412,-4.171586990356445
1780751985651681000,56.04668090820312,2.6297121047973633,-4.544867515563965,0.664606511592865
1780751985700197600,56.09519775390625,-0.23210379481315613,-9.647860527038574,2.682354211807251
1780751985748714000,56.1437138671875,3.1274192333221436,-18.0903377532959,1.9280169010162354
1780751985797230600,56.19223071289063,-0.5422734022140503,-13.720444679260254,1.8837496042251587
1780751985845747000,56.24074682617187,-2.5573291778564453,-11.96889877319336,-2.342573404312134
1780751985894263600,56.289263671875,-1.0510473251342773,-8.544171333312988,-0.7911269664764404
1780751985942780000,56.33777978515625,-1.5999010801315308,-11.021341323852539,-2.54536509513855
1780751985991296300,56.386296142578125,0.384347140789032,-7.087540626525879,-3.4830524921417236
1780751986039812900,56.43481274414062,-1.7682958841323853,-6.995716094970703,1.3887344598770142
1780751986088329500,56.48332958984375,-1.963610053062439,-9.751649856567383,-1.2906286716461182
1780751986136845800,56.531845703125,0.26141586899757385,-7.098607540130615,1.7754744291305542
1780751986185362400,56.58036254882813,1.76051926612854,-7.043871879577637,3.7974095344543457
1780751986233878800,56.62887866210937,2.2989044189453125,-11.227124214172363,1.3504493236541748
1780751986282395400,56.6773955078125,-1.2245270013809204,-15.367304801940918,3.4178481101989746
1780751986330911700,56.72591186523437,-2.5980072021484375,-10.04985523223877,-1.1240284442901611
1780751986379428400,56.77442846679688,-1.9701902866363525,-6.320042610168457,-3.9194436073303223
1780751986427944700,56.82294482421875,-2.4771697521209717,-17.2731876373291,-3.3466615676879883
1780751986476461300,56.87146142578125,-5.545665740966797,-16.245769500732422,7.503293514251709
1780751986524977700,56.91997778320312,2.5022943019866943,-5.517251014709473,4.8176493644714355
1780751986573494300,56.96849438476563,2.3458635807037354,-6.081657886505127,-3.61017107963562
1780751986622010600,57.0170107421875,2.6862425804138184,-5.4418768882751465,-2.8313074111938477
1780751986670527000,57.06552685546875,2.8085756301879883,-5.019543647766113,1.1685947179794312
1780751986719043600,57.11404370117187,-2.7747769355773926,-13.724333763122559,2.160120725631714
1780751986767560000,57.162559814453125,4.605286121368408,-17.091333389282227,1.8337994813919067
1780751986816076500,57.21107666015625,-1.5690934658050537,-14.101800918579102,0.9675976634025574
1780751986864593000,57.259593017578126,-1.5858432054519653,-9.356833457946777,-0.8045865893363953
1780751986913109500,57.30810961914062,-1.2562319040298462,-7.560721397399902,0.19292132556438446
1780751986961626000,57.35662622070313,-1.475474238395691,-12.261720657348633,-3.2838499546051025
1780751987010142500,57.405142578125,0.794417142868042,-6.597909450531006,-2.549851655960083
1780751987058658800,57.453658935546876,-2.510071039199829,-8.220841407775879,0.7872386574745178
1780751987107175400,57.50217553710937,-0.5584250092506409,-9.961320877075195,-0.5216353535652161
1780751987155692000,57.55069213867188,-0.3320041298866272,-6.989434719085693,2.037189483642578
1780751987204208400,57.59920849609375,1.866999864578247,-7.004390239715576,2.5612175464630127
1780751987252724700,57.647724853515626,3.171985626220703,-10.75274658203125,0.9681958556175232
1780751987301241300,57.69624145507812,-0.8656035661697388,-15.476179122924805,3.6242289543151855
1780751987349757700,57.7447578125,-2.35872483253479,-10.484451293945312,-1.2317054271697998
1780751987398274300,57.7932744140625,-2.2618155479431152,-7.315756320953369,-3.0969107151031494
1780751987446790700,57.841790771484376,-2.785843849182129,-17.30429458618164,-3.0269205570220947
1780751987495307300,57.89030737304687,-4.965705394744873,-14.204692840576172,6.091528415679932
1780751987543823600,57.93882373046875,2.8241288661956787,-5.628517150878906,4.4273200035095215
1780751987592340200,57.98734033203125,2.478964328765869,-6.449255466461182,-3.384049415588379
1780751987640856600,58.03585668945313,2.331207513809204,-5.934798240661621,-2.8002007007598877
1780751987689373200,58.08437329101562,2.8420751094818115,-5.26600456237793,1.0992028713226318
1780751987737889500,58.1328896484375,-2.6865415573120117,-14.661422729492188,2.80767822265625
1780751987786406000,58.18140600585937,4.330111503601074,-15.065211296081543,2.9512476921081543
1780751987834922500,58.22992260742188,-2.954537868499756,-14.14547061920166,-0.2353939265012741
1780751987883438800,58.27843896484375,-1.1216355562210083,-9.860223770141602,-1.4937195777893066
1780751987931955500,58.32695556640625,-1.1261221170425415,-9.806385040283203,-0.9667003750801086
1780751987980471800,58.37547192382812,-1.296311616897583,-10.580463409423828,-4.217648983001709
1780751988028988200,58.42398828125,1.4763715267181396,-5.931209087371826,-1.6669000387191772
1780751988077504800,58.4725048828125,-2.9958138465881348,-7.853842258453369,0.3287140130996704
1780751988126021400,58.521021484375,0.07417750358581543,-10.022636413574219,0.511465847492218
1780751988174537700,58.56953784179687,-0.4492524564266205,-7.739883899688721,3.3251261711120605
1780751988223054000,58.61805419921875,1.9112670421600342,-7.252645492553711,2.9638099670410156
1780751988271570700,58.66657080078125,2.070389747619629,-11.993425369262695,1.6031911373138428
1780751988320087300,58.71508740234375,-1.5951154232025146,-15.166308403015137,2.432603359222412
1780751988368603600,58.76360375976562,-3.039483070373535,-8.975478172302246,-2.957528829574585
1780751988417120000,58.8121201171875,-1.5595221519470215,-8.002495765686035,-3.578765392303467
1780751988465636600,58.86063671875,-3.0131618976593018,-18.14806365966797,-1.059422254562378
1780751988514153200,58.9091533203125,-3.5183465480804443,-12.280862808227539,6.636194705963135
1780751988562669600,58.95766967773437,2.466402053833008,-5.102395057678223,2.8435707092285156
1780751988611186000,59.00618603515625,2.006680965423584,-6.249155521392822,-3.681058645248413
1780751988659702500,59.05470263671875,2.558525562286377,-5.633601665496826,-2.2085752487182617
1780751988708219100,59.10321923828125,2.0093727111816406,-6.109474182128906,2.053640127182007
1780751988756735500,59.15173559570312,-1.200299620628357,-17.090137481689453,2.089831590652466
1780751988805251800,59.200251953125,2.3793630599975586,-13.885549545288086,4.515256404876709
1780751988853768400,59.2487685546875,-3.0179476737976074,-15.09003734588623,-3.4127633571624756
1780751988902284800,59.297284912109376,-0.7576274871826172,-7.8287177085876465,-0.9634101986885071
1780751988950801400,59.34580151367187,-1.6013965606689453,-10.009177207946777,0.12861421704292297
1780751988999317800,59.39431787109375,-0.0008973084622994065,-10.237093925476074,-3.860520124435425
1780751989047834000,59.44283422851562,-0.32931220531463623,-6.1103715896606445,-1.3130614757537842
1780751989096350700,59.491350830078126,-2.9216363430023193,-8.708378791809082,-0.5096712112426758
1780751989144867000,59.5398671875,0.9170492887496948,-8.414958953857422,0.8192426562309265
1780751989193383700,59.5883837890625,0.7881359457969666,-7.269395351409912,4.405186653137207
1780751989241900000,59.63690014648437,2.3488545417785645,-8.962018013000488,2.678166627883911
1780751989290416600,59.685416748046876,0.44745782017707825,-13.730016708374023,2.4939193725585938
1780751989338933000,59.73393310546875,-2.1062822341918945,-13.52722454071045,0.09661021083593369
1780751989387449600,59.78244970703125,-1.8400806188583374,-6.078666687011719,-3.475275754928589
1780751989435966000,59.83096606445312,-1.9749759435653687,-12.184252738952637,-2.7044878005981445
1780751989484482600,59.879482666015626,-5.567500114440918,-19.66242218017578,1.1222338676452637
1780751989532999000,59.9279990234375,0.28953152894973755,-7.975277900695801,6.912266254425049
1780751989581515300,59.976515380859375,2.155334949493408,-5.554339408874512,0.7863413691520691
1780751989630032000,60.02503198242187,2.477468729019165,-5.916553020477295,-4.770689964294434
1780751989678548200,60.07354833984375,2.1577277183532715,-5.3940205574035645,-0.86470627784729
1780751989727064800,60.12206494140625,0.6119644045829773,-8.749056816101074,2.5292134284973145
1780751989775581200,60.170581298828125,0.7603194117546082,-18.446269989013672,1.409970760345459
1780751989824097800,60.21909790039062,0.99481600522995,-13.209278106689453,3.476173162460327
1780751989872614100,60.2676142578125,-3.556332588195801,-12.22403335571289,-2.2857437133789062
1780751989921130500,60.31613061523438,-0.5679962635040283,-9.24018383026123,-0.4737788736820221
1780751989969647000,60.364647216796875,-1.6031911373138428,-11.13440227508545,-2.5836503505706787
1780751990018163700,60.41316381835937,0.7546364665031433,-7.007680416107178,-4.884648323059082
1780751990066680000,60.46168017578125,-0.49232324957847595,-6.509973049163818,0.33409786224365234
1780751990115196400,60.51019653320313,-2.6479573249816895,-10.30917739868164,0.4977070987224579
1780751990163712800,60.55871264648437,0.129810631275177,-8.486743927001953,2.2654049396514893
1780751990212229400,60.6072294921875,1.2448660135269165,-7.0857462882995605,2.534597396850586
1780751990260746000,60.65574609375,3.5380873680114746,-9.500103950500488,0.6741777658462524
1780751990309262300,60.70426245117188,-0.6628118753433228,-15.900306701660156,3.6792638301849365
1780751990357778700,60.75277880859375,-2.367398977279663,-11.538788795471191,-1.038485050201416
1780751990406295000,60.801294921875,-2.228316068649292,-4.617549419403076,-1.7491533756256104
1780751990454811600,60.849811767578124,-0.9442676305770874,-14.838491439819336,-3.327518939971924
1780751990503328300,60.89832836914063,-6.023332595825195,-18.146568298339844,3.7031922340393066
1780751990551844600,60.9468447265625,1.3824533224105835,-6.883552551269531,5.6153564453125
1780751990600361000,60.99536083984375,1.994118571281433,-6.3499531745910645,-1.6863417625427246
1780751990648877600,61.043877685546875,2.7580273151397705,-5.694020748138428,-3.617349624633789
1780751990697394200,61.09239428710937,2.7182464599609375,-4.4512481689453125,0.3197409212589264
1780751990745910500,61.14091064453125,-1.4557334184646606,-11.491829872131348,2.783750057220459
1780751990794427000,61.18942700195313,3.6113674640655518,-17.586349487304688,2.6551358699798584
1780751990842943200,61.23794311523437,-1.4898312091827393,-13.800305366516113,1.6085749864578247
1780751990891459800,61.2864599609375,-1.8792630434036255,-10.916655540466309,-3.171387195587158
1780751990939976400,61.3349765625,-0.26500511169433594,-7.105187892913818,-0.23688943684101105
1780751990988492800,61.38349291992188,-1.378864049911499,-12.4513521194458,-1.7353945970535278
1780751991037009200,61.43200903320312,0.6251249313354492,-7.825427532196045,-3.3092737197875977
1780751991085525500,61.480525390625,-2.367997169494629,-8.36710262298584,0.735194742679596
1780751991134042000,61.5290419921875,-0.48006004095077515,-8.7176513671875,-0.4169493317604065
1780751991182558700,61.57755883789063,-0.3930211067199707,-7.46710205078125,1.789831280708313
1780751991231075000,61.62607495117187,1.2690932750701904,-7.16022253036499,3.1977083683013916
1780751991279591400,61.67459130859375,3.1663026809692383,-10.558928489685059,1.6854444742202759
1780751991328107800,61.72310766601562,-0.5709872841835022,-15.268003463745117,3.625126361846924
1780751991376624400,61.771624267578126,-1.811964988708496,-10.919048309326172,-1.0959128141403198
1780751991425141000,61.82014111328125,-1.9674984216690063,-4.910071849822998,-2.5109682083129883
1780751991473657300,61.8686572265625,-1.609771490097046,-15.088242530822754,-3.6762728691101074
1780751991522173700,61.91717358398437,-5.847161293029785,-18.576976776123047,4.314259052276611
1780751991570690300,61.965690185546876,2.1209380626678467,-7.341179847717285,5.872584819793701
1780751991619207000,62.01420703125,2.0404794216156006,-6.342475414276123,-1.6558332443237305
1780751991667723300,62.06272314453125,2.1382861137390137,-5.5005011558532715,-3.4250264167785645
1780751991716239600,62.11123950195312,2.6703901290893555,-4.06540584564209,-0.3071786165237427
1780751991764756000,62.159755859375,-0.6777670383453369,-10.595418930053711,1.929213285446167
1780751991813272600,62.2082724609375,2.6479573249816895,-18.213268280029297,2.867199659347534
1780751991861789200,62.2567890625,-1.2595219612121582,-14.447863578796387,1.8975083827972412
1780751991910305500,62.30530541992187,-1.960319995880127,-10.787442207336426,-1.649253010749817
1780751991958822000,62.35382177734375,-0.6308078765869141,-8.011170387268066,-0.6263213157653809
1780751992007338200,62.40233813476563,-1.450947880744934,-12.28953742980957,-3.901796340942383
1780751992055854800,62.450854736328125,1.0767701864242554,-6.879364967346191,-3.3388848304748535
1780751992104371500,62.49937133789062,-1.9013967514038086,-8.134699821472168,1.1485549211502075
1780751992152887800,62.5478876953125,-0.7902296781539917,-9.588937759399414,0.5377869009971619
1780751992201404200,62.59640405273438,-0.4211367964744568,-7.681559085845947,2.305783748626709
1780751992249920800,62.644920654296875,1.8272192478179932,-6.646663188934326,3.1360931396484375
1780751992298437400,62.69343725585937,3.0637102127075195,-10.521241188049316,1.2448660135269165
1780751992346953700,62.74195361328125,-0.9954141974449158,-15.326028823852539,3.006880760192871
1780751992395470000,62.79046997070313,-2.1598215103149414,-10.940882682800293,-1.6151553392410278
