time,seconds_elapsed,z,y,x
1780751929864752400,0.25975244140625,-0.020339488983154297,-0.047980308532714844,0.03839218616485596
1780751929913219800,0.3082197265625,0.04593956470489502,0.04987049102783203,-0.016805529594421387
1780751929961737000,0.356737060546875,0.03761446475982666,-0.009958267211914062,0.06347692012786865
1780751930010253600,0.405253662109375,-0.0134047269821167,-0.008320808410644531,0.0479961633682251
1780751930058770400,0.4537705078125,0.07808119058609009,0.06887626647949219,0.009619832038879395
1780751930107287300,0.502287353515625,0.009230554103851318,0.02238941192626953,0.034334659576416016
1780751930155804400,0.550804443359375,0.011689841747283936,-0.006775856018066406,-0.05752909183502197
1780751930204321300,0.5993212890625,0.01332169771194458,0.0019598007202148438,-0.02600550651550293
1780751930252838000,0.647837890625,-0.0713077187538147,-0.03133678436279297,-0.06903374195098877
1780751930301354800,0.696354736328125,-0.03231257200241089,-0.01842212677001953,-0.017468571662902832
1780751930349871900,0.744871826171875,-0.0010429620742797852,0.0068454742431640625,0.00773167610168457
1780751930398388700,0.793388671875,-0.00025457143783569336,-0.0010852813720703125,-0.017597198486328125
1780751930446905600,0.841905517578125,0.030945658683776855,0.043776512145996094,0.015020370483398438
1780751930495422500,0.89042236328125,0.0643998384475708,0.01740741729736328,0.004523158073425293
1780751930543939300,0.938939208984375,0.012019336223602295,-0.0051059722900390625,0.011373162269592285
1780751930592456400,0.98745654296875,0.04006242752075195,0.03945636749267578,0.07015693187713623
1780751930640973000,1.03597314453125,-0.05235946178436279,-0.013912200927734375,-0.012143492698669434
1780751930689490000,1.084489990234375,0.017708122730255127,-0.021554946899414062,-0.04945516586303711
1780751930738006800,1.1330068359375,0.060044288635253906,-0.037413597106933594,-0.12128889560699463
1780751930786524000,1.18152392578125,0.1452816128730774,0.06769084930419922,-0.09236133098602295
1780751930835040800,1.230040771484375,0.12166672945022583,0.028242111206054688,0.0877540111541748
1780751930883557600,1.2785576171875,0.01519685983657837,-0.0056362152099609375,0.13367211818695068
1780751930932074500,1.327074462890625,0.03415948152542114,0.05057239532470703,0.20664870738983154
1780751930980591400,1.37559130859375,-0.0647311806678772,-0.0071544647216796875,0.1257697343826294
1780751931029108500,1.4241083984375,-0.12026596069335938,-0.1339263916015625,0.00869596004486084
1780751931077625300,1.472625244140625,0.018235862255096436,-0.0012578964233398438,0.13117170333862305
1780751931126142200,1.52114208984375,0.12742000818252563,0.09122753143310547,0.18946349620819092
1780751931174659000,1.5696591796875,0.05548679828643799,-0.04331779479980469,0.1223902702331543
1780751931223176200,1.61817626953125,0.12281298637390137,0.1459341049194336,-0.011299490928649902
1780751931271693000,1.666693115234375,0.13824462890625,-0.23229217529296875,-0.1153872013092041
1780751931320210000,1.7152099609375,0.0013664960861206055,-0.19738197326660156,0.0033788681030273438
1780751931417243600,1.81224365234375,-0.03774738311767578,0.11811351776123047,-0.29437482357025146
1780751931465760800,1.8607607421875,0.1372557282447815,0.5205698013305664,-0.3272889256477356
1780751931514277400,1.90927734375,-0.24650359153747559,-0.06743049621582031,-0.11192512512207031
1780751931562794200,1.957794189453125,-0.17950499057769775,-0.3891267776489258,-0.2962837219238281
1780751931611311000,2.00631103515625,0.2792603373527527,0.05870628356933594,0.15220236778259277
1780751931659828200,2.054828125,0.04898035526275635,-0.07154369354248047,0.009348750114440918
1780751931708345000,2.103344970703125,-0.006219744682312012,-0.05933570861816406,-0.19256949424743652
1780751931756862000,2.151862060546875,0.1354292631149292,0.07606315612792969,-0.034091174602508545
1780751931805378800,2.20037890625,0.041695356369018555,-0.02748584747314453,0.04680740833282471
1780751931853895700,2.248895751953125,0.008592605590820312,-0.027898788452148438,0.21734046936035156
1780751931902412800,2.297412841796875,0.08100569248199463,0.010582923889160156,0.13175058364868164
1780751931950929700,2.3459296875,0.15357422828674316,0.014809608459472656,0.08989381790161133
1780751931999446500,2.394446533203125,0.018178343772888184,0.03794574737548828,-0.018596768379211426
1780751932047963400,2.44296337890625,-0.0061991214752197266,-0.06308937072753906,0.07266116142272949
1780751932096480300,2.491480224609375,0.010545849800109863,0.02777862548828125,0.02781832218170166
1780751932144997400,2.539997314453125,-0.03394019603729248,-0.018037796020507812,-0.019590258598327637
1780751932193514200,2.58851416015625,0.004514575004577637,0.0116424560546875,-0.07175123691558838
1780751932242031000,2.637031005859375,0.032473087310791016,-0.006131172180175781,-0.07917439937591553
1780751932290548000,2.6855478515625,-0.06336688995361328,-0.050131797790527344,-0.013546109199523926
1780751932339065000,2.734065185546875,-0.00093841552734375,-0.0635690689086914,-0.010027766227722168
1780751932387582000,2.78258203125,0.06048572063446045,0.02818012237548828,0.01173102855682373
1780751932436098800,2.831098876953125,0.03648698329925537,0.07321453094482422,0.0765916109085083
1780751932484615700,2.87961572265625,-0.05354511737823486,0.019046783447265625,0.0024775266647338867
1780751932533132300,2.92813232421875,0.04291725158691406,0.034659385681152344,-0.009915351867675781
1780751932581649400,2.9766494140625,-0.00946354866027832,-0.020461082458496094,0.000977635383605957
1780751932630166300,3.025166259765625,-0.05647718906402588,-0.03403663635253906,-0.0753476619720459
1780751932678683100,3.07368310546875,0.010508179664611816,0.016279220581054688,-0.05133557319641113
1780751932727200000,3.122199951171875,-0.004602909088134766,0.0001430511474609375,-0.0497816801071167
1780751932775716900,3.170716796875,-0.01539456844329834,-0.06319904327392578,-0.029954910278320312
1780751932824234000,3.21923388671875,0.028434395790100098,0.005648612976074219,-0.03028273582458496
1780751932872750800,3.267750732421875,0.024337172508239746,0.02232837677001953,0.0011905431747436523
1780751932921267700,3.316267822265625,0.02815544605255127,-0.02656078338623047,0.002772688865661621
1780751932969784600,3.36478466796875,0.027118206024169922,-0.011874198913574219,-0.01845228672027588
1780751933066818600,3.461818603515625,0.04481244087219238,0.011250495910644531,0.0030475854873657227
1780751933115335400,3.51033544921875,0.04718172550201416,0.027693748474121094,0.023849964141845703
1780751933163852300,3.558852294921875,-0.0024709701538085938,-0.030801773071289062,0.029879093170166016
1780751933212369000,3.607368896484375,0.060793519020080566,-0.0026597976684570312,0.004739046096801758
1780751933260886000,3.655885986328125,0.0853264331817627,0.00028324127197265625,0.023028969764709473
1780751933309403000,3.70440283203125,0.05337321758270264,0.06694602966308594,0.060849785804748535
1780751933357919700,3.752919677734375,0.0004221200942993164,0.04659843444824219,0.07334625720977783
1780751933406436600,3.8014365234375,-0.0025787353515625,0.012249946594238281,0.0735999345779419
1780751933454953500,3.849953369140625,-0.061028361320495605,-0.014321327209472656,-0.01433563232421875
1780751933503470600,3.898470703125,-0.015029430389404297,0.01175689697265625,0.03558242321014404
1780751933551987500,3.946987548828125,-0.032215237617492676,-0.024951934814453125,-0.06048786640167236
1780751933600504300,3.99550439453125,-0.053569793701171875,-0.008511543273925781,-0.034049272537231445
1780751933649021200,4.044021240234375,0.08200728893280029,0.047283172607421875,-0.02807033061981201
1780751933697538000,4.0925380859375,-0.031145095825195312,-0.028059959411621094,-0.025596261024475098
1780751933746055200,4.14105517578125,-0.005219936370849609,-0.04963493347167969,0.019982457160949707
1780751933794571800,4.18957177734375,0.08284473419189453,-0.0034942626953125,-0.00252687931060791
1780751933843088600,4.238088623046875,0.056686997413635254,0.03203582763671875,0.06104552745819092
1780751933891605500,4.28660546875,0.0729522705078125,0.01568603515625,0.056693196296691895
1780751933940122600,4.33512255859375,0.050145864486694336,-0.005234718322753906,0.01992976665496826
1780751933988639500,4.383639404296875,0.05145752429962158,-0.010223388671875,-0.015698790550231934
1780751934037156400,4.43215625,0.06303906440734863,-0.0035333633422851562,-0.008925914764404297
1780751934085673200,4.480673095703125,0.018408536911010742,-0.012895584106445312,-0.013900279998779297
1780751934134190000,4.529190185546875,-0.0049779415130615234,-0.009373664855957031,-0.009420156478881836
1780751934231223800,4.626223876953125,0.011951088905334473,-0.00659942626953125,0.009424328804016113
1780751934279740700,4.67474072265625,0.042146921157836914,0.021575927734375,0.008122801780700684
1780751934328257500,4.723257568359375,-0.013456344604492188,-0.0001392364501953125,-0.001687169075012207
1780751934376774400,4.7717744140625,0.024843335151672363,-0.019388198852539062,0.003584742546081543
1780751934425291500,4.82029150390625,-0.013270974159240723,-0.00681304931640625,0.0068590641021728516
1780751934473808400,4.868808349609375,0.03751838207244873,-0.0012464523315429688,-0.01841592788696289
1780751934522325200,4.9173251953125,0.01976597309112549,-0.004591941833496094,-0.00797891616821289
1780751934570842000,4.965842041015625,0.04355037212371826,0.000102996826171875,-0.01587963104248047
1780751934619359000,5.01435888671875,0.04641401767730713,0.019681930541992188,0.01656031608581543
1780751934716393000,5.11139306640625,0.01754164695739746,-0.01389312744140625,-0.005445718765258789
1780751934764909600,5.15990966796875,0.01970064640045166,-0.009632110595703125,-0.011868000030517578
1780751934813426400,5.208426513671875,0.016105294227600098,0.0003604888916015625,-0.014109373092651367
1780751934861943600,5.256943603515625,0.010532021522521973,-0.013903617858886719,-0.04218876361846924
1780751934910460400,5.30546044921875,0.00760197639465332,0.017188072204589844,-0.008239269256591797
1780751934958977300,5.353977294921875,0.03210794925689697,-0.00406646728515625,0.010305047035217285
1780751935007494100,5.402494140625,0.017653346061706543,-0.004105567932128906,0.007518768310546875
1780751935056011000,5.451010986328125,-0.0011292695999145508,-0.013500213623046875,-0.04130375385284424
1780751935104528000,5.49952783203125,0.028436899185180664,-0.0014448165893554688,-0.006807565689086914
1780751935153044700,5.548044677734375,0.00579071044921875,-0.014047622680664062,-0.027339577674865723
1780751935201561600,5.5965615234375,0.026834607124328613,0.013454437255859375,-0.003999590873718262
1780751935250078500,5.645078369140625,0.009670853614807129,-0.016791343688964844,-0.025794029235839844
1780751935298595600,5.693595703125,0.012128472328186035,-0.01963043212890625,-0.00562894344329834
1780751935347112400,5.742112548828125,0.00179290771484375,-0.0057086944580078125,-0.023680448532104492
1780751935395629300,5.79062939453125,0.030217528343200684,0.024771690368652344,0.0177689790725708
1780751935444146200,5.839146240234375,0.004416823387145996,-0.03568458557128906,0.020407676696777344
1780751935492662800,5.887662841796875,0.02387714385986328,0.0010356903076171875,0.003761887550354004
1780751935541180000,5.936179931640625,0.04965829849243164,-0.014904975891113281,-0.022202134132385254
1780751935589696800,5.98469677734375,0.017215847969055176,0.016483306884765625,0.012394189834594727
1780751935638213600,6.033213623046875,0.0506129264831543,0.007620811462402344,0.03405416011810303
1780751935686730500,6.08173046875,0.019135236740112305,-0.028885841369628906,-0.019105911254882812
1780751935735247400,6.130247314453125,0.007070779800415039,0.004916191101074219,0.014098644256591797
1780751935783764200,6.17876416015625,-0.0006821155548095703,-0.0086822509765625,-0.025215625762939453
1780751935832281000,6.227281005859375,0.023340821266174316,0.00487518310546875,-0.009410619735717773
1780751935880798000,6.2757978515625,0.03137481212615967,0.011690139770507812,0.0030753612518310547
1780751935929314800,6.324314697265625,0.03578591346740723,0.0015745162963867188,-0.017621874809265137
1780751935977831700,6.372831787109375,0.04229533672332764,0.0076427459716796875,0.013175249099731445
1780751936026348800,6.421348876953125,0.04400217533111572,-0.009393692016601562,0.015670180320739746
1780751936074865400,6.469865478515625,0.012511372566223145,-0.01747894287109375,0.015445828437805176
1780751936123382300,6.51838232421875,0.03745853900909424,0.00331878662109375,0.0038046836853027344
1780751936171899100,6.566899169921875,0.04508852958679199,0.015351295471191406,0.024625420570373535
1780751936220416300,6.615416259765625,0.009250164031982422,-0.0161285400390625,-0.007414579391479492
1780751936317450000,6.712449951171875,0.04658186435699463,0.022706031799316406,-0.014218807220458984
1780751936365966600,6.760966552734375,0.02315354347229004,-0.0061168670654296875,0.017681121826171875
1780751936414483500,6.8094833984375,0.018113374710083008,-0.021292686462402344,-0.01682412624359131
1780751936463000600,6.85800048828125,0.015778541564941406,-0.010950088500976562,-0.0015289783477783203
1780751936511517400,6.906517333984375,-0.004323363304138184,0.008870124816894531,-0.0072432756423950195
1780751936560034300,6.955034423828125,0.02976691722869873,0.0029811859130859375,0.03743183612823486
1780751936608551000,7.003551025390625,0.04574394226074219,0.0037908554077148438,0.007077217102050781
1780751936657067800,7.05206787109375,0.023073315620422363,-0.021346092224121094,-0.0040323734283447266
1780751936705585000,7.1005849609375,0.022820115089416504,-0.0005979537963867188,-0.007275223731994629
1780751936754101800,7.149101806640625,0.06445693969726562,0.0100555419921875,0.006768584251403809
1780751936802618600,7.19761865234375,-0.0019426345825195312,-0.020063400268554688,0.021510720252990723
1780751936851135500,7.246135498046875,0.04451549053192139,0.015048027038574219,0.039162635803222656
1780751936899652400,7.29465234375,0.019243240356445312,-0.009549140930175781,-0.033687472343444824
1780751936948169200,7.343169189453125,0.038347721099853516,0.005129814147949219,-0.002833247184753418
1780751936996686000,7.39168603515625,0.02118217945098877,-0.006664276123046875,0.01065075397491455
1780751937045203000,7.440202880859375,0.0034028291702270508,-0.013321876525878906,0.014662504196166992
1780751937093719800,7.4887197265625,0.014919638633728027,-0.01302337646484375,-0.013174295425415039
1780751937142236700,7.537236572265625,0.06534242630004883,0.057501792907714844,0.03546786308288574
1780751937190753500,7.58575341796875,0.014051556587219238,0.0016469955444335938,0.035808563232421875
1780751937239270400,7.6342705078125,0.0688629150390625,-0.04742717742919922,0.038675665855407715
1780751937287787300,7.682787353515625,-0.006619572639465332,0.009784698486328125,0.05243706703186035
1780751937336304000,7.73130419921875,0.03616893291473389,0.018950462341308594,-0.0031201839447021484
1780751937384821000,7.779821044921875,0.04158604145050049,-0.0005311965942382812,0.06205546855926514
1780751937433337900,7.828337890625,0.025505542755126953,-0.002780914306640625,0.03575634956359863
1780751937481854700,7.876854736328125,0.05827009677886963,0.017394065856933594,0.08168935775756836
1780751937530371600,7.92537158203125,0.09406471252441406,0.01665782928466797,0.09688687324523926
1780751937578888400,7.973888427734375,0.042523741722106934,-0.008691787719726562,0.0669851303100586
1780751937627405300,8.0224052734375,0.09958279132843018,0.021661758422851562,0.1289609670639038
1780751937675922200,8.070922119140626,0.10256814956665039,0.022559165954589844,0.12610489130020142
1780751937724439000,8.11943896484375,0.09410333633422852,-0.01027679443359375,0.15222829580307007
1780751937772955600,8.16795556640625,0.1282256841659546,-0.004794120788574219,0.03158140182495117
1780751937821472800,8.21647265625,0.14378011226654053,0.04966163635253906,0.06818854808807373
1780751937869989600,8.26498974609375,0.15946710109710693,-0.008680343627929688,0.027229249477386475
1780751937967023000,8.362023193359375,0.24727213382720947,0.026787757873535156,0.006394624710083008
1780751938015540000,8.4105400390625,0.06177520751953125,-0.12821102142333984,0.13055789470672607
1780751938064057000,8.45905712890625,0.1288517713546753,-0.10428524017333984,-0.15220487117767334
1780751938112574000,8.507573974609375,0.6890906691551208,-0.17422103881835938,0.16590940952301025
1780751938161090600,8.556090576171876,0.6324475407600403,-0.08248519897460938,-0.017699480056762695
1780751938209607400,8.604607421875,0.6613034605979919,0.009308815002441406,-0.2359442114830017
1780751938258124500,8.65312451171875,0.48973268270492554,-0.5171031951904297,-0.04397469758987427
1780751938306641400,8.701641357421876,0.34676599502563477,-0.2278461456298828,-0.19923824071884155
1780751938355158000,8.750157958984374,0.37035077810287476,-0.20575237274169922,0.21970725059509277
1780751938403675000,8.7986748046875,0.489191472530365,0.22554302215576172,0.5430668592453003
1780751938452191700,8.847191650390625,1.2660423517227173,0.25006866455078125,0.626781165599823
1780751938500708600,8.89570849609375,1.5448862314224243,0.0937643051147461,0.7001184821128845
1780751938549225500,8.9442255859375,2.318192720413208,0.5273532867431641,0.6406009793281555
1780751938597742300,8.992742431640625,3.0017054080963135,-0.05290985107421875,0.8641484975814819
1780751938646259200,9.04125927734375,3.2038798332214355,-0.6055755615234375,1.1289267539978027
1780751938694776000,9.089776123046875,3.860302448272705,-1.7987804412841797,2.3792202472686768
1780751938743293000,9.13829296875,0.9867814183235168,-1.726912498474121,1.8148552179336548
1780751938791809800,9.186809814453126,-2.0970544815063477,0.5987329483032227,-1.1816813945770264
1780751938840326700,9.23532666015625,-3.224374771118164,2.2714576721191406,-3.295156240463257
1780751938888843300,9.28384326171875,-1.650768518447876,-1.6992321014404297,2.6578562259674072
1780751938937360100,9.332360107421875,-5.294255256652832,-3.9971446990966797,4.232946395874023
1780751938985877200,9.380877197265624,0.6945493817329407,1.6491193771362305,-1.0934735536575317
1780751939034394000,9.42939404296875,0.2926948070526123,1.1403188705444336,-0.46117496490478516
1780751939082910700,9.47791064453125,-0.7251278162002563,0.4093494415283203,-0.9590857625007629
1780751939131427600,9.526427490234376,-0.1784989833831787,1.3791475296020508,-2.213268756866455
1780751939179944400,9.5749443359375,1.7953486442565918,3.312493324279785,-0.33313608169555664
1780751939228461300,9.62346142578125,0.6057332754135132,0.4163322448730469,1.5683555603027344
1780751939276978200,9.671978271484376,3.2229795455932617,-4.520094871520996,1.4522716999053955
1780751939325495000,9.7204951171875,-1.7831203937530518,-4.231487274169922,1.228653907775879
1780751939374011600,9.76901171875,-2.2271127700805664,-2.7473363876342773,-4.15407657623291
1780751939422528800,9.81752880859375,-0.464563250541687,1.8809185028076172,-2.320340156555176
1780751939471045600,9.866045654296874,-0.4951770305633545,-1.675847053527832,-3.0436015129089355
1780751939519562200,9.914562255859375,1.2378965616226196,2.146160125732422,-3.8881044387817383
1780751939616596000,10.011595947265626,1.2975937128067017,1.442037582397461,0.23064589500427246
1780751939665113000,10.060113037109375,0.7672885656356812,1.6863183975219727,2.028069257736206
1780751939713629700,10.108629638671875,1.7450230121612549,0.6527194976806641,2.168832302093506
1780751939762146600,10.157146484375,4.3837432861328125,0.3962860107421875,-0.3425973057746887
1780751939810663200,10.2056630859375,3.07667875289917,-3.0368776321411133,2.6734511852264404
1780751939859180300,10.25418017578125,-0.411201536655426,-1.9418449401855469,1.2183783054351807
1780751939907697200,10.302697265625,-3.974642753601074,3.391655921936035,-2.053243398666382
1780751939956213800,10.3512138671875,-4.20559024810791,-4.0317888259887695,-0.22629308700561523
1780751940004730600,10.399730712890625,-6.196932792663574,-8.901824951171875,2.966762065887451
1780751940053247500,10.44824755859375,-0.5239202976226807,2.081305503845215,6.13543701171875
1780751940101764400,10.496764404296876,1.689346194267273,2.8118953704833984,-1.6431869268417358
1780751940150281200,10.54528125,0.9219057559967041,2.455125331878662,-4.889359474182129
1780751940198798000,10.593798095703125,1.2106068134307861,4.053454399108887,-2.1555209159851074
1780751940247315000,10.64231494140625,1.1212506294250488,3.4276647567749023,0.20226752758026123
1780751940295831600,10.69083154296875,-0.9865872859954834,-6.072793006896973,0.8445866107940674
1780751940344348700,10.7393486328125,2.417116165161133,-3.2590980529785156,2.7083420753479004
1780751940392865300,10.787865234375,-4.1955461502075195,-4.682369232177734,-3.2068519592285156
1780751940441382100,10.836382080078126,1.0292863845825195,1.2927770614624023,-3.122501850128174
1780751940489899000,10.88489892578125,-0.6234676837921143,-1.4608745574951172,-2.2821969985961914
1780751940538415600,10.93341552734375,1.3140335083007812,0.4864158630371094,-5.896516799926758
1780751940586932700,10.9819326171875,-0.0163038969039917,2.758896827697754,-2.1981468200683594
1780751940635449300,11.030449462890624,-1.3998806476593018,0.45275115966796875,-0.25417566299438477
1780751940683966200,11.07896630859375,1.8786602020263672,1.093968391418457,1.0870469808578491
1780751940732483000,11.127483154296876,3.340912103652954,3.94473934173584,1.3309962749481201
1780751940781000000,11.176,5.535494327545166,1.723391056060791,0.4416617155075073
1780751940829516800,11.224516845703125,2.5266976356506348,-4.538983345031738,3.3446266651153564
1780751940878033700,11.27303369140625,-1.7515661716461182,-3.1974477767944336,-0.4207274615764618
1780751940926550300,11.32155029296875,-4.902314186096191,3.617563247680664,-1.110743761062622
1780751940975067100,11.370067138671875,-5.649738788604736,-7.9077863693237305,2.077759265899658
1780751941023584000,11.418583984375,-4.266808032989502,-6.623313903808594,2.7426257133483887
1780751941072100900,11.467100830078126,0.8118400573730469,4.84304141998291,4.367160797119141
1780751941120617700,11.51561767578125,0.9757794141769409,2.1797633171081543,-0.9947804808616638
1780751941169134300,11.56413427734375,0.9778189659118652,2.712559700012207,-3.860161066055298
1780751941266168300,11.661168212890624,-2.9677200317382812,0.26458072662353516,1.43180513381958
1780751941314685000,11.709684814453125,5.099630355834961,-5.307901382446289,-0.7386389970779419
1780751941363201800,11.758201904296875,-0.9315106272697449,-2.567925453186035,3.5592448711395264
1780751941411718400,11.806718505859376,-3.9233760833740234,-4.802377700805664,-4.965290546417236
1780751941460235300,11.8552353515625,1.94224214553833,3.461945056915283,-2.3517134189605713
1780751941508752400,11.90375244140625,-0.006713390350341797,-1.879410743713379,-2.3954215049743652
1780751941557269000,11.95226904296875,0.6574444770812988,2.0762038230895996,-5.153927803039551
1780751941605785900,12.000785888671874,-1.05580735206604,1.8129496574401855,0.2139352560043335
1780751941654302500,12.049302490234375,0.09991848468780518,-0.11997222900390625,-0.1064685583114624
1780751941702819300,12.0978193359375,2.489805221557617,2.847283363342285,0.4916602373123169
1780751941751336200,12.146336181640624,3.8262598514556885,3.1683363914489746,1.6991571187973022
1780751941799853000,12.19485302734375,5.485677242279053,-0.5382213592529297,0.29194557666778564
1780751941848370000,12.243369873046875,1.389900803565979,-6.128064155578613,4.1727495193481445
1780751941896886800,12.29188671875,-3.0910394191741943,0.34995555877685547,-0.3924345374107361
1780751941945403400,12.3404033203125,-4.749515533447266,2.318243980407715,-1.9164320230484009
1780751941993920300,12.388920166015625,-5.0818071365356445,-10.8158540725708,-0.3612089157104492
1780751942042437000,12.43743701171875,-4.652711868286133,-2.611124038696289,5.912175178527832
1780751942090954000,12.4859541015625,2.0472400188446045,5.788667678833008,2.5992164611816406
1780751942139470600,12.534470703125,1.351489543914795,3.0100345611572266,-2.439110279083252
1780751942187987500,12.582987548828125,1.1662157773971558,2.9487829208374023,-3.440486431121826
1780751942236504300,12.63150439453125,1.8781864643096924,4.85994291305542,-0.4830210208892822
1780751942285021200,12.680021240234375,-2.538644790649414,-3.715998649597168,1.1897944211959839
1780751942333538000,12.7285380859375,4.528164863586426,-6.43996524810791,0.919723391532898
1780751942382054700,12.7770546875,-4.418120861053467,-5.438947677612305,-1.2765605449676514
1780751942430571500,12.825571533203124,0.682754635810852,2.538102149963379,-1.407123327255249
1780751942479088400,12.87408837890625,-0.8375285863876343,-1.8400659561157227,-2.0260543823242188
1780751942527605200,12.922605224609375,0.9013450145721436,0.4363517761230469,-5.042541027069092
1780751942576121900,12.971121826171874,1.0128885507583618,3.9805045127868652,-1.1226446628570557
1780751942624638700,13.019638671875,-0.5824739933013916,1.669947624206543,-0.29011785984039307
1780751942673155600,13.068155517578125,1.6928272247314453,0.4331388473510742,0.07865554094314575
1780751942721672400,13.11667236328125,2.755504608154297,2.489736557006836,1.982962727546692
1780751942770189000,13.16518896484375,5.885203838348389,2.782052993774414,1.3640278577804565
1780751942867222500,13.262222412109375,-2.148858070373535,-2.628816604614258,-0.5765256881713867
1780751942915739600,13.31073974609375,-4.30924129486084,3.6926093101501465,-1.7562122344970703
1780751942964256300,13.35925634765625,-4.155940055847168,-8.920414924621582,0.03978368639945984
1780751943012773000,13.407773193359375,-4.740827560424805,-5.750028610229492,5.162581920623779
1780751943061289700,13.456289794921876,0.5239665508270264,3.988481044769287,4.52727746963501
1780751943109806600,13.504806640625,1.88507878780365,3.414583683013916,-2.5118916034698486
1780751943158323500,13.553323486328125,1.1924076080322266,3.3489084243774414,-2.436260223388672
1780751943206840300,13.60184033203125,1.6617920398712158,4.701910495758057,-0.32294148206710815
1780751943255357000,13.65035693359375,-2.091480016708374,-0.8916854858398438,0.005810737609863281
1780751943303873800,13.698873779296875,5.106181621551514,-5.939444541931152,-0.4909324645996094
1780751943352390700,13.747390625,-4.257913589477539,-5.646286964416504,2.4023425579071045
1780751943400907500,13.795907470703124,-0.38475626707077026,-1.0467262268066406,-2.7272510528564453
1780751943449424100,13.844424072265625,0.566508412361145,1.1368703842163086,-1.1479322910308838
1780751943497941000,13.89294091796875,0.208851158618927,-0.9756088256835938,-5.42485237121582
1780751943546457900,13.941457763671876,1.8784507513046265,4.262423038482666,-4.20633602142334
1780751943594974700,13.989974609375,-1.3992226123809814,1.4625654220581055,1.0263639688491821
1780751943643491300,14.0384912109375,1.011294960975647,-0.37284183502197266,0.4349026679992676
1780751943692008200,14.08700830078125,2.609522581100464,2.397350788116455,1.2777130603790283
1780751943740525000,14.135525146484374,4.95413875579834,3.2977304458618164,3.2396161556243896
1780751943789041700,14.184041748046875,3.773487091064453,-2.2160415649414062,2.0481600761413574
1780751943837558500,14.23255859375,-0.956139087677002,-5.175864219665527,1.2300169467926025
1780751943886075400,14.281075439453126,-2.6512231826782227,3.1541004180908203,-3.1728675365448
1780751943934592300,14.32959228515625,-3.056823968887329,-2.650054931640625,-0.23872581124305725
1780751943983108900,14.37810888671875,-6.624542713165283,-10.780437469482422,2.8408501148223877
1780751944031625700,14.426625732421876,-1.1577200889587402,1.289541244506836,4.9017720222473145
1780751944080142600,14.475142578125,1.7679615020751953,4.320634841918945,-0.9105334281921387
1780751944128659500,14.523659423828125,1.1641700267791748,3.4723401069641113,-4.252351760864258
1780751944177176000,14.572176025390625,1.0783542394638062,4.021531105041504,-0.9370158314704895
1780751944225692700,14.620692626953126,0.5717650055885315,3.6338672637939453,1.0993626117706299
1780751944322726400,14.717726318359375,0.26538315415382385,-3.032986640930176,4.154852867126465
1780751944371243300,14.7662431640625,-3.9046008586883545,-3.5344772338867188,-3.2279603481292725
1780751944419759900,14.814759765625,1.345522165298462,0.7646245956420898,-1.9582139253616333
1780751944468276700,14.86327685546875,0.1863638162612915,-1.9222946166992188,-3.244691848754883
1780751944516793300,14.91179345703125,0.42887163162231445,2.3197293281555176,-4.982396602630615
1780751944565310500,14.960310546875,-0.35912024974823,2.9339957237243652,0.037051260471343994
1780751944613827000,15.0088271484375,0.7486134767532349,0.04782867431640625,-1.1882022619247437
1780751944662343700,15.05734375,3.0695176124572754,2.670499801635742,2.8208975791931152
1780751944710860500,15.105860595703126,3.6275339126586914,2.185670852661133,3.425624132156372
1780751944759377400,15.15437744140625,4.520688056945801,-0.5828485488891602,1.6116280555725098
1780751944807894300,15.202894287109375,0.9567693471908569,-3.5229225158691406,4.018404960632324
1780751944856411000,15.251410888671876,-2.679875612258911,-0.4263019561767578,-3.7564971446990967
1780751944904927500,15.299927490234374,-3.4799458980560303,1.8606610298156738,-2.205977439880371
1780751944953444400,15.3484443359375,-4.930974006652832,-10.41674518585205,0.7090307474136353
1780751945001961200,15.396961181640625,-3.9886202812194824,-2.1924123764038086,5.8610405921936035
1780751945050478000,15.44547802734375,1.9529428482055664,3.7462453842163086,1.6428117752075195
1780751945098994700,15.49399462890625,0.4580576419830322,3.1939587593078613,-2.8249025344848633
1780751945147511600,15.542511474609375,1.2190810441970825,3.5248427391052246,-1.5624887943267822
1780751945196028400,15.5910283203125,1.557581901550293,5.604221343994141,1.208343744277954
1780751945244545000,15.639544921875,-1.6377594470977783,-4.792394638061523,-0.4916090965270996
1780751945293062000,15.688061767578125,4.586594581604004,-3.9324769973754883,1.8568141460418701
1780751945341578500,15.73657861328125,-4.6241655349731445,-4.895624160766602,-0.21944355964660645
1780751945390095400,15.785095458984374,1.0143499374389648,0.9904022216796875,-2.2152035236358643
1780751945438612200,15.8336123046875,0.3705149292945862,-0.6769371032714844,-0.282950758934021
1780751945487128800,15.88212890625,0.7338347434997559,-0.8000583648681641,-6.372836589813232
1780751945535645700,15.930645751953126,0.6187288165092468,3.071470260620117,-1.9144728183746338
1780751945584162600,15.97916259765625,-1.4816811084747314,1.3293085098266602,-0.5627568960189819
1780751945632679200,16.02767919921875,2.48008131980896,1.3094024658203125,-1.0180381536483765
1780751945681196000,16.076196044921875,3.793877124786377,3.5738019943237305,2.704859733581543
1780751945729712600,16.124712646484376,5.086789608001709,1.2799530029296875,3.6640872955322266
1780751945778229500,16.1732294921875,1.4704104661941528,-5.792031288146973,3.9288928508758545
1780751945826746400,16.221746337890625,-1.1054192781448364,-2.2137298583984375,-1.1363115310668945
1780751945923779600,16.318779541015626,-3.428062915802002,-3.717092514038086,-2.0896050930023193
1780751945972296700,16.367296630859375,-5.98977518081665,-7.325769424438477,4.8679423332214355
1780751946020813300,16.415813232421876,0.17283987998962402,2.4641900062561035,8.398316383361816
1780751946069330000,16.464329833984376,2.6321921348571777,2.004582405090332,-1.9938743114471436
1780751946117846800,16.5128466796875,1.003915786743164,2.4828710556030273,-4.833622455596924
1780751946166363400,16.56136328125,2.214630365371704,5.689572811126709,-0.4319487512111664
1780751946214880500,16.609880615234374,-0.8039095997810364,2.2098379135131836,0.5624532103538513
1780751946263397000,16.658397216796875,2.9720828533172607,-6.529842376708984,0.910039484500885
1780751946311913700,16.706913818359375,-1.0209496021270752,-2.7400693893432617,3.9854907989501953
1780751946360430600,16.7554306640625,-2.751400947570801,-4.445465087890625,-4.538759231567383
1780751946408947500,16.803947509765624,1.2196534872055054,1.61004638671875,-2.6878292560577393
1780751946457464000,16.852464111328125,-0.49289023876190186,-2.068603515625,-2.4596896171569824
1780751946505981000,16.90098095703125,1.3616430759429932,1.600717544555664,-4.027153015136719
1780751946554497500,16.94949755859375,-0.8850116729736328,1.6855621337890625,-0.31626999378204346
1780751946603014400,16.998014404296875,0.3453782796859741,-0.61041259765625,-1.019478678703308
1780751946651531000,17.046531005859375,3.3389155864715576,3.417600631713867,1.2679381370544434
1780751946700048000,17.0950478515625,4.0546488761901855,4.958523750305176,2.1217503547668457
1780751946748564500,17.143564453125,5.205852508544922,-0.31688404083251953,1.3033037185668945
1780751946797081300,17.192081298828125,1.689886212348938,-5.204897880554199,5.384049415588379
1780751946845598000,17.240597900390625,-0.8030090928077698,-0.8786325454711914,-1.6709134578704834
1780751946894114800,17.28911474609375,-2.5964479446411133,0.5947551727294922,-1.9649324417114258
1780751946942631400,17.33763134765625,-4.785069942474365,-10.531579971313477,-1.5492150783538818
1780751946991148300,17.386148193359375,-4.711625099182129,-2.7177248001098633,5.301675796508789
1780751947039665200,17.4346650390625,1.2618080377578735,4.1576828956604,2.623332977294922
1780751947088181800,17.483181640625,1.854010820388794,4.355111122131348,-3.7377307415008545
1780751947136698400,17.531698486328125,1.1255264282226562,4.134262561798096,-2.962557792663574
1780751947185215200,17.58021533203125,1.7499704360961914,5.001518726348877,-0.6540582776069641
1780751947233732000,17.628732177734374,-2.981718063354492,-2.9810495376586914,-0.11945295333862305
1780751947282248700,17.677248779296875,5.471909999847412,-4.718896865844727,1.6683176755905151
1780751947330765600,17.725765625,-1.0473182201385498,-0.783473014831543,3.602299690246582
1780751947379282200,17.7742822265625,-2.777423620223999,-5.835086822509766,-4.880886554718018
1780751947476316000,17.87131591796875,-0.051401734352111816,-0.9907321929931641,-3.9391157627105713
1780751947524832500,17.91983251953125,2.423219680786133,2.261676788330078,-4.389693260192871
1780751947573349000,17.96834912109375,-1.7733160257339478,1.198324203491211,-0.10599178075790405
1780751947621866000,18.016865966796875,0.37066733837127686,0.6968059539794922,-0.8279542326927185
1780751947670382800,18.0653828125,4.468801498413086,5.4487080574035645,1.7575585842132568
1780751947718899500,18.1138994140625,3.85343599319458,3.141005516052246,1.2689285278320312
1780751947767416000,18.162416015625,4.724928855895996,-1.8373355865478516,2.6671242713928223
1780751947815932700,18.2109326171875,0.9928552508354187,-5.096906661987305,3.1977903842926025
1780751947864449500,18.259449462890625,-4.045955657958984,-1.8086881637573242,-0.2799873948097229
1780751947912966400,18.30796630859375,-3.9444632530212402,-2.942660331726074,-5.986014366149902
1780751947961483000,18.35648291015625,-4.043557643890381,-6.969485282897949,3.1210007667541504
1780751948009999600,18.40499951171875,-3.937743902206421,0.12943649291992188,5.817144870758057
1780751948058516500,18.4535166015625,1.723499059677124,4.0204010009765625,-0.17273551225662231
1780751948107033300,18.502033447265624,-0.055657386779785156,2.9555020332336426,-3.6001458168029785
1780751948155550000,18.550550048828125,0.9328984618186951,4.7869062423706055,-1.9076985120773315
1780751948204066600,18.599066650390625,1.4019172191619873,5.168944835662842,0.9279959797859192
1780751948252583400,18.64758349609375,-2.298062801361084,-4.189309120178223,1.9725453853607178
1780751948301100300,18.696100341796875,4.915465831756592,-4.534750938415527,2.3920586109161377
1780751948349617000,18.744616943359375,-5.7852630615234375,-5.31169319152832,1.2118542194366455
1780751948398133500,18.793133544921876,-0.3628501892089844,0.5847663879394531,-3.3206276893615723
1780751948446650400,18.841650390625,-2.3732681274414062,0.6953983306884766,-2.9369988441467285
1780751948495167200,18.890167236328125,-0.723751962184906,-4.617249488830566,-5.070199012756348
1780751948543683800,18.938683837890625,-0.8638240098953247,1.8099288940429688,-3.7392919063568115
1780751948592200400,18.987200439453126,2.415877342224121,2.356170177459717,-1.9934111833572388
1780751948640717300,19.03571728515625,3.1697452068328857,2.0541601181030273,0.18982850015163422
1780751948689234200,19.084234130859375,0.5054322481155396,1.7354564666748047,2.452655792236328
1780751948737750800,19.132750732421876,4.895780086517334,1.9566798210144043,4.0326457023620605
1780751948786267400,19.181267333984376,4.325444221496582,0.11966800689697266,4.20135498046875
1780751948834784000,19.229783935546877,1.6947097778320312,-3.3486948013305664,5.269914150238037
1780751948883300900,19.27830078125,-1.9290733337402344,-1.6342220306396484,0.41229894757270813
1780751948931817700,19.326817626953126,-4.727558135986328,2.3402090072631836,-1.5942729711532593
1780751949028851000,19.423850830078123,-6.2647905349731445,-7.156824111938477,4.704200744628906
1780751949077367800,19.472367919921876,0.9855727553367615,2.129340648651123,0.6081467270851135
1780751949125884700,19.520884765625,0.9969218969345093,1.8332281112670898,-1.1812463998794556
1780751949174401300,19.5694013671875,-0.2549344301223755,3.1544718742370605,1.748645544052124
1780751949222918000,19.61791796875,-0.041613996028900146,5.400625228881836,2.1556649208068848
1780751949271434500,19.6664345703125,1.976341724395752,5.392728328704834,1.8953126668930054
1780751949319951400,19.714951416015627,-1.6953949928283691,-5.6185760498046875,2.8300485610961914
1780751949368468200,19.76346826171875,3.3209166526794434,-4.253204345703125,1.5246537923812866
1780751949416984800,19.81198486328125,-3.936844825744629,-6.377621650695801,-0.24712137877941132
1780751949465501400,19.86050146484375,-1.0364115238189697,1.162856101989746,-1.380223035812378
1780751949514018300,19.909018310546877,-1.255120038986206,3.6878604888916016,-2.016942024230957
1780751949562535000,19.957534912109374,-0.21932071447372437,-2.816237449645996,-5.620697498321533
1780751949611051500,20.006051513671874,0.07541787624359131,0.7966604232788086,-2.972701072692871
1780751949659568400,20.054568359375,2.770712375640869,1.100041389465332,-0.23337522149085999
1780751949708085200,20.103085205078123,2.919694423675537,1.2214155197143555,0.7068904638290405
1780751949756601900,20.151601806640624,1.3986401557922363,1.6280622482299805,4.373241424560547
1780751949805118500,20.200118408203124,3.6497020721435547,2.635246753692627,3.0748369693756104
1780751949853635000,20.248635009765625,2.8479175567626953,-0.26596832275390625,2.460179328918457
1780751949902151700,20.297151611328125,2.6547346115112305,-5.102089881896973,3.577927827835083
1780751949950668500,20.34566845703125,0.6015069484710693,-1.4016876220703125,3.217339515686035
1780751949999185400,20.394185302734375,-3.8645565509796143,2.4615654945373535,-0.4198630452156067
1780751950047702000,20.442701904296875,-3.6806187629699707,-1.4708480834960938,-3.7604432106018066
1780751950096218600,20.491218505859376,-4.525352478027344,-8.782695770263672,1.9732304811477661
1780751950144735500,20.539735595703124,-3.4152185916900635,0.3333168029785156,5.119324207305908
1780751950193252000,20.588252197265625,3.2922613620758057,4.57749080657959,-0.19913756847381592
1780751950241768700,20.636768798828125,0.7086491584777832,3.8400421142578125,-2.6998190879821777
1780751950290285600,20.68528564453125,0.04769754409790039,2.9289731979370117,-0.9249430298805237
1780751950338802400,20.733802490234375,0.7263637185096741,3.841559410095215,-0.23780393600463867
1780751950387319000,20.782319091796875,-1.3578617572784424,-5.323458671569824,-0.16300594806671143
1780751950435835600,20.830835693359376,4.768394470214844,-4.210832595825195,1.6134216785430908
1780751950484352300,20.879352294921876,-4.368157863616943,-5.624377250671387,0.23115956783294678
1780751950532868900,20.927868896484377,0.2883928418159485,1.998861312866211,-1.8690805435180664
1780751950629902300,21.02490234375,0.5480154752731323,-0.5107822418212891,-5.325817108154297
1780751950678419200,21.073419189453126,0.6552450656890869,2.9937400817871094,-2.829695701599121
1780751950726935800,21.121935791015623,-0.4557393789291382,1.5503292083740234,-0.5105102062225342
1780751950775452700,21.17045263671875,1.366814136505127,1.1626577377319336,-0.23759853839874268
1780751950823969300,21.21896923828125,2.4025838375091553,2.0183281898498535,1.8820394277572632
1780751950872486000,21.26748583984375,4.419045448303223,1.6477108001708984,2.8645455837249756
1780751950921002500,21.31600244140625,3.86151123046875,-2.446077346801758,1.231207251548767
1780751950969519400,21.364519287109374,-0.09171879291534424,-4.911693572998047,2.679987907409668
1780751951018036000,21.413035888671875,-2.76643705368042,1.5427532196044922,-2.312889337539673
1780751951066552600,21.461552490234375,-3.4599623680114746,1.2053308486938477,-2.392470121383667
1780751951115069400,21.5100693359375,-4.989151954650879,-8.518181800842285,0.3668965697288513
1780751951163586000,21.5585859375,-4.433539867401123,-1.9932231903076172,6.2548298835754395
1780751951212103000,21.60710302734375,2.069525718688965,3.8779067993164062,1.7883199453353882
1780751951260619500,21.65561962890625,1.4319384098052979,2.6849770545959473,-4.311628818511963
1780751951309136100,21.70413623046875,1.3459787368774414,3.5588111877441406,-1.881016731262207
1780751951357652700,21.75265283203125,1.8735613822937012,4.495965003967285,1.185197114944458
1780751951406169600,21.801169677734375,-2.4698314666748047,-4.901124954223633,0.7086982727050781
1780751951454686200,21.849686279296876,4.9766316413879395,-3.820209503173828,0.7149392366409302
1780751951503202800,21.898202880859376,-5.478394031524658,-5.9925537109375,-2.8079073429107666
1780751951551719400,21.946719482421877,1.2774076461791992,0.9803695678710938,-2.292893171310425
1780751951600236300,21.995236328125,-0.5985968112945557,-0.40510082244873047,-2.3256449699401855
1780751951648753200,22.043753173828126,0.9418691992759705,0.6749420166015625,-5.730103492736816
1780751951697269800,22.092269775390626,0.26135456562042236,3.7728991508483887,-3.4281439781188965
1780751951745786400,22.140786376953123,-0.909433126449585,0.3879261016845703,-0.9815365076065063
1780751951794303000,22.189302978515624,2.1841461658477783,1.2393693923950195,0.660738468170166
1780751951842819800,22.23781982421875,2.542680501937866,2.5412206649780273,2.7918882369995117
1780751951891336400,22.28633642578125,4.529662132263184,0.559901237487793,1.8477280139923096
1780751951939853000,22.33485302734375,3.166436195373535,-2.786334991455078,2.8586533069610596
1780751951988369700,22.38336962890625,-0.23463964462280273,-3.801173210144043,0.6791495084762573
1780751952036886500,22.431886474609374,-3.7200217247009277,3.6476783752441406,-1.9644216299057007
1780751952085403100,22.480403076171875,-4.558050155639648,-3.163381576538086,-2.537172794342041
1780751952133919700,22.528919677734375,-5.161511421203613,-8.758159637451172,1.5359641313552856
1780751952230953200,22.625953125,3.0357675552368164,3.7669286727905273,-0.967010498046875
1780751952279469800,22.6744697265625,1.3665399551391602,2.7617502212524414,-5.407177925109863
1780751952327986400,22.722986328125,1.149757742881775,3.6208419799804688,-1.0950019359588623
1780751952376503000,22.7715029296875,0.8115358948707581,2.6690006256103516,1.7617250680923462
1780751952425019600,22.82001953125,0.13219457864761353,-7.134765625,0.4425361156463623
1780751952473536800,22.868536865234375,1.1386524438858032,-3.949130058288574,1.5435001850128174
1780751952522053400,22.917053466796876,-2.800481081008911,-3.1104345321655273,-4.040504455566406
1780751952570570000,22.965570068359376,0.3508044481277466,1.1618213653564453,-2.2070188522338867
1780751952619086600,23.014086669921873,-0.4428079128265381,-2.1247262954711914,-3.702146053314209
1780751952667603500,23.062603515625,1.4625378847122192,3.4004712104797363,-5.340502738952637
1780751952716120000,23.1111201171875,0.06261205673217773,2.6920175552368164,-0.5535600185394287
1780751952764636700,23.15963671875,-0.36170661449432373,-0.6360578536987305,-0.4213069677352905
1780751952813153300,23.2081533203125,1.884381890296936,1.2976360321044922,0.8980139493942261
1780751952861670100,23.256670166015624,4.349964141845703,3.8303117752075195,1.5264930725097656
1780751952910186800,23.305186767578125,6.048864364624023,-0.14472007751464844,0.6488505601882935
1780751952958703400,23.353703369140625,0.4655907154083252,-5.508358001708984,3.142988681793213
1780751953007220000,23.402219970703126,-2.5581517219543457,-0.32335853576660156,-2.4020180702209473
1780751953055736600,23.450736572265626,-3.8779468536376953,4.267141342163086,-2.257812023162842
1780751953104253400,23.49925341796875,-3.670349359512329,-9.731425285339355,-0.4402812123298645
1780751953152770000,23.54777001953125,-5.369357109069824,-6.008490562438965,6.016931533813477
1780751953201286700,23.59628662109375,1.9020003080368042,4.831202983856201,5.636466026306152
1780751953249803300,23.64480322265625,3.227719306945801,2.330463409423828,-5.119563102722168
1780751953298320100,23.693320068359377,1.4318571090698242,4.018648624420166,-4.311638832092285
1780751953346836700,23.741836669921874,1.2928402423858643,4.737839698791504,-0.016799330711364746
1780751953395353300,23.790353271484374,-1.9237451553344727,-1.855520248413086,0.967039942741394
1780751953443870000,23.838869873046875,4.437500476837158,-6.324252128601074,0.9138522148132324
1780751953492386800,23.88738671875,-2.924522876739502,-6.699082374572754,-1.585410714149475
1780751953540903400,23.9359033203125,0.344518780708313,0.5892486572265625,-2.7152748107910156
1780751953589420000,23.984419921875,-0.7865493297576904,1.085392951965332,-0.7095739245414734
1780751953637936600,24.0329365234375,0.8523856401443481,-1.3809814453125,-4.593472480773926
1780751953686453200,24.081453369140625,1.4314780235290527,4.468153953552246,-3.171631097793579
1780751953783486700,24.17848681640625,3.39642333984375,1.143019676208496,-1.4391623735427856
1780751953832003300,24.22700341796875,1.2259116172790527,0.170440673828125,5.1307291984558105
1780751953880520000,24.27552001953125,3.4863929748535156,1.372406005859375,0.7124357223510742
1780751953929036800,24.324036865234376,5.7872443199157715,-1.5404472351074219,2.0632572174072266
1780751953977553400,24.372553466796877,0.2663308382034302,-3.8582277297973633,2.034269332885742
1780751954026070000,24.421070068359374,-2.682938575744629,0.9872560501098633,-4.416159152984619
1780751954074586400,24.46958642578125,-4.143588066101074,0.9202423095703125,-2.1677565574645996
1780751954123103000,24.51810302734375,-5.052507400512695,-9.461105346679688,-0.06009276956319809
1780751954171619800,24.566619873046875,-3.40482234954834,-1.2365007400512695,6.112778663635254
1780751954220136400,24.615136474609375,2.357210636138916,4.262600898742676,3.5799129009246826
1780751954268653000,24.663653076171876,1.6175196170806885,2.2664408683776855,-4.829455375671387
1780751954317169700,24.712169677734376,1.0359867811203003,3.905503273010254,-3.442028522491455
1780751954365686500,24.7606865234375,1.9709007740020752,4.801347732543945,1.5927913188934326
1780751954414203100,24.809203125,-3.1855740547180176,-4.694565773010254,1.7897862195968628
1780751954462719700,24.8577197265625,4.541529178619385,-5.105110168457031,1.5244355201721191
1780751954511236400,24.906236328125,-3.797863006591797,-5.426453590393066,-3.133061408996582
1780751954559753200,24.954753173828124,0.7649591565132141,1.009404182434082,-2.8049182891845703
1780751954608269800,25.003269775390624,-0.31082475185394287,-0.4372873306274414,-2.2421250343322754
1780751954656786400,25.051786376953125,1.5121173858642578,0.4569683074951172,-6.328129768371582
1780751954705303000,25.100302978515625,1.2351961135864258,3.625168800354004,-3.2855987548828125
1780751954753819600,25.148819580078126,-1.2703419923782349,0.6552248001098633,-0.319832444190979
1780751954802336500,25.19733642578125,2.4579453468322754,0.17805862426757812,1.3202009201049805
1780751954850853000,25.24585302734375,2.055476188659668,2.4251670837402344,2.907863140106201
1780751954899369700,25.29436962890625,5.1770429611206055,2.091376781463623,1.3600143194198608
1780751954947886300,25.34288623046875,4.634646415710449,-2.285904884338379,2.275625228881836
1780751954996403000,25.39140283203125,0.3741574287414551,-5.1780595779418945,2.126708507537842
1780751955044919600,25.43991943359375,-2.7167022228240967,1.4790115356445312,-1.979009747505188
1780751955093436200,25.488436279296874,-3.987489700317383,0.7868890762329102,-1.8857430219650269
1780751955141952800,25.536952880859374,-4.912744522094727,-8.929693222045898,-0.8017734289169312
1780751955190469600,25.5854697265625,-3.522103786468506,-1.414250373840332,7.538206577301025
1780751955238986200,25.633986328125,2.955763578414917,3.9291911125183105,1.589167594909668
1780751955336019500,25.73101953125,1.2064357995986938,4.317221641540527,-1.9175444841384888
1780751955384536000,25.7795361328125,1.90473473072052,4.518907070159912,1.0070217847824097
1780751955433053000,25.828052978515625,-1.9713903665542603,-5.9749956130981445,0.8029909729957581
1780751955481570000,25.876570068359374,4.052738666534424,-4.657720565795898,1.2458391189575195
1780751955530086400,25.92508642578125,-3.7175564765930176,-4.125886917114258,-2.4997735023498535
1780751955578603000,25.97360302734375,0.7518473267555237,0.5738449096679688,-1.5205198526382446
1780751955627119600,26.02211962890625,-0.6623642444610596,-1.0275917053222656,-1.5814330577850342
1780751955675636500,26.070636474609376,1.1876410245895386,0.859196662902832,-6.6499552726745605
1780751955724153000,26.119153076171877,0.5671931505203247,3.62235689163208,-1.8677767515182495
1780751955772669700,26.167669677734374,-0.9699777364730835,1.2425107955932617,-1.0325064659118652
1780751955821186300,26.216186279296874,3.2415828704833984,1.728529453277588,0.947568953037262
1780751955869703200,26.264703125,2.8682949542999268,2.3379125595092773,4.3116068840026855
1780751955918219800,26.3132197265625,5.168242454528809,0.3394899368286133,1.4493039846420288
1780751955966736100,26.361736083984376,2.8563685417175293,-4.427614212036133,4.541687488555908
1780751956015252700,26.410252685546876,-0.4193519353866577,-2.680935859680176,0.6773326992988586
1780751956063769600,26.45876953125,-3.0503180027008057,4.543951034545898,-2.743783950805664
1780751956112286200,26.5072861328125,-3.0839738845825195,-2.856250762939453,-3.2216577529907227
1780751956160802800,26.555802734375,-6.010871887207031,-10.256959915161133,1.551339864730835
1780751956209319400,26.6043193359375,-1.629293441772461,1.7841691970825195,7.534799575805664
1780751956257836000,26.6528359375,2.9691381454467773,3.9761314392089844,-0.8295414447784424
1780751956306353000,26.701352783203124,1.3914945125579834,2.379708766937256,-4.900941848754883
1780751956354869500,26.749869384765624,1.4040908813476562,4.913351058959961,-0.9141721129417419
1780751956403385900,26.7983857421875,-1.133204460144043,1.6775989532470703,1.9947893619537354
1780751956451902500,26.84690234375,2.164416551589966,-7.288344383239746,0.356251060962677
1780751956500419300,26.89541943359375,-1.4253110885620117,-4.976382255554199,0.6936401128768921
1780751956548936000,26.94393603515625,-1.5022287368774414,-2.0497608184814453,-5.144020080566406
1780751956597452500,26.99245263671875,0.5198974013328552,0.6335897445678711,-2.0854485034942627
1780751956645969200,27.04096923828125,-0.17607390880584717,-1.8181066513061523,-3.5514447689056396
1780751956694485800,27.08948583984375,1.9806239604949951,3.4750499725341797,-3.5174503326416016
1780751956743002400,27.13800244140625,-0.5167230367660522,3.0872983932495117,0.6050436496734619
1780751956791519000,27.18651904296875,1.3729963302612305,0.2519721984863281,-0.6206291317939758
1780751956888552200,27.28355224609375,3.2833099365234375,2.315579414367676,3.048488140106201
1780751956937069000,27.332069091796875,5.978636741638184,0.23023509979248047,-0.11456155776977539
1780751956985585700,27.380585693359375,1.7635234594345093,-4.257749557495117,4.153397560119629
1780751957034102000,27.42910205078125,-1.3782176971435547,-2.0197181701660156,-2.72792387008667
1780751957082618600,27.47761865234375,-2.4586257934570312,4.217840194702148,-2.080986261367798
1780751957131135500,27.526135498046877,-4.789525985717773,-8.741814613342285,-1.2554688453674316
1780751957179652000,27.574652099609374,-4.690707206726074,-5.678923606872559,4.923509120941162
1780751957228168700,27.623168701171874,1.6230778694152832,4.337756156921387,4.889559745788574
1780751957276685300,27.671685302734375,2.0851027965545654,1.990851879119873,-4.520947456359863
1780751957325202000,27.720201904296875,1.612227439880371,4.060202121734619,-3.6238980293273926
1780751957373718500,27.768718505859376,1.922478437423706,5.116405010223389,-0.18010923266410828
1780751957422235100,27.817235107421876,-2.4996140003204346,-1.6496381759643555,0.8177041411399841
1780751957470751700,27.865751708984376,4.999340057373047,-5.796648025512695,1.738958477973938
1780751957519268400,27.914268310546873,-3.271820306777954,-5.494704246520996,-0.8745830655097961
1780751957567785000,27.962784912109374,-0.25692856311798096,-0.07665729522705078,-2.8692848682403564
1780751957616301600,28.011301513671874,-0.13679802417755127,-0.4365978240966797,-0.9527115821838379
1780751957664818200,28.059818115234375,0.1790149211883545,-0.2986907958984375,-5.219388961791992
1780751957713334800,28.108334716796875,2.02675199508667,4.107863903045654,-3.2895689010620117
1780751957761851400,28.156851318359376,-1.417505145072937,1.305434226989746,0.7002500295639038
1780751957810368000,28.205367919921876,1.764699935913086,-0.2850332260131836,0.035178348422050476
1780751957858884600,28.253884521484373,2.65433931350708,3.554708957672119,2.827634334564209
1780751957907401200,28.302401123046874,5.3369975090026855,2.724107265472412,2.0245511531829834
1780751957955917800,28.350917724609374,3.9269144535064697,-2.9523096084594727,2.021240711212158
1780751958004434700,28.3994345703125,0.3589361906051636,-4.6066484451293945,2.1094722747802734
1780751958052951000,28.447950927734375,-1.5886173248291016,2.643393039703369,-3.0403947830200195
1780751958101467600,28.496467529296876,-3.068956136703491,-1.2713203430175781,-0.3813015818595886
1780751958149984300,28.544984375,-7.444242000579834,-12.578547477722168,-0.3860089182853699
1780751958198501000,28.593501220703125,-1.9417099952697754,0.5918855667114258,7.049542427062988
1780751958247017700,28.642017822265625,3.6423110961914062,4.922345161437988,0.6515264511108398
1780751958295534300,28.690534423828126,1.4860048294067383,3.148332118988037,-5.195911407470703
1780751958344050700,28.73905078125,0.9068014025688171,4.22874641418457,-1.2752447128295898
1780751958392567300,28.7875673828125,0.6682305932044983,3.9272236824035645,0.9621025323867798
1780751958489600800,28.884600830078124,3.5157642364501953,-3.342348098754883,2.189469337463379
1780751958538117000,28.9331171875,-4.287827491760254,-5.480440139770508,-3.8844597339630127
1780751958586633700,28.9816337890625,1.2116106748580933,2.174687385559082,-1.6365277767181396
1780751958635150600,29.030150634765626,0.2056429386138916,-1.6363582611083984,-1.7273786067962646
1780751958683667200,29.078667236328126,0.16849851608276367,0.4061136245727539,-5.604403018951416
1780751958732183800,29.127183837890627,1.4065601825714111,3.234248161315918,-1.6444833278656006
1780751958780700200,29.1757001953125,-0.8777233362197876,1.0389490127563477,0.027112603187561035
1780751958829216800,29.224216796875,2.2276434898376465,1.1519336700439453,0.6425796747207642
1780751958877733600,29.272733642578125,2.1155521869659424,2.8123388290405273,2.5707149505615234
1780751958926250200,29.321250244140625,5.9618120193481445,2.019023895263672,1.3853123188018799
1780751958974766600,29.3697666015625,3.927995204925537,-3.527820587158203,2.834981679916382
1780751959023283200,29.418283203125,-0.5784543752670288,-4.653596878051758,0.765082597732544
1780751959071800000,29.466800048828127,-2.459139585494995,3.4888720512390137,-3.2772765159606934
1780751959120316700,29.515316650390623,-2.6123852729797363,-0.11180305480957031,-1.7555856704711914
1780751959168833000,29.5638330078125,-5.895495414733887,-11.187347412109375,1.7637908458709717
1780751959217349600,29.612349609375,-2.4970154762268066,-0.25704479217529297,8.429378509521484
1780751959265866200,29.6608662109375,3.4382717609405518,2.6467580795288086,-0.7671416997909546
1780751959314383000,29.709383056640625,1.5774235725402832,2.3210482597351074,-4.468639373779297
1780751959362899500,29.7578994140625,1.3145787715911865,5.170164585113525,-0.9175971150398254
1780751959411416000,29.806416015625,0.06941688060760498,4.75521183013916,0.33376967906951904
1780751959459932700,29.8549326171875,0.7893938422203064,-6.957733154296875,-1.7992850542068481
1780751959508449500,29.903449462890624,3.0822336673736572,-2.7158756256103516,2.6259658336639404
1780751959556966000,29.9519658203125,-4.982404708862305,-4.606438636779785,-2.4045119285583496
1780751959605482500,30.000482421875,0.5376561284065247,2.403855800628662,-0.7077492475509644
1780751959653999000,30.0489990234375,-0.6345083713531494,-3.1440486907958984,-2.7453575134277344
1780751959702515700,30.097515625,0.5988978147506714,1.7151145935058594,-4.86467170715332
1780751959751032600,30.146032470703126,1.0440819263458252,3.2429466247558594,0.12558463215827942
1780751959799549000,30.194548828125,-0.08347094058990479,0.7362728118896484,-1.488937497138977
1780751959848065500,30.2430654296875,2.51682448387146,2.1000003814697266,0.956594705581665
1780751959896582100,30.29158203125,3.9103424549102783,2.725100040435791,4.385063171386719
1780751959945098800,30.3400986328125,5.036070823669434,0.47193431854248047,1.640668511390686
1780751959993615400,30.388615478515625,2.338775157928467,-4.912568092346191,3.5693347454071045
1780751960090648600,30.485648681640626,-2.901033401489258,4.00213623046875,-2.9533729553222656
1780751960139165000,30.5341650390625,-3.8140716552734375,-5.844304084777832,-2.9392738342285156
1780751960187681800,30.582681884765623,-6.336554050445557,-8.767574310302734,5.224519729614258
1780751960236198400,30.631198486328124,1.2497766017913818,3.4179201126098633,7.08746337890625
1780751960284715000,30.679715087890624,1.7660772800445557,2.6170854568481445,-2.570340633392334
1780751960333231400,30.7282314453125,1.5514256954193115,3.804781436920166,-4.882194519042969
1780751960381748200,30.776748291015625,1.8318578004837036,5.667327880859375,-0.6414346098899841
1780751960430264800,30.825264892578126,-1.8973382711410522,0.9402179718017578,0.351246178150177
1780751960478781400,30.873781494140626,3.091085910797119,-8.947190284729004,-0.11196571588516235
1780751960527298000,30.922298095703123,0.18510156869888306,-3.5953731536865234,2.839630603790283
1780751960575814700,30.970814697265624,-3.0209193229675293,-2.301150321960449,-2.9556620121002197
1780751960624331300,31.019331298828124,0.2980925440788269,2.9471588134765625,-0.41632360219955444
1780751960672847600,31.06784765625,-0.20631766319274902,-1.738250732421875,-3.3596606254577637
1780751960721364200,31.1163642578125,1.438363790512085,3.060372829437256,-4.353798866271973
1780751960769880800,31.164880859375,0.1669316291809082,2.6742868423461914,1.4232783317565918
1780751960818397400,31.2133974609375,-0.21521127223968506,-1.3851127624511719,-0.3252002000808716
1780751960866914000,31.2619140625,1.7716916799545288,1.6324796676635742,1.056060552597046
1780751960915430700,31.3104306640625,4.650359153747559,3.935932159423828,1.7001898288726807
1780751960963947300,31.358947265625,6.511050701141357,0.5809736251831055,1.8788082599639893
1780751961012463900,31.4074638671875,0.7675647735595703,-5.6978559494018555,4.720706939697266
1780751961060980500,31.45598046875,-0.958180844783783,-1.1700716018676758,-0.8460687398910522
1780751961109497000,31.5044970703125,-2.9332919120788574,5.289980888366699,-1.4927990436553955
1780751961158013700,31.553013671875,-4.091189861297607,-8.416482925415039,-1.96683669090271
1780751961206530000,31.601530029296875,-5.9101409912109375,-8.174325942993164,3.823180675506592
1780751961255047000,31.650046875,1.8936219215393066,3.6506190299987793,6.2575836181640625
1780751961303563500,31.6985634765625,2.0308382511138916,3.155681610107422,-2.539537191390991
1780751961352080000,31.747079833984376,1.8999985456466675,5.121329307556152,-4.897125244140625
1780751961400596500,31.795596435546877,1.8513669967651367,4.911205291748047,-1.1472954750061035
1780751961449113300,31.84411328125,-2.0844805240631104,-0.18065452575683594,1.181290626525879
1780751961497630000,31.8926298828125,2.707378625869751,-7.671401023864746,2.3023061752319336
1780751961546146300,31.941146240234374,-0.10128465294837952,-3.729586601257324,2.231549024581909
1780751961643179500,32.038179443359375,1.2065937519073486,2.815958023071289,-1.2822703123092651
1780751961691696000,32.08669604492187,-0.02594161033630371,-2.489259719848633,-3.1174097061157227
1780751961740212700,32.135212646484376,1.3610141277313232,2.7302727699279785,-5.494508743286133
1780751961788729300,32.18372924804687,-0.283266544342041,2.564058780670166,0.10613793134689331
1780751961837245700,32.23224560546875,0.7505505084991455,0.21126937866210938,-0.7369711995124817
1780751961885762600,32.280762451171874,2.366121530532837,2.319406509399414,2.003060817718506
1780751961934279200,32.32927905273438,2.9527289867401123,1.5169992446899414,4.238175868988037
1780751961982795500,32.37779541015625,5.681509494781494,1.0429954528808594,0.8932461738586426
1780751962031312100,32.42631201171875,2.759535789489746,-3.6298913955688477,3.724416732788086
1780751962079828700,32.474828857421876,-1.290784239768982,-3.6071529388427734,-1.4291083812713623
1780751962128345300,32.52334545898437,-2.249276638031006,3.551466941833496,-2.2731900215148926
1780751962176862000,32.57186206054688,-4.005453109741211,-5.573747634887695,-1.843519926071167
1780751962225378600,32.620378662109374,-5.602546691894531,-6.936528205871582,2.929776430130005
1780751962273895200,32.66889526367188,0.578650951385498,3.549058437347412,5.427785396575928
1780751962322411800,32.717411865234375,1.9158239364624023,3.748138904571533,-2.8332717418670654
1780751962370928400,32.76592846679687,1.7153425216674805,4.134801864624023,-4.384387016296387
1780751962419444700,32.81444482421875,1.414695143699646,3.7237730026245117,-0.37769001722335815
1780751962467961300,32.86296142578125,-2.7570366859436035,-1.1316461563110352,1.9594088792800903
1780751962516478000,32.91147802734375,3.980729103088379,-6.02047061920166,1.8274016380310059
1780751962564994600,32.95999462890625,-1.138246774673462,-4.415556907653809,1.2576394081115723
1780751962613511200,33.00851123046875,-1.9995687007904053,-1.1594314575195312,-3.3470277786254883
1780751962662027800,33.05702783203125,0.0594172477722168,0.6064128875732422,-0.9872719049453735
1780751962710544400,33.10554443359375,0.07014751434326172,-1.7010698318481445,-4.406054496765137
1780751962759061000,33.15406103515625,1.9529449939727783,3.7655720710754395,-4.091284275054932
1780751962807577600,33.20257763671875,-0.8360755443572998,2.626199245452881,-0.5245041847229004
1780751962856094000,33.251093994140625,1.5840575695037842,-0.26203346252441406,-1.545189380645752
1780751962904610600,33.29961059570312,1.8991714715957642,2.006542205810547,2.7113454341888428
1780751962953127200,33.348127197265626,4.086858749389648,2.0388126373291016,3.7855160236358643
1780751963001643800,33.39664379882812,5.370713233947754,-0.3576650619506836,1.8373924493789673
1780751963050160400,33.44516040039063,1.7996107339859009,-5.600606918334961,3.9335784912109375
1780751963147193300,33.542193359375,-3.201735019683838,3.660874366760254,-1.415673017501831
1780751963195710200,33.590710205078125,-3.309544563293457,-6.888805389404297,-1.0793282985687256
1780751963244226800,33.63922680664062,-4.985936641693115,-4.650657653808594,3.6150405406951904
1780751963292743200,33.6877431640625,0.8185515403747559,3.4549312591552734,4.426893711090088
1780751963341259800,33.736259765625,1.7461274862289429,2.606778621673584,-3.311418294906616
1780751963389776600,33.78477661132813,1.028520107269287,3.6527771949768066,-2.9350175857543945
1780751963438293000,33.83329296875,1.8772245645523071,4.329598426818848,0.8705853223800659
1780751963486809600,33.8818095703125,-2.2853610515594482,-3.07442569732666,1.9066548347473145
1780751963535326000,33.93032592773437,4.779825687408447,-5.007358551025391,1.3492064476013184
1780751963583842600,33.97884252929688,-3.434154987335205,-4.811558723449707,-1.2662806510925293
1780751963632359400,34.027359375,-0.07866322994232178,0.5853481292724609,-3.160571336746216
1780751963680875800,34.07587573242188,0.2841792106628418,-0.5078907012939453,-1.65079665184021
1780751963729392400,34.124392333984375,0.15998637676239014,-0.41100502014160156,-4.5319366455078125
1780751963777909000,34.17290893554687,1.6193017959594727,3.825510025024414,-1.4263958930969238
1780751963826425600,34.221425537109376,-0.9956423044204712,1.782851219177246,0.020172059535980225
1780751963874942200,34.26994213867187,1.975852131843567,0.16780662536621094,-0.5317895412445068
1780751963923458600,34.31845849609375,2.2560315132141113,2.6420793533325195,2.3140666484832764
1780751963971975200,34.36697509765625,6.042446136474609,1.9442472457885742,2.28399395942688
1780751964020491800,34.41549169921875,4.372365474700928,-3.1155834197998047,1.5307806730270386
1780751964069008400,34.46400830078125,0.359531044960022,-4.571662902832031,1.8640305995941162
1780751964117525000,34.51252490234375,-3.1647238731384277,3.3206491470336914,-1.8186378479003906
1780751964166041600,34.56104150390625,-4.092118740081787,-1.2297935485839844,-1.9740463495254517
1780751964214558200,34.60955810546875,-5.209122657775879,-11.272651672363281,1.4027314186096191
1780751964263074800,34.65807470703125,-1.812898874282837,0.7615222930908203,7.723478317260742
1780751964311591200,34.70659106445312,2.7423195838928223,4.281749248504639,0.014867603778839111
1780751964360107800,34.755107666015626,2.138917922973633,2.9468460083007812,-6.294205665588379
1780751964408624400,34.80362426757812,0.6376687288284302,3.753485679626465,-1.8887498378753662
1780751964457141000,34.85214111328125,0.661593496799469,3.3548288345336914,1.448578119277954
1780751964505657600,34.90065771484375,0.14671099185943604,-6.670206069946289,0.5676060318946838
1780751964554174200,34.94917431640625,3.321472406387329,-3.836421012878418,1.9617695808410645
1780751964602690600,34.997690673828124,-4.561989784240723,-3.6228504180908203,-2.2848000526428223
1780751964651207200,35.04620727539063,0.6036362648010254,1.3323688507080078,-1.2739853858947754
1780751964748240400,35.14324047851562,1.5067417621612549,2.351919174194336,-6.955821990966797
1780751964796757000,35.191757080078126,0.46062958240509033,2.93662166595459,0.5692881345748901
1780751964845273300,35.2402734375,0.18927931785583496,-0.8118801116943359,0.46054625511169434
1780751964893790000,35.2887900390625,2.345970630645752,1.1631278991699219,2.2518458366394043
1780751964942306800,35.337306884765624,2.8305439949035645,3.42795467376709,2.3402023315429688
1780751964990823200,35.3858232421875,6.671770095825195,1.2786989212036133,0.7610408067703247
1780751965039339800,35.43433984375,2.7047886848449707,-5.208080291748047,3.778393268585205
1780751965087856000,35.48285620117188,-1.1757032871246338,-3.4371328353881836,0.2179344892501831
1780751965136373000,35.531373046875,-3.1826961040496826,4.690866947174072,-1.4295234680175781
1780751965184889600,35.5798896484375,-3.4953880310058594,-3.8573741912841797,-2.2391085624694824
1780751965233406000,35.628406005859375,-6.628213882446289,-9.854180335998535,3.9349265098571777
1780751965281922600,35.67692260742187,0.6709206104278564,1.8828458786010742,6.469645977020264
1780751965330439200,35.725439208984376,2.180881977081299,3.758697986602783,-2.5731353759765625
1780751965378955800,35.77395581054687,1.8993977308273315,4.870752334594727,-3.9551444053649902
1780751965427472100,35.82247216796875,1.323287010192871,4.868344306945801,-0.4024553894996643
1780751965475988700,35.87098876953125,0.05076807737350464,1.3707160949707031,1.7096315622329712
1780751965524505300,35.91950537109375,1.3836826086044312,-9.117796897888184,0.5731222629547119
1780751965573022000,35.96802197265625,0.9158600568771362,-2.1800966262817383,2.826838970184326
1780751965621538600,36.01653857421875,-3.8752846717834473,-2.989574432373047,-4.259668827056885
1780751965670055200,36.06505517578125,1.458099365234375,1.8226308822631836,-1.4660894870758057
1780751965718571500,36.11357153320313,-0.5975583791732788,-1.381037712097168,-2.96769642829895
1780751965767088000,36.162088134765625,1.5514206886291504,2.850041389465332,-4.692995548248291
1780751965815604700,36.21060473632812,-0.24878156185150146,2.343600273132324,0.6931456327438354
1780751965864121300,36.259121337890626,-0.3384060859680176,-0.5273141860961914,-0.2225632667541504
1780751965912638000,36.30763793945312,2.527287483215332,2.1980504989624023,1.6233419179916382
1780751965961154300,36.356154296875,4.818447113037109,3.0821738243103027,3.173157215118408
1780751966009671000,36.4046708984375,5.036498546600342,-1.406773567199707,1.5931274890899658
1780751966058187500,36.4531875,0.8134881258010864,-6.0266571044921875,3.9392857551574707
1780751966106704100,36.5017041015625,-2.48650860786438,-0.36983680725097656,-1.3052992820739746
1780751966155220500,36.55022045898438,-1.4135818481445312,4.965497970581055,-1.707065463066101
1780751966203737000,36.598737060546874,-2.4889369010925293,-6.51702880859375,-1.5481940507888794
1780751966300770300,36.695770263671875,1.9723023176193237,3.700117588043213,3.5164551734924316
1780751966349287000,36.74428686523437,1.976676106452942,3.642299175262451,-3.941836357116699
1780751966397803300,36.79280322265625,1.5329265594482422,4.399615287780762,-2.8416907787323
1780751966446320000,36.84132006835937,1.1535654067993164,4.396017074584961,1.326852798461914
1780751966494836500,36.88983642578125,-2.1529006958007812,-4.421125411987305,1.2896854877471924
1780751966543353000,36.93835302734375,4.671932697296143,-5.494725227355957,1.6682864427566528
1780751966591869400,36.986869384765626,-3.5817506313323975,-4.510126113891602,-0.8909391760826111
1780751966640386000,37.03538598632812,0.6796339750289917,0.9450645446777344,-2.2937440872192383
1780751966688902700,37.08390258789063,-0.29589200019836426,-1.2292308807373047,-2.0333244800567627
1780751966737419300,37.132419189453124,0.2722362279891968,0.5938472747802734,-4.8690972328186035
1780751966785935600,37.180935546875,1.4897435903549194,4.118819236755371,-1.5502512454986572
1780751966834452200,37.2294521484375,-1.3213450908660889,0.7382240295410156,-0.5220502018928528
1780751966882968800,37.27796875,2.5408377647399902,0.5197477340698242,0.4986025094985962
1780751966931485400,37.3264853515625,2.128446102142334,3.1247682571411133,3.279252290725708
1780751966980002000,37.375001953125,5.752747535705566,1.5518293380737305,1.4213895797729492
1780751967028518700,37.4235185546875,4.114384174346924,-2.9962501525878906,2.909820318222046
1780751967077035000,37.47203491210937,-1.0854694843292236,-4.28055477142334,0.7415453195571899
1780751967125551600,37.520551513671876,-3.4419312477111816,3.8461618423461914,-2.024663209915161
1780751967174068200,37.56906811523437,-4.088447570800781,-3.3738088607788086,-2.1642208099365234
1780751967222584800,37.61758471679688,-5.36137056350708,-11.163350105285645,2.1718387603759766
1780751967271101200,37.66610107421875,-0.7537217736244202,2.6452279090881348,7.156198501586914
1780751967319617800,37.71461767578125,2.2204198837280273,4.506197929382324,-1.0343108177185059
1780751967368134400,37.763134521484375,2.100503921508789,3.9037303924560547,-5.536735534667969
1780751967416651000,37.81165112304687,1.1734182834625244,4.580048084259033,-0.9899047613143921
1780751967465167400,37.86016748046875,-0.3475532531738281,1.3491029739379883,1.7487108707427979
1780751967513684000,37.90868408203125,1.0560392141342163,-8.459833145141602,1.7830193042755127
1780751967562200600,37.95720068359375,0.6878714561462402,-3.5452117919921875,2.7752904891967773
1780751967610717200,38.00571728515625,-2.707548141479492,-3.310946464538574,-4.853573799133301
1780751967659233500,38.054233642578126,1.7467334270477295,3.545747756958008,-1.8315702676773071
1780751967707750100,38.10275024414062,-0.5252752304077148,-2.529707908630371,-2.28696346282959
1780751967756266500,38.1512666015625,1.0369421243667603,2.4913148880004883,-4.527163505554199
1780751967853299700,38.2482998046875,0.2045304775238037,0.024580001831054688,-0.5516941547393799
1780751967901816300,38.29681640625,2.5713915824890137,2.0948123931884766,1.9901190996170044
1780751967950332700,38.34533276367188,2.708922863006592,2.183088779449463,3.5365476608276367
1780751967998849500,38.393849609375,5.77671480178833,0.6141595840454102,0.6813173890113831
1780751968047366100,38.4423662109375,1.8495664596557617,-5.079214096069336,4.453774452209473
1780751968095882500,38.490882568359375,-1.3031549453735352,-2.886150360107422,-1.3954066038131714
1780751968144398800,38.53939892578125,-2.3210558891296387,5.302077293395996,-2.029344081878662
1780751968192915500,38.58791552734375,-2.455259323120117,-3.303852081298828,-2.1135458946228027
1780751968241432000,38.63643212890625,-6.793727397918701,-10.103750228881836,2.349114418029785
1780751968289948700,38.68494873046875,0.6895161867141724,2.544829845428467,5.822589874267578
1780751968338465300,38.73346533203125,1.4221575260162354,4.310509204864502,-1.3003380298614502
1780751968386982000,38.78198193359375,1.5563700199127197,4.271711826324463,-4.454350471496582
1780751968435498500,38.83049853515625,1.5114903450012207,4.805304527282715,-0.4149777591228485
1780751968484014800,38.87901489257813,-0.9910961985588074,0.42272472381591797,2.4898886680603027
1780751968532531200,38.92753125,1.1164770126342773,-9.167886734008789,1.0217669010162354
1780751968581047800,38.9760478515625,-0.36116132140159607,-4.26020622253418,1.499603033065796
1780751968629564400,39.024564453125,-0.9834203720092773,-1.4216985702514648,-3.799276351928711
1780751968678081000,39.0730810546875,0.5088562369346619,2.6189069747924805,-0.9613305330276489
1780751968726597400,39.121597412109374,0.04278445243835449,-1.7603015899658203,-3.2560579776763916
1780751968775114000,39.17011401367188,2.241934299468994,3.181729316711426,-4.243190288543701
1780751968823630600,39.218630615234375,-1.7160927057266235,2.0432705879211426,0.4947320222854614
1780751968872147200,39.26714721679687,0.8753513693809509,0.16495513916015625,-1.127895712852478
1780751968920663600,39.31566357421875,2.8579931259155273,2.0967187881469727,2.5813989639282227
1780751968969180200,39.36418017578125,3.8899827003479004,2.7139949798583984,4.910999774932861
1780751969017696800,39.41269677734375,4.63203763961792,-1.0370731353759766,0.4987870454788208
1780751969066213000,39.46121313476562,0.9103610515594482,-5.6164655685424805,3.8585166931152344
1780751969114729700,39.509729736328126,-0.8129293918609619,-1.2024412155151367,-1.747970461845398
1780751969163246300,39.55824633789062,-2.514867067337036,4.09243106842041,-1.6776232719421387
1780751969211763000,39.60676293945313,-3.11299467086792,-5.567905426025391,-2.697873830795288
1780751969260279300,39.655279296875,-6.536766052246094,-6.695562362670898,3.481933116912842
1780751969308796000,39.7037958984375,1.7459583282470703,3.355281352996826,4.850646018981934
1780751969357312500,39.7523125,1.4285905361175537,3.5857315063476562,-3.0635781288146973
1780751969454345500,39.849345458984374,1.8492982387542725,4.865129470825195,0.5181772112846375
1780751969502861800,39.89786181640625,-2.488311529159546,-3.342806816101074,1.9183545112609863
1780751969551378700,39.946378662109375,3.671323776245117,-6.688643455505371,2.1569910049438477
1780751969599895000,39.99489501953125,-1.4990266561508179,-3.3227357864379883,-0.21085548400878906
1780751969648411600,40.04341162109375,-1.0967514514923096,-0.7621698379516602,-3.3912277221679688
1780751969696928000,40.09192797851563,0.34557271003723145,0.32352256774902344,-1.7087318897247314
1780751969745444900,40.14044482421875,-0.11149537563323975,-0.2393474578857422,-3.630810022354126
1780751969793961200,40.18896118164062,2.4227447509765625,3.802520751953125,-2.9567086696624756
1780751969842477800,40.237477783203126,-1.5248147249221802,2.4369325637817383,-0.028550654649734497
1780751969890994200,40.285994140625,0.8362394571304321,-0.6228523254394531,-0.0760657787322998
1780751969939510800,40.3345107421875,2.436363697052002,2.486213207244873,2.4191949367523193
1780751969988027400,40.38302734375,4.761568069458008,2.103003978729248,1.831242561340332
1780751970036544000,40.4315439453125,4.700187683105469,-2.6701793670654297,1.9242610931396484
1780751970085060400,40.48006030273437,0.2507210969924927,-5.623063087463379,3.568934917449951
1780751970133577000,40.52857690429688,-1.681309461593628,0.6707983016967773,-2.1580841541290283
1780751970182093600,40.577093505859374,-1.7944297790527344,5.008857727050781,-2.245450973510742
1780751970230610000,40.62560986328125,-2.956361770629883,-7.757360458374023,-1.9929519891738892
1780751970279126500,40.67412646484375,-6.435119152069092,-5.666055679321289,4.401854515075684
1780751970327643100,40.72264306640625,2.6887457370758057,4.007441997528076,4.049350261688232
1780751970376159500,40.771159423828124,1.3703131675720215,3.340700149536133,-3.5587453842163086
1780751970424676000,40.81967602539063,1.6413452625274658,4.445474624633789,-3.7921080589294434
1780751970473192400,40.8681923828125,1.2492499351501465,4.692543983459473,0.47082310914993286
1780751970521709000,40.916708984375,-2.153827667236328,-3.6595029830932617,1.2062512636184692
1780751970570225700,40.9652255859375,3.5245840549468994,-6.888930320739746,2.385221481323242
1780751970618742000,41.01374194335938,-1.5936084985733032,-5.24664306640625,-1.4150679111480713
1780751970667258600,41.062258544921875,0.0480189323425293,2.123861789703369,-1.6624553203582764
1780751970715775200,41.11077514648437,-1.064807415008545,0.9484281539916992,-0.41107141971588135
1780751970764291800,41.159291748046876,0.07156705856323242,-2.060527801513672,-4.753075122833252
1780751970812808200,41.20780810546875,1.6725519895553589,3.768171787261963,-3.9789769649505615
1780751970861324800,41.25632470703125,-0.45662641525268555,2.0005970001220703,0.2998502850532532
1780751970909841400,41.30484130859375,1.6118128299713135,0.008723258972167969,0.7100313901901245
1780751970958357800,41.353357666015626,2.0400874614715576,2.277775764465332,3.422201156616211
1780751971055390700,41.450390625,5.154073715209961,-1.8189334869384766,0.6446033120155334
1780751971103907600,41.498907470703124,0.8588452339172363,-5.987567901611328,3.6809241771698
1780751971152424000,41.547423828125,-1.676756501197815,-0.7103166580200195,-0.7020900845527649
1780751971200940300,41.59594018554687,-3.0278358459472656,4.052032470703125,-2.5102884769439697
1780751971249457000,41.64445678710938,-2.738171100616455,-5.0615997314453125,-2.1735901832580566
1780751971297973500,41.692973388671874,-6.57135534286499,-5.83237361907959,5.407363414764404
1780751971346490000,41.74148999023438,1.64155912399292,2.811720848083496,3.4106292724609375
1780751971395006500,41.79000634765625,1.5107741355895996,3.2353343963623047,-3.5888028144836426
1780751971443523000,41.83852319335937,1.4187629222869873,4.454984664916992,-2.8878283500671387
1780751971492039700,41.887039794921876,1.3972642421722412,4.710649490356445,0.12217980623245239
1780751971540556000,41.93555615234375,-1.915365219116211,-1.5462017059326172,2.1599953174591064
1780751971589072600,41.98407275390625,3.2121410369873047,-7.092934608459473,1.8405232429504395
1780751971637589000,42.03258911132812,-1.8226011991500854,-4.782495498657227,0.4573296904563904
1780751971686105600,42.081105712890626,-1.264594316482544,-0.9864311218261719,-3.8932881355285645
1780751971734622200,42.12962231445312,0.010789275169372559,1.2901182174682617,-1.5351181030273438
1780751971783138600,42.178138671875,0.013963460922241211,-1.1299934387207031,-3.786109209060669
1780751971831655200,42.2266552734375,2.2440576553344727,3.4494361877441406,-3.566493272781372
1780751971880171800,42.275171875,-1.688317894935608,2.1758837699890137,0.161763995885849
1780751971928688000,42.32368823242187,1.5904288291931152,-0.20556926727294922,-0.00003311038017272949
1780751971977204700,42.37220483398438,2.3999850749969482,2.388434886932373,2.8000388145446777
1780751972025721000,42.42072119140625,4.289286136627197,2.7139968872070312,3.7433488368988037
1780751972074237700,42.46923779296875,4.393155097961426,-2.287846565246582,0.4782109558582306
1780751972122754300,42.51775439453125,1.5573058128356934,-5.874337196350098,4.530839920043945
1780751972171270700,42.56627075195313,-0.8151335716247559,-0.4853544235229492,-0.507615327835083
1780751972219787500,42.61478759765625,-2.5774173736572266,4.158449649810791,-1.8535847663879395
1780751972268304000,42.66330395507813,-2.942556381225586,-4.248577117919922,-3.4013891220092773
1780751972316820200,42.7118203125,-6.326201438903809,-6.974442481994629,3.2184510231018066
1780751972365336800,42.7603369140625,0.948778510093689,2.3569631576538086,5.261885643005371
1780751972413853400,42.808853515625,1.9555683135986328,3.743971824645996,-2.5455098152160645
1780751972462370000,42.8573701171875,1.1809698343276978,3.996649742126465,-3.268480062484741
1780751972559402800,42.95440283203125,-0.6426806449890137,-0.045416831970214844,2.1871869564056396
1780751972607919400,43.00291943359375,1.464150071144104,-7.687066078186035,1.7901748418807983
1780751972656436000,43.05143603515625,-0.49064937233924866,-2.939785957336426,1.961564302444458
1780751972704952600,43.09995263671875,-2.1658859252929688,-3.0933027267456055,-5.497104644775391
1780751972753469000,43.14846899414062,1.1167197227478027,2.0427732467651367,-1.8513405323028564
1780751972801985500,43.196985595703126,-1.010157823562622,-1.8172225952148438,-3.1709349155426025
1780751972850502100,43.24550219726562,1.5321027040481567,2.7925872802734375,-4.223855495452881
1780751972947535000,43.34253515625,0.6651021242141724,-0.3402366638183594,-0.4057835340499878
1780751972996051500,43.391051513671876,2.8706130981445312,2.990504264831543,2.4428467750549316
1780751973044568000,43.43956811523437,3.8403563499450684,3.7738656997680664,2.0636086463928223
1780751973093084700,43.48808471679688,5.178285121917725,-1.5336275100708008,0.9379892349243164
1780751973141601000,43.53660107421875,1.4714992046356201,-6.2447309494018555,4.6174116134643555
1780751973190117600,43.58511767578125,-0.25850653648376465,-1.795170783996582,-0.9313730001449585
1780751973238634200,43.63363427734375,-2.6890108585357666,5.7875776290893555,-1.4162567853927612
1780751973287150600,43.68215063476563,-2.3991966247558594,-3.1459121704101562,-2.6321029663085938
1780751973335667200,43.730667236328124,-6.316862106323242,-9.986184120178223,2.202343463897705
1780751973384183600,43.77918359375,0.7244263291358948,2.5198259353637695,6.530365943908691
1780751973432700200,43.8277001953125,1.7499871253967285,3.955112934112549,-1.158846378326416
1780751973481216800,43.876216796875,1.8960673809051514,4.129697799682617,-5.2342529296875
1780751973529733000,43.924733154296874,0.9815114140510559,4.6358747482299805,-0.8986528515815735
1780751973578249700,43.97324975585938,0.5250491499900818,1.321518898010254,1.5627613067626953
1780751973626766300,44.021766357421875,0.19731158018112183,-8.760851860046387,0.9953507781028748
1780751973675282700,44.07028271484375,0.6364126205444336,-4.417609214782715,2.0420873165130615
1780751973723799300,44.11879931640625,-2.035569667816162,-1.9891328811645508,-3.3310041427612305
1780751973772316000,44.16731591796875,0.18024635314941406,2.1543688774108887,-1.5707423686981201
1780751973820832300,44.215832275390625,0.0004216432571411133,-2.6767196655273438,-3.039590835571289
1780751973869348900,44.26434887695312,1.4181525707244873,2.595264434814453,-3.716238498687744
1780751973917865200,44.312865234375,-0.032308340072631836,3.694715976715088,0.9901045560836792
1780751973966381800,44.3613818359375,0.5517330169677734,0.65765380859375,-1.6542487144470215
1780751974014898400,44.4098984375,2.3805174827575684,2.122425079345703,2.2899227142333984
1780751974063414800,44.45841479492187,3.1760096549987793,2.330989360809326,3.753779649734497
1780751974160447700,44.55544775390625,1.5219322443008423,-5.674525260925293,3.852168560028076
1780751974208964400,44.60396435546875,-1.3923792839050293,-1.7583436965942383,-1.709507942199707
1780751974257481000,44.65248095703125,-3.204489231109619,3.8980531692504883,-1.9446101188659668
1780751974305997300,44.700997314453126,-3.0228323936462402,-4.776030540466309,-2.0816080570220947
1780751974354513700,44.749513671875,-5.9936418533325195,-6.806064605712891,5.202632904052734
1780751974403030500,44.79803051757813,1.1553518772125244,3.4450411796569824,5.495420932769775
1780751974451547000,44.846546875,1.4001343250274658,3.2278523445129395,-2.9006266593933105
1780751974500063500,44.8950634765625,1.8546159267425537,4.012627601623535,-5.0994462966918945
1780751974548579800,44.94357983398437,1.4518661499023438,4.646208763122559,0.13596227765083313
1780751974597096400,44.99209643554688,-1.6374821662902832,-0.8675508499145508,2.3406550884246826
1780751974645613000,45.040613037109374,3.436277389526367,-7.532371520996094,0.9917961359024048
1780751974694129400,45.08912939453125,-0.9640623331069946,-4.219669342041016,0.48545193672180176
1780751974742645800,45.13764575195312,-1.689615249633789,-0.8799753189086914,-3.176555633544922
1780751974791162400,45.18616235351563,0.6773572564125061,1.6057538986206055,-0.9926195740699768
1780751974839679000,45.234678955078124,-0.673537015914917,-2.2127790451049805,-2.658660411834717
1780751974888195600,45.28319555664063,1.6689915657043457,3.5495710372924805,-3.9292755126953125
1780751974936712000,45.3317119140625,-1.4681366682052612,2.8843741416931152,0.13693180680274963
1780751974985228300,45.38022827148438,1.4532890319824219,0.3360757827758789,-1.5316047668457031
1780751975033745000,45.428744873046874,2.815406322479248,2.468961715698242,3.411640167236328
1780751975082261500,45.47726147460938,4.347996234893799,2.1888160705566406,2.6008100509643555
1780751975130777900,45.52577783203125,4.42242431640625,-1.8241157531738281,0.894767701625824
1780751975179294500,45.57429443359375,1.1827589273452759,-4.844710350036621,2.9884610176086426
1780751975227810800,45.622810791015624,-2.117560386657715,0.4041719436645508,-1.6942119598388672
1780751975324844000,45.719843994140625,-4.703943252563477,-9.975584030151367,-1.4868121147155762
1780751975373360400,45.7683603515625,-4.596510410308838,-4.345884323120117,5.246971607208252
1780751975421877000,45.816876953125,2.0539517402648926,4.629932403564453,3.7777132987976074
1780751975470393600,45.8653935546875,0.9631730318069458,3.269346237182617,-3.5005197525024414
1780751975518910200,45.91391015625,1.7344446182250977,4.248155117034912,-3.616212844848633
1780751975567426600,45.96242651367187,1.8304916620254517,5.147059917449951,0.5807157754898071
1780751975615943000,46.01094287109375,-3.4628171920776367,-3.891176223754883,1.6418378353118896
1780751975664459500,46.05945947265625,3.1995749473571777,-6.837241172790527,1.3779866695404053
1780751975712976100,46.10797607421875,-1.4202027320861816,-4.263789176940918,-0.7675648927688599
1780751975761492500,46.15649243164062,-0.007910966873168945,1.0544519424438477,-2.8078670501708984
1780751975810009000,46.205009033203126,0.030497312545776367,1.7480525970458984,-0.15392541885375977
1780751975858525400,46.253525390625,0.02762925624847412,-2.149066925048828,-4.088038444519043
1780751975907042000,46.3020419921875,1.6547199487686157,3.0215301513671875,-2.441409111022949
1780751975955558700,46.35055859375,-1.615190029144287,2.150407314300537,0.14301669597625732
1780751976004075000,46.399074951171876,2.350747585296631,0.13809490203857422,-2.1724894046783447
1780751976052591600,46.44759155273437,2.7391486167907715,1.871500015258789,4.582010746002197
1780751976101108000,46.49610791015625,3.319202423095703,2.424872398376465,2.8042635917663574
1780751976149624600,46.54462451171875,4.781191349029541,-1.622818946838379,0.47842937707901
1780751976198141200,46.59314111328125,0.9131923913955688,-4.64705753326416,3.935812473297119
1780751976246657500,46.64165747070312,-1.0928959846496582,-0.6868906021118164,-0.8566466569900513
1780751976295174100,46.69017407226563,-3.2224762439727783,3.849416732788086,-1.8661503791809082
1780751976343690800,46.738690673828124,-3.328129768371582,-4.699316024780273,-3.580260753631592
1780751976392207000,46.78720703125,-5.674465656280518,-6.630499839782715,5.3389201164245605
1780751976440723700,46.8357236328125,1.0627073049545288,2.039595603942871,5.168374061584473
1780751976489240000,46.88423999023438,1.93464195728302,3.291513442993164,-3.4481914043426514
1780751976537756700,46.932756591796874,1.2468442916870117,3.5404748916625977,-3.3885061740875244
1780751976586273300,46.98127319335938,1.4670495986938477,4.845641136169434,0.29216378927230835
1780751976634789600,47.02978955078125,-1.1421425342559814,-0.031105995178222656,1.9692356586456299
1780751976683306200,47.07830615234375,2.7261006832122803,-7.014280319213867,0.9361056685447693
1780751976731822600,47.126822509765624,-0.48409503698349,-4.111392021179199,0.5694939494132996
1780751976780339000,47.1753388671875,-1.7354247570037842,-1.4899492263793945,-2.5975496768951416
1780751976828855800,47.223855712890625,0.697120726108551,1.0123929977416992,-1.4076428413391113
1780751976877372200,47.2723720703125,-0.511397123336792,-0.8343954086303711,-3.9000511169433594
1780751976925888800,47.320888671875,2.229282855987549,2.72713565826416,-4.09558629989624
1780751976974405000,47.36940502929688,-0.6349939107894897,2.011441707611084,0.49811050295829773
1780751977022921700,47.417921630859375,0.671954870223999,-0.4174222946166992,-0.9519488215446472
1780751977071438300,47.46643823242187,2.8288626670837402,3.1886157989501953,2.3517203330993652
1780751977119954700,47.51495458984375,4.476244926452637,3.344808578491211,2.870450973510742
1780751977168471000,47.56347094726563,4.537092208862305,-2.1029510498046875,0.9207897782325745
1780751977216987600,47.611987548828125,1.1922569274902344,-6.169178009033203,4.5641655921936035
1780751977265504300,47.66050415039062,-0.4179760217666626,-1.0898075103759766,-0.6570497155189514
1780751977314020900,47.709020751953126,-3.0160694122314453,5.014283657073975,-1.7426817417144775
1780751977362537200,47.757537109375,-2.8680245876312256,-4.445804595947266,-3.3337831497192383
1780751977411053600,47.806053466796875,-5.922572612762451,-8.341796875,3.9529359340667725
1780751977459570200,47.85457006835937,1.304245948791504,2.8528456687927246,5.445557117462158
1780751977508086800,47.903086669921876,2.0602364540100098,3.565426826477051,-2.6304197311401367
1780751977556603100,47.95160302734375,2.059431314468384,3.947929859161377,-4.154560089111328
1780751977605119700,48.00011962890625,1.2207121849060059,4.34937047958374,-0.06825408339500427
1780751977653636000,48.04863598632812,-1.9197548627853394,-0.18717193603515625,0.3036331534385681
1780751977702152700,48.097152587890626,5.125994682312012,-6.727409362792969,0.118277907371521
1780751977750669300,48.14566943359375,-2.3663406372070312,-5.775357246398926,1.2004848718643188
1780751977799185700,48.194185546875,-1.504438042640686,-0.8526191711425781,-3.6295554637908936
1780751977847702300,48.242702392578124,2.0087733268737793,2.632920265197754,-0.7740206122398376
1780751977896219000,48.29121899414063,-0.02857804298400879,-1.7526092529296875,-3.046034336090088
1780751977944735200,48.3397353515625,1.548790454864502,3.523128032684326,-3.1863648891448975
1780751977993251800,48.388251953125,-2.4626786708831787,2.091958522796631,0.7354910969734192
1780751978041768200,48.436768310546874,2.769503593444824,0.17780017852783203,-1.6879281997680664
1780751978090284800,48.48528491210938,3.1385741233825684,2.3817176818847656,4.456998825073242
1780751978138801400,48.533801513671875,3.6473355293273926,2.028247833251953,1.174811601638794
1780751978187317800,48.58231787109375,4.7078094482421875,-3.416518211364746,0.4800715446472168
1780751978284350700,48.67935083007813,-2.943840265274048,1.6479272842407227,-0.9126846790313721
1780751978332867000,48.7278671875,-3.93631649017334,-0.07342815399169922,-1.8999080657958984
1780751978381383700,48.7763837890625,-4.76151180267334,-10.168474197387695,0.5768587589263916
1780751978429900300,48.824900390625,-3.3008432388305664,-0.9995317459106445,7.224666595458984
1780751978478417000,48.8734169921875,2.272522211074829,4.714054584503174,1.365182876586914
1780751978526933200,48.921933349609375,1.5132077932357788,3.6192612648010254,-5.002757549285889
1780751978575449900,48.97044995117187,1.73761785030365,4.484208583831787,-2.1976232528686523
1780751978623966500,49.018966552734376,1.2883108854293823,4.347685813903809,1.6616482734680176
1780751978672482800,49.06748291015625,-3.0647945404052734,-7.664894104003906,1.390255093574524
1780751978720999200,49.115999267578125,4.5609965324401855,-4.781479835510254,1.8689392805099487
1780751978769515800,49.16451586914062,-3.7854042053222656,-3.0429582595825195,-1.8882131576538086
1780751978818032400,49.213032470703126,0.5097963809967041,1.793966293334961,-1.9690626859664917
1780751978866549000,49.26154907226562,0.340475857257843,-0.2321300506591797,-0.5049507021903992
1780751978915065300,49.3100654296875,0.9334840774536133,0.020255088806152344,-5.430218696594238
1780751978963581700,49.35858178710937,0.5642405152320862,3.289999485015869,-0.19202525913715363
1780751979012098300,49.407098388671876,-0.8860257863998413,0.7615022659301758,0.2155458927154541
1780751979060615000,49.45561499023437,2.790238857269287,0.9879827499389648,0.7800725698471069
1780751979109131300,49.50413134765625,3.434967517852783,2.6613898277282715,4.0107011795043945
1780751979157648000,49.55264794921875,5.306048393249512,0.5972137451171875,1.8292113542556763
1780751979206164200,49.60116430664063,1.358694314956665,-5.446889877319336,3.9287991523742676
1780751979254680800,49.64968090820312,-1.2504416704177856,-1.6321649551391602,-0.4468611478805542
1780751979303197400,49.69819750976563,-2.413099765777588,6.473516464233398,-2.933621644973755
1780751979351713800,49.7467138671875,-1.0130624771118164,-3.695981025695801,-3.1354527473449707
1780751979400230400,49.79523046875,-6.945820331573486,-12.687908172607422,4.155885219573975
1780751979448746800,49.84374682617187,-0.044626832008361816,3.0034384727478027,6.571889877319336
1780751979497263400,49.89226342773438,2.4293696880340576,4.664687633514404,-1.326150894165039
1780751979545780000,49.940780029296874,1.9336254596710205,3.842780590057373,-5.7311296463012695
1780751979594296300,49.98929638671875,1.301116704940796,5.03684139251709,-1.5757441520690918
1780751979642812700,50.03781274414062,-0.5533599853515625,0.009156227111816406,1.1329562664031982
1780751979691329300,50.08632934570313,1.9101996421813965,-7.682003021240234,1.9548918008804321
1780751979739846000,50.134845947265624,-1.1041581630706787,-3.879718780517578,1.9885807037353516
1780751979788362200,50.1833623046875,-1.6950608491897583,-1.6330757141113281,-3.677947998046875
1780751979836878800,50.23187890625,0.9379383325576782,1.3355064392089844,-1.7003288269042969
1780751979885395200,50.28039526367188,0.0649716854095459,-2.0564937591552734,-4.212173938751221
1780751979933911800,50.328911865234375,0.9657834768295288,3.189877986907959,-4.334450721740723
1780751979982428400,50.37742846679687,-0.673621416091919,1.5886640548706055,0.4056825339794159
1780751980030944800,50.42594482421875,1.1300950050354004,0.12555694580078125,-1.0596882104873657
1780751980079461400,50.47446142578125,2.6880416870117188,3.44266414642334,2.310758113861084
1780751980127978000,50.52297802734375,4.540726661682129,3.117953300476074,3.380140542984009
1780751980176494300,50.57149438476562,4.452665328979492,-3.0163965225219727,1.820641279220581
1780751980225011000,50.620010986328126,1.3562027215957642,-5.248403549194336,4.043348789215088
1780751980273527300,50.66852734375,-0.4745901823043823,-0.12053108215332031,-0.7546399235725403
1780751980322043600,50.717043701171875,-2.2458739280700684,5.143409252166748,-3.091052770614624
1780751980370560300,50.76556030273437,-2.3647398948669434,-3.584014892578125,-3.5504539012908936
1780751980419076900,50.814076904296876,-7.741566181182861,-10.695442199707031,5.323492050170898
1780751980467593200,50.86259326171875,1.472054362297058,2.0510544776916504,5.324371814727783
1780751980516109800,50.91110986328125,2.7962677478790283,2.5759963989257812,-3.030083179473877
1780751980564626400,50.95962646484375,1.4649146795272827,4.107733726501465,-4.586136817932129
1780751980613142800,51.008142822265626,1.4461610317230225,5.965214729309082,-1.1695188283920288
1780751980661659400,51.05665942382812,-0.9638225436210632,1.0979461669921875,-0.3044588565826416
1780751980710175700,51.10517578125,1.7865407466888428,-7.870283126831055,0.12787580490112305
1780751980758692400,51.1536923828125,1.5086727142333984,-3.2189979553222656,3.6977319717407227
1780751980807209000,51.202208984375,-3.066082000732422,-2.7276315689086914,-3.158562183380127
1780751980855725300,51.25072534179687,0.9835597276687622,2.644639015197754,-1.0992701053619385
1780751980904242000,51.29924194335938,0.021186530590057373,-1.4295072555541992,-1.7570289373397827
1780751980952758300,51.34775830078125,0.9224997758865356,1.3256607055664062,-4.6774725914001465
1780751981001274600,51.396274658203126,-0.590774416923523,2.2071266174316406,0.7242612838745117
1780751981049791200,51.44479125976562,0.09581434726715088,0.01755237579345703,-0.9332835674285889
1780751981098307800,51.49330786132813,2.2872138023376465,2.5310583114624023,1.2419254779815674
1780751981146824200,51.54182421875,3.684429168701172,3.528219223022461,2.68906831741333
1780751981195340800,51.5903408203125,5.0289506912231445,-0.9669990539550781,2.3837902545928955
1780751981243857400,51.638857421875,1.0998220443725586,-5.738287925720215,4.46377420425415
1780751981292373800,51.68737377929688,0.1735641360282898,-2.06063175201416,-0.1339792013168335
1780751981340890400,51.735890380859374,-3.059985399246216,4.200007438659668,-2.0794644355773926
1780751981389406700,51.78440673828125,-2.7735562324523926,-0.40060997009277344,-4.5126447677612305
1780751981437923000,51.83292309570312,-5.879947662353516,-9.652351379394531,2.857621908187866
1780751981486439700,51.88143969726563,-1.2838459014892578,0.10842227935791016,5.768847465515137
1780751981534956300,51.929956298828124,2.415623664855957,3.601898193359375,-1.0766422748565674
1780751981583472600,51.97847265625,1.1645398139953613,3.9145474433898926,-3.511326789855957
1780751981631989200,52.0269892578125,1.744783639907837,5.472744941711426,-0.49708276987075806
1780751981680505900,52.075505859375,0.3059804439544678,2.447725296020508,1.8431766033172607
1780751981729022200,52.124022216796874,0.18812507390975952,-9.316210746765137,0.9351733922958374
1780751981777538800,52.17253881835938,1.6183987855911255,-3.290193557739258,3.0436289310455322
1780751981826055200,52.22105517578125,-2.5420827865600586,-2.3684892654418945,-2.9938292503356934
1780751981874571500,52.26957153320313,0.971630334854126,2.1218419075012207,-2.2765400409698486
1780751981923088100,52.318088134765624,0.35210466384887695,-1.4607276916503906,-1.662984848022461
1780751981971604700,52.36660473632813,0.662932813167572,1.1154775619506836,-5.1426100730896
1780751982020121000,52.41512109375,-0.11142098903656006,2.8434319496154785,-0.5879260301589966
1780751982068637700,52.4636376953125,-0.4319643974304199,0.014679908752441406,-2.00016713142395
1780751982117154000,52.512154052734374,2.6492366790771484,1.909533977508545,1.266879916191101
1780751982165670700,52.56067065429688,2.9516701698303223,3.1005992889404297,3.686384677886963
1780751982214187300,52.609187255859375,5.273201942443848,1.2625789642333984,1.199486494064331
1780751982262703600,52.65770361328125,1.9980136156082153,-5.378270149230957,3.7695412635803223
1780751982311220000,52.706219970703124,-0.7633993625640869,-3.2539262771606445,0.4725084602832794
1780751982359736600,52.75473657226563,-1.7857624292373657,3.119863510131836,-2.176724910736084
1780751982408253200,52.803253173828125,-1.8083653450012207,-0.9008874893188477,-3.191066026687622
1780751982456769500,52.85176953125,-5.399302959442139,-8.695877075195312,1.7004663944244385
1780751982505286000,52.900285888671874,-1.4909381866455078,0.48000431060791016,5.7890777587890625
1780751982553802500,52.94880249023438,2.4943549633026123,3.779196262359619,-1.0874358415603638
1780751982602319000,52.997319091796875,1.5854803323745728,3.71779203414917,-4.752706050872803
1780751982650835500,53.04583544921875,1.6523865461349487,5.0690531730651855,-1.0578125715255737
1780751982699352000,53.09435205078125,-0.22713428735733032,1.4188270568847656,0.7604093551635742
1780751982747868400,53.14286840820313,0.1674586832523346,-7.855349540710449,0.8397964239120483
1780751982796385000,53.191385009765625,2.500676155090332,-2.993027687072754,3.100677251815796
1780751982844901600,53.23990161132812,-3.4587161540985107,-2.495809555053711,-3.2107388973236084
1780751982893418000,53.28841796875,0.6454899311065674,0.4766969680786133,-1.9480314254760742
1780751982941934300,53.33693432617188,0.166406512260437,-0.8208646774291992,-2.077502489089966
1780751982990451000,53.385450927734375,1.9552700519561768,1.4557905197143555,-3.44512939453125
1780751983038967600,53.43396752929687,-0.5358675718307495,3.788269519805908,0.716503918170929
1780751983087484000,53.48248388671875,-0.896108865737915,0.6408758163452148,-2.1993682384490967
1780751983136000300,53.53100024414063,3.5859789848327637,1.9566583633422852,1.7381174564361572
1780751983184516900,53.579516845703125,2.586151361465454,2.7459726333618164,3.9462411403656006
1780751983281549800,53.6765498046875,2.2156190872192383,-5.342438697814941,2.894402503967285
1780751983330066400,53.72506640625,-0.9809327721595764,-1.5980892181396484,-0.25184166431427
1780751983378582800,53.773582763671875,-2.993166208267212,4.086437225341797,-1.9125046730041504
1780751983427099100,53.82209912109375,-2.754948616027832,-3.4347496032714844,-2.5086631774902344
1780751983475615700,53.87061572265625,-5.93577241897583,-8.53292465209961,4.99165678024292
1780751983524132400,53.91913232421875,0.33977988362312317,2.356473922729492,4.833981513977051
1780751983572648700,53.967648681640625,1.7675222158432007,3.914212703704834,-2.279637098312378
1780751983621165300,54.01616528320312,1.9830290079116821,4.237600803375244,-4.24690055847168
1780751983669681700,54.064681640625,2.0725629329681396,5.785586833953857,-0.5750787854194641
1780751983718198300,54.1131982421875,-2.2325069904327393,0.06477928161621094,1.9544696807861328
1780751983766714600,54.161714599609375,1.9824953079223633,-8.8401517868042,1.8466256856918335
1780751983815231200,54.21023120117187,0.031842730939388275,-3.6100196838378906,2.890352964401245
1780751983863747600,54.25874755859375,-1.6193808317184448,-2.26068115234375,-4.568852424621582
1780751983912264200,54.30726416015625,0.34366828203201294,2.6121954917907715,-1.3351978063583374
1780751983960780800,54.35578076171875,-0.4167804718017578,-1.2304954528808594,-2.721957206726074
1780751984009297200,54.40429711914062,1.6318259239196777,1.628591537475586,-5.015788555145264
1780751984057813500,54.4528134765625,-0.3129878044128418,2.507382392883301,0.11124321818351746
1780751984106329900,54.50132983398437,0.4823421239852905,-0.34681034088134766,-0.05575936287641525
1780751984154846500,54.549846435546876,2.0082221031188965,1.2555885314941406,2.5166878700256348
1780751984203363000,54.59836303710937,3.187265396118164,2.949963092803955,2.8379037380218506
1780751984251879400,54.64687939453125,5.823523044586182,0.8000421524047852,0.5772095918655396
1780751984300396000,54.69539599609375,2.4421157836914062,-4.938885688781738,4.2434258460998535
1780751984348912400,54.743912353515626,-1.3466829061508179,-3.241954803466797,0.35270825028419495
1780751984397429000,54.79242895507812,-3.111006259918213,3.969165802001953,-2.116136312484741
1780751984445945300,54.8409453125,-2.7682433128356934,-2.2319631576538086,-4.546263694763184
1780751984494462000,54.8894619140625,-5.3997673988342285,-8.68169116973877,2.919564723968506
1780751984542978300,54.937978271484376,-0.9933172464370728,1.9286003112792969,6.739433765411377
1780751984591495000,54.98649487304687,2.3022119998931885,4.199650764465332,-1.1613426208496094
1780751984640011500,55.03501147460938,2.094252109527588,3.8375186920166016,-5.431742191314697
1780751984688528000,55.08352783203125,1.276106595993042,5.18858528137207,-0.9490318298339844
1780751984737044200,55.132044189453126,-1.1862362623214722,0.11043262481689453,1.0130480527877808
1780751984785560800,55.18056079101562,1.9344921112060547,-7.686154365539551,1.7158013582229614
1780751984834077400,55.22907739257813,1.07981538772583,-3.691155433654785,2.8281073570251465
1780751984882593800,55.27759375,-2.7725014686584473,-2.492733955383301,-3.5649006366729736
1780751984931110100,55.326110107421876,0.935853898525238,2.354116439819336,-0.5412485003471375
1780751984979626800,55.37462670898437,-0.20654261112213135,-2.247807502746582,-1.7894744873046875
1780751985028143000,55.42314306640625,1.609023094177246,2.585102081298828,-4.87052059173584
1780751985076659700,55.47165966796875,-1.5193067789077759,3.4491567611694336,-0.12562228739261627
1780751985125176000,55.520176025390626,1.043125867843628,0.6225137710571289,-3.1410999298095703
1780751985173692700,55.56869262695312,3.7637076377868652,1.3139734268188477,4.640305042266846
1780751985222209000,55.617208984375,2.102733850479126,2.1722187995910645,3.5410666465759277
1780751985270725600,55.6657255859375,5.509619235992432,-0.7860956192016602,0.004216983914375305
1780751985319242200,55.7142421875,1.9474924802780151,-4.839765548706055,3.3795952796936035
1780751985367758600,55.76275854492187,-1.2059943675994873,-0.871373176574707,-2.1306145191192627
1780751985416275000,55.81127490234375,-3.5994300842285156,3.7259163856506348,-1.1756987571716309
1780751985464791300,55.85979125976562,-4.680305480957031,-8.740351676940918,-0.19730257987976074
1780751985513308000,55.908307861328126,-4.8682379722595215,-5.397418022155762,3.6602697372436523
1780751985561824500,55.95682446289062,1.5755419731140137,4.5012359619140625,4.646183490753174
1780751985610340900,56.0053408203125,1.1421375274658203,2.727560520172119,-3.160578966140747
1780751985658857500,56.053857421875,1.7880159616470337,4.368039131164551,-3.8303956985473633
1780751985707374000,56.1023740234375,1.9861195087432861,5.3817644119262695,0.8859965801239014
1780751985755890400,56.15089038085937,-2.4411122798919678,-2.741952896118164,2.3612020015716553
1780751985804406800,56.19940673828125,4.228194713592529,-6.540833473205566,1.6435731649398804
1780751985852923400,56.24792333984375,-2.092672109603882,-4.345108985900879,-0.14974117279052734
1780751985901439700,56.296439697265626,-0.5673636794090271,-0.6378984451293945,-2.7031736373901367
1780751985949956400,56.34495629882812,0.020832419395446777,1.0560474395751953,-1.5687909126281738
1780751985998472700,56.39347265625,-0.24662280082702637,-0.9307212829589844,-3.8519811630249023
1780751986046989300,56.4419892578125,1.869588017463684,3.422896385192871,-2.85451602935791
1780751986095505700,56.490505615234376,-0.8243991136550903,2.303295612335205,0.8609170913696289
1780751986144022000,56.53902197265625,0.9068320989608765,0.05507183074951172,-1.156737208366394
1780751986192539000,56.58753881835938,2.5302064418792725,3.0403995513916016,2.156708002090454
1780751986241055200,56.63605517578125,4.9512481689453125,2.1097965240478516,3.0960562229156494
1780751986289571600,56.684571533203126,3.8084678649902344,-3.068653106689453,1.4506322145462036
1780751986338088000,56.733087890625,0.22470390796661377,-4.906827926635742,2.958026647567749
1780751986386604500,56.7816044921875,-2.3744001388549805,1.3989238739013672,-1.2356295585632324
1780751986435121200,56.83012109375,-2.662792682647705,2.070232391357422,-3.694908380508423
1780751986483637500,56.878637451171876,-4.464115142822266,-9.047948837280273,-1.2390587329864502
1780751986532153900,56.92715380859375,-4.704888343811035,-3.5168752670288086,8.321979522705078
1780751986580670500,56.97567041015625,2.443263292312622,5.040203094482422,1.8737473487854004
1780751986629187000,57.02418701171875,1.890486478805542,3.6684341430664062,-5.378359794616699
1780751986677703400,57.072703369140626,1.6527385711669922,4.6416144371032715,-2.3406591415405273
1780751986726219800,57.1212197265625,1.7902109622955322,4.28959321975708,1.1247812509536743
1780751986774736400,57.169736328125,-3.321765661239624,-6.530186653137207,1.4317200183868408
1780751986823253000,57.2182529296875,4.5004167556762695,-5.577854156494141,1.8848408460617065
1780751986871769300,57.266769287109376,-2.1768462657928467,-3.779831886291504,-1.030900478363037
1780751986920286000,57.31528588867187,-0.07197022438049316,1.9382381439208984,-1.2987899780273438
1780751986968802300,57.36380224609375,-0.1262425184249878,1.1223602294921875,-0.8289898633956909
1780751987017318700,57.41231860351562,0.0633310079574585,-1.395033836364746,-4.534670352935791
1780751987065835300,57.460835205078126,1.8988409042358398,3.4541940689086914,-1.8168361186981201
1780751987114351900,57.50935180664062,-1.4267657995224,1.0412988662719727,-0.1877705454826355
1780751987162868200,57.5578681640625,1.8919142484664917,0.16623210906982422,0.17466072738170624
1780751987211384600,57.60638452148437,1.9999853372573853,3.0570292472839355,2.0692081451416016
1780751987259901000,57.65490087890625,5.081659317016602,2.1611409187316895,1.9418021440505981
1780751987308417500,57.70341748046875,4.576803207397461,-2.326383590698242,1.5033109188079834
1780751987356934100,57.75193408203125,0.3682212829589844,-5.415125846862793,3.072155237197876
1780751987405450500,57.80045043945312,-2.3214261531829834,1.1439266204833984,-0.8900561928749084
1780751987453966800,57.848966796875,-3.1928367614746094,0.9243497848510742,-2.7427148818969727
1780751987502483500,57.8974833984375,-4.568963050842285,-8.409106254577637,-1.2282557487487793
1780751987551000000,57.946,-4.275497913360596,-1.822138786315918,6.814340591430664
1780751987599516400,57.99451635742187,2.6389174461364746,4.588561058044434,1.8778493404388428
1780751987648032800,58.04303271484375,1.8403571844100952,3.4343857765197754,-4.948033809661865
1780751987696549400,58.09154931640625,1.4773154258728027,4.100220680236816,-2.413586139678955
1780751987745066000,58.14006591796875,1.3380088806152344,4.006284236907959,1.1067111492156982
1780751987793582300,58.18858227539062,-2.3734471797943115,-7.086176872253418,1.7487311363220215
1780751987842098700,58.2370986328125,3.2790398597717285,-3.6391334533691406,2.917294979095459
1780751987890615300,58.285615234375,-2.904926061630249,-4.10062313079834,-2.835498571395874
1780751987939131600,58.334131591796876,0.3355289697647095,0.9793539047241211,-2.024609088897705
1780751987987648300,58.38264819335937,0.21088409423828125,-0.879216194152832,-2.2654056549072266
1780751988036164600,58.43116455078125,0.6435353755950928,0.7237396240234375,-5.022271156311035
1780751988084681200,58.47968115234375,2.3274598121643066,3.897830009460449,-1.087577223777771
1780751988133197600,58.528197509765626,-1.318552017211914,1.2712364196777344,-0.42906105518341064
1780751988181714200,58.57671411132812,2.144287586212158,-0.0043087005615234375,1.1866559982299805
1780751988230230500,58.62523046875,2.175046443939209,2.265519142150879,3.2913174629211426
1780751988278747100,58.6737470703125,5.197388648986816,1.8296570777893066,1.9956154823303223
1780751988327263500,58.722263427734376,3.3733677864074707,-3.543919563293457,2.401503086090088
1780751988375779800,58.77077978515625,-0.57295823097229,-4.662559509277344,1.1598496437072754
1780751988424296400,58.81929638671875,-2.9255354404449463,2.5544724464416504,-2.5316667556762695
1780751988472813000,58.86781298828125,-2.4249322414398193,-0.13995742797851562,-2.9839935302734375
1780751988521329400,58.916329345703126,-5.042410373687744,-8.774930953979492,0.7250322699546814
1780751988569845800,58.964845703125,-2.3431026935577393,0.13901615142822266,6.411836624145508
1780751988618362400,59.0133623046875,1.870673656463623,4.872358322143555,0.5949985980987549
1780751988666879000,59.06187890625,1.6710976362228394,3.6094865798950195,-4.933587551116943
1780751988715395300,59.110395263671876,1.797385573387146,4.4891462326049805,-1.6179931163787842
1780751988763911700,59.15891162109375,-0.10110843181610107,2.2652578353881836,2.064889907836914
1780751988812428000,59.207427978515625,-0.10857182741165161,-7.927422523498535,1.6135227680206299
1780751988860944600,59.25594458007812,0.974097728729248,-3.864363670349121,3.255614757537842
1780751988909461200,59.304461181640626,-1.9182403087615967,-3.9629077911376953,-5.027235507965088
1780751988957977600,59.3529775390625,0.4178706407546997,2.5599021911621094,-1.3756489753723145
1780751989006494000,59.401493896484375,-0.3227553367614746,-1.1356582641601562,-1.3963305950164795
1780751989055010300,59.45001025390625,2.009397029876709,1.1462163925170898,-4.3477983474731445
1780751989103527000,59.49852685546875,0.18316876888275146,3.4061617851257324,-0.7527493238449097
1780751989152043500,59.54704345703125,-0.1499720811843872,0.7188472747802734,-0.8998242616653442
1780751989200559900,59.595559814453125,3.196277379989624,1.8409919738769531,1.4374207258224487
1780751989249076200,59.644076171875,3.4573447704315186,2.0239615440368652,4.330832481384277
1780751989297592800,59.6925927734375,5.001184463500977,-0.07448768615722656,1.3892368078231812
1780751989346109400,59.741109375,1.976488709449768,-4.654461860656738,3.4596211910247803
1780751989394625800,59.789625732421875,-1.3446823358535767,-2.657252311706543,-1.44765043258667
1780751989443142100,59.83814208984375,-1.8984863758087158,4.584439754486084,-2.653215169906616
1780751989491658800,59.88665869140625,-3.489682674407959,-5.234343528747559,-2.1835873126983643
1780751989540175400,59.93517529296875,-6.244678974151611,-7.901350975036621,2.8838958740234375
1780751989588691700,59.983691650390625,1.7223159074783325,3.745039939880371,5.310693740844727
1780751989637208000,60.0322080078125,1.242774248123169,3.9455103874206543,-1.5081099271774292
1780751989685724400,60.080724365234374,2.08383846282959,4.224414348602295,-5.317660331726074
1780751989734241000,60.12924096679688,1.630443811416626,4.394265174865723,-0.49735158681869507
1780751989782757600,60.177757568359375,-1.876837968826294,-1.2164878845214844,1.9635305404663086
1780751989831274000,60.22627392578125,2.7980358600616455,-7.581438064575195,1.2573912143707275
1780751989879790300,60.274790283203124,-0.6831974387168884,-3.5888471603393555,1.3816783428192139
1780751989928307000,60.32330688476563,-1.627737045288086,-1.015615463256836,-3.166402816772461
1780751989976823300,60.3718232421875,0.5964360237121582,0.32611083984375,-1.3948583602905273
1780751990025340000,60.42033984375,-0.362743616104126,-1.0096664428710938,-4.395455837249756
1780751990073856300,60.468856201171874,2.5351314544677734,3.679678440093994,-4.331989765167236
1780751990122372600,60.51737255859375,-0.5392148494720459,2.7513022422790527,0.4471995532512665
1780751990170889200,60.56588916015625,0.001450657844543457,-0.812286376953125,0.6474043726921082
1780751990219405600,60.61440551757813,2.3471903800964355,1.953113079071045,2.3263978958129883
1780751990267922200,60.662922119140624,4.400540351867676,2.4125590324401855,1.6204249858856201
1780751990316438500,60.7114384765625,5.205554962158203,-1.3031864166259766,0.9306820034980774
1780751990364955000,60.759954833984374,0.5965268611907959,-6.056881904602051,3.3682894706726074
1780751990413471500,60.80847143554688,-1.9564402103424072,0.21357154846191406,-1.0601474046707153
1780751990461988000,60.856988037109375,-2.6460750102996826,4.531149387359619,-1.4447782039642334
1780751990510504400,60.90550439453125,-3.0092358589172363,-7.541840553283691,-2.3480708599090576
1780751990559020800,60.954020751953124,-6.376255035400391,-5.758068084716797,5.282650947570801
1780751990607537400,61.00253735351563,2.132767915725708,4.172106742858887,3.543567180633545
1780751990656053800,61.0510537109375,1.309914469718933,3.385091781616211,-3.652064800262451
1780751990704570400,61.0995703125,1.924597978591919,4.488192558288574,-3.3591694831848145
1780751990753086700,61.148086669921874,1.840172529220581,5.263103008270264,0.6634042859077454
1780751990801603000,61.19660302734375,-2.847216844558716,-4.716979026794434,1.9636845588684082
1780751990850119700,61.24511962890625,3.9747116565704346,-5.8974151611328125,2.8816566467285156
1780751990898636000,61.29363598632813,-2.540491819381714,-4.107588768005371,-1.1789278984069824
1780751990947152600,61.342152587890624,0.24509763717651367,0.7122697830200195,-3.3924572467803955
1780751990995669000,61.3906689453125,0.3739153742790222,1.8891782760620117,-0.8193614482879639
1780751991044185600,61.439185546875,-0.39073967933654785,-2.3773679733276367,-3.4026644229888916
1780751991092702000,61.48770190429688,1.8558754920959473,2.6606216430664062,-3.0137081146240234
1780751991141218600,61.536218505859374,-1.527917742729187,1.2136402130126953,0.2736872136592865
1780751991189735000,61.58473486328125,1.9118642807006836,1.2983903884887695,-0.09526316076517105
1780751991238251300,61.63325122070312,1.7775102853775024,2.359915256500244,1.9109188318252563
1780751991286767900,61.68176782226563,4.394508361816406,2.291712760925293,2.6541123390197754
1780751991335284200,61.7302841796875,4.661162853240967,-2.1953086853027344,1.693827748298645
1780751991383800800,61.77880078125,1.225965142250061,-5.378117561340332,3.2608230113983154
1780751991432317200,61.82731713867187,-1.4694328308105469,0.7489509582519531,-1.0891785621643066
1780751991480833500,61.87583349609375,-2.4562811851501465,4.091324806213379,-2.181792736053467
1780751991529350100,61.92435009765625,-3.6075215339660645,-7.725288391113281,-2.405237913131714
1780751991577866500,61.972866455078126,-5.997704029083252,-6.151888847351074,5.7781596183776855
1780751991626383000,62.02138305664062,2.8930859565734863,3.637298583984375,3.738642692565918
1780751991674899500,62.0698994140625,1.1667978763580322,3.4696850776672363,-3.6708946228027344
1780751991723416000,62.118416015625,1.567683219909668,4.848771572113037,-3.4214179515838623
1780751991771932400,62.166932373046876,1.8395648002624512,5.493190765380859,-0.19316737353801727
1780751991820449000,62.21544897460937,-2.386845588684082,-3.7640180587768555,1.3353363275527954
1780751991868965400,62.26396533203125,3.0650594234466553,-6.694338798522949,2.9508118629455566
1780751991917481700,62.31248168945312,-2.046316146850586,-4.6137237548828125,-0.7710809111595154
1780751991965998300,62.360998291015626,-0.22380995750427246,0.5674209594726562,-2.27242374420166
1780751992014514700,62.4095146484375,0.20975196361541748,0.9172601699829102,-2.1034679412841797
1780751992063031300,62.45803125,-0.022147536277770996,-1.7302207946777344,-5.377457618713379
1780751992111547600,62.50654760742187,2.325737714767456,3.3563075065612793,-2.747751474380493
1780751992160064000,62.55506396484375,-1.2545307874679565,1.3262434005737305,0.6582180261611938
1780751992208580600,62.60358056640625,1.540574312210083,0.3272237777709961,0.9272972345352173
1780751992257097000,62.652096923828125,1.932002305984497,2.4045238494873047,2.3414809703826904
