time,seconds_elapsed,z,y,x
1780751929874431000,0.269430908203125,0.00038179047987796366,0.07452550530433655,0.007483093533664942
1780751929922923300,0.31792333984375,0.0005345066892914474,0.0550541877746582,0.0019089524867013097
1780751929971440000,0.366440185546875,0.0025198173243552446,0.039018988609313965,-0.013744457624852657
1780751930019957000,0.41495703125,0.004657844081521034,0.015806125476956367,-0.0027488914784044027
1780751930068473900,0.463473876953125,-0.00946840364485979,0.004734201822429895,0.012522728182375431
1780751930116990700,0.51199072265625,-0.008857538923621178,-0.0013744457392022014,0.004963276442140341
1780751930165507600,0.560507568359375,-0.008017600513994694,0.002061668550595641,0.003512472379952669
1780751930214024700,0.609024658203125,-0.00847574882209301,0.0066431546583771706,0.008093958720564842
1780751930262541300,0.657541259765625,-0.0017562361899763346,0.0029779658652842045,-0.007788525894284248
1780751930311058200,0.70605810546875,-0.0021380267571657896,0.009850194677710533,-0.005345067009329796
1780751930359575000,0.754574951171875,0.004428769461810589,0.0023671009112149477,-0.006185005884617567
1780751930408092200,0.803092041015625,-0.0029779658652842045,0.015500693581998348,-0.004581485874950886
1780751930456609000,0.851609130859375,-0.003741546766832471,0.0027488914784044027,-0.004428769461810589
1780751930505126000,0.9001259765625,-0.0012980876490473747,0.01030834298580885,0.004352411720901728
1780751930553642800,0.948642822265625,-0.0012980876490473747,-0.0005345066892914474,0.002290742937475443
1780751930602159900,0.997159912109375,-0.008628465235233307,0.007406735327094793,0.002901607658714056
1780751930650676500,1.045676513671875,0.0006872228696011007,0.014737112447619438,-0.010537417605519295
1780751930699193300,1.094193359375,0.005650499369949102,0.062537282705307,-0.025961752980947495
1780751930747710200,1.142710205078125,-0.0010690133785828948,0.09964732080698013,-0.04650207981467247
1780751930796227000,1.19122705078125,-0.006414080038666725,0.10125083476305008,-0.01740964688360691
1780751930844744200,1.239744140625,-0.0012980876490473747,0.06872228533029556,-0.03145953640341759
1780751930893261000,1.288260986328125,0.00007635809743078426,0.03711003437638283,-0.01718057133257389
1780751930941778000,1.33677783203125,0.005650499369949102,0.016187917441129684,-0.007635809946805239
1780751930990294800,1.385294677734375,0.0154243353754282,0.038560837507247925,-0.031841326504945755
1780751931038812000,1.43381201171875,0.03375028073787689,0.0066431546583771706,-0.07750347256660461
1780751931087328800,1.482328857421875,0.03581194952130318,0.00007635809743078426,-0.0732274129986763
1780751931135845600,1.530845703125,0.014202605932950974,-0.020922118797898293,-0.0703258067369461
1780751931184362500,1.579362548828125,0.0001527161948615685,-0.10606139898300171,-0.06421715766191483
1780751931232879400,1.62787939453125,0.019242240116000175,-0.16424626111984253,-0.019394956529140472
1780751931281396500,1.676396484375,0.06238456442952156,-0.23533566296100616,-0.054901473224163055
1780751931329913300,1.724913330078125,0.08009964227676392,-0.24182608723640442,-0.05543597787618637
1780751931378430200,1.77343017578125,0.03802633285522461,-0.17172935605049133,-0.04940368980169296
1780751931426947000,1.821947021484375,0.0005345066892914474,-0.054901473224163055,0.04390590637922287
1780751931475464000,1.8704638671875,-0.034895651042461395,0.025503603741526604,0.11476621776819229
1780751931523980800,1.918980712890625,-0.01977674663066864,0.07628174126148224,-0.016646064817905426
1780751931572497700,1.96749755859375,0.014966187067329884,0.053832460194826126,-0.033139415085315704
1780751931621014500,2.0160146484375,0.005192350596189499,0.004734201822429895,0.028787001967430115
1780751931669531400,2.064531494140625,0.003741546766832471,0.03474293276667595,-0.04169152304530144
1780751931766565400,2.1615654296875,-0.008628465235233307,0.10041090101003647,0.0025198173243552446
1780751931815082200,2.210082275390625,-0.02328922040760517,0.08605557680130005,-0.019471315667033195
1780751931863599000,2.25859912109375,-0.03504836559295654,0.06444623321294785,-0.042913250625133514
1780751931912116000,2.307115966796875,-0.0383317656815052,0.028557928279042244,-0.036804601550102234
1780751931960633000,2.355633056640625,-0.03428478538990021,0.03107774630188942,0.0032070400193333626
1780751932009150000,2.40414990234375,-0.015500693581998348,0.001450803829357028,-0.020082179456949234
1780751932057666800,2.452666748046875,-0.012140937149524689,-0.011377356946468353,0.0017562361899763346
1780751932106183700,2.50118359375,-0.014508038759231567,-0.015577051788568497,-0.025809036567807198
1780751932154700500,2.549700439453125,-0.0021380267571657896,-0.009850194677710533,-0.016340631991624832
1780751932203217700,2.5982177734375,0.00603228947147727,0.000305432389723137,-0.013133592903614044
1780751932251734500,2.646734619140625,-0.0010690133785828948,0.03932442143559456,-0.011911863461136818
1780751932300251400,2.69525146484375,0.006414080038666725,0.030161447823047638,-0.029856016859412193
1780751932348768300,2.743768310546875,0.010537417605519295,0.025350889191031456,-0.04634936526417732
1780751932397285000,2.79228515625,0.005039634648710489,0.012904518283903599,-0.02672533318400383
1780751932445802200,2.84080224609375,-0.0012980876490473747,0.0017562361899763346,-0.02802342176437378
1780751932494318800,2.88931884765625,0.0006872228696011007,-0.013209951110184193,-0.022525638341903687
1780751932542835700,2.937835693359375,-0.004581485874950886,-0.011682788841426373,-0.004810560029000044
1780751932591352600,2.9863525390625,-0.002672533504664898,-0.011682788841426373,-0.024281874299049377
1780751932639869700,3.03486962890625,-0.004581485874950886,0.003741546766832471,-0.016416991129517555
1780751932688386600,3.083386474609375,-0.006566796451807022,0.010919207707047462,-0.007254019379615784
1780751932736903400,3.1319033203125,-0.004810560029000044,0.015195261687040329,-0.02023489587008953
1780751932785420300,3.180420166015625,-0.0025198173243552446,0.018784092739224434,-0.021914774551987648
1780751932833937200,3.228937255859375,-0.0029779658652842045,0.01107192412018776,-0.012751801870763302
1780751932882454300,3.277454345703125,-0.002290742937475443,0.012904518283903599,-0.013897174037992954
1780751932930971100,3.32597119140625,-0.009086613543331623,0.018402300775051117,-0.028787001967430115
1780751932979488000,3.374488037109375,-0.004199695307761431,0.037720900028944016,-0.029474224895238876
1780751933028004900,3.4230048828125,-0.0012980876490473747,0.03138317912817001,-0.026419902220368385
1780751933076521700,3.471521728515625,-0.000305432389723137,0.02718348242342472,-0.013286309316754341
1780751933125038800,3.520038818359375,-0.00511599238961935,0.034666575491428375,-0.017027854919433594
1780751933173555700,3.5685556640625,0.0013744457392022014,0.024740023538470268,-0.022678354755043983
1780751933222072300,3.617072265625,0.004352411720901728,0.03245219215750694,-0.024892739951610565
1780751933270589200,3.665589111328125,0.005268708802759647,0.017333287745714188,-0.011453714221715927
1780751933367623200,3.762623046875,-0.015958841890096664,-0.0025198173243552446,-0.0012980876490473747
1780751933416140000,3.81114013671875,-0.010079269297420979,-0.005192350596189499,-0.005421424750238657
1780751933464657000,3.859656982421875,-0.006414080038666725,-0.005650499369949102,-0.013286309316754341
1780751933513173800,3.908173828125,-0.001450803829357028,-0.0007635809597559273,-0.0007635809597559273
1780751933561691000,3.95669091796875,-0.003741546766832471,0.019853105768561363,-0.012140937149524689
1780751933610207700,4.005207763671875,-0.00007635809743078426,0.021838415414094925,-0.0019089524867013097
1780751933658724600,4.053724609375,-0.004581485874950886,0.034437503665685654,0.004810560029000044
1780751933707241500,4.102241455078125,-0.002290742937475443,0.03756818547844887,-0.005574141163378954
1780751933755758600,4.150758544921875,0.005192350596189499,0.02741255611181259,-0.012293653562664986
1780751933804275200,4.199275146484375,0.004657844081521034,0.012675444595515728,0.002901607658714056
1780751933852792000,4.2477919921875,0.004428769461810589,-0.008628465235233307,0.004810560029000044
1780751933901309000,4.296308837890625,-0.00045814859913662076,-0.015806125476956367,-0.0025961752980947495
1780751933949825800,4.34482568359375,-0.001450803829357028,-0.004657844081521034,0.004734201822429895
1780751933998343000,4.393343017578125,0.0035888305865228176,-0.011911863461136818,0.0025198173243552446
1780751934046859800,4.44185986328125,-0.0017562361899763346,0.001450803829357028,0.0019853105768561363
1780751934095376600,4.490376708984375,-0.0012980876490473747,0.001679878099821508,0.0023671009112149477
1780751934143893500,4.5388935546875,0.00603228947147727,-0.005650499369949102,0.006185005884617567
1780751934192410600,4.58741064453125,0.008704823441803455,-0.008017600513994694,-0.014737112447619438
1780751934240927200,4.63592724609375,0.007635809946805239,0.00022907429956831038,-0.0019089524867013097
1780751934289444000,4.684444091796875,0.004581485874950886,0.004123337101191282,0.0021380267571657896
1780751934337961000,4.7329609375,0.0066431546583771706,0.001450803829357028,-0.0015271619195118546
1780751934386477800,4.781477783203125,0.008246674202382565,0.002672533504664898,0.0006872228696011007
1780751934434995000,4.829994873046875,0.007254019379615784,0.003894262947142124,-0.0062613640911877155
1780751934483511800,4.87851171875,0.0066431546583771706,0.006566796451807022,-0.004581485874950886
1780751934532028700,4.927028564453125,0.007635809946805239,0.005192350596189499,-0.005650499369949102
1780751934580545500,4.975545654296875,0.0016035200096666813,0.0015271619195118546,0.00603228947147727
1780751934629062400,5.0240625,0.0021380267571657896,-0.006490438245236874,0.0029779658652842045
1780751934677579300,5.072579345703125,0.004581485874950886,-0.004046979360282421,-0.0038179049734026194
1780751934726096400,5.121096435546875,0.0019853105768561363,-0.007254019379615784,-0.008628465235233307
1780751934774613000,5.169613037109375,0.004657844081521034,-0.009315688163042068,-0.0011453714687377214
1780751934823129900,5.2181298828125,0.004352411720901728,-0.009315688163042068,-0.007788525894284248
1780751934871647000,5.26664697265625,0.005039634648710489,0.0019089524867013097,-0.004963276442140341
1780751934920163800,5.315163818359375,0.005650499369949102,-0.0027488914784044027,0.005650499369949102
1780751935017197600,5.412197509765625,0.0011453714687377214,-0.0013744457392022014,-0.008857538923621178
1780751935065714400,5.46071435546875,0.0011453714687377214,0.006566796451807022,-0.00045814859913662076
1780751935114231300,5.509231201171875,0.0038179049734026194,-0.0006872228696011007,-0.005345067009329796
1780751935162748200,5.557748046875,-0.003283398225903511,0.010919207707047462,-0.006872228812426329
1780751935211265000,5.60626513671875,-0.003512472379952669,0.012675444595515728,-0.0017562361899763346
1780751935259782000,5.654781982421875,-0.003283398225903511,0.01030834298580885,-0.0009162971982732415
1780751935308299000,5.703299072265625,-0.0006872228696011007,0.010842849500477314,-0.004734201822429895
1780751935356816000,5.75181591796875,0.000305432389723137,0.006185005884617567,0.0021380267571657896
1780751935405332700,5.800332763671875,-0.0009162971982732415,-0.000305432389723137,0.0025198173243552446
1780751935453849300,5.848849365234375,0.0021380267571657896,-0.004963276442140341,-0.0031306820455938578
1780751935502366200,5.8973662109375,0.0021380267571657896,-0.012293653562664986,-0.0032070400193333626
1780751935550883300,5.94588330078125,0.0029779658652842045,-0.005574141163378954,-0.0025961752980947495
1780751935599400200,5.994400146484375,0.0009162971982732415,-0.009697478264570236,-0.003512472379952669
1780751935647917000,6.0429169921875,-0.0006872228696011007,-0.007864884100854397,0.0001527161948615685
1780751935696434000,6.091433837890625,0.005650499369949102,-0.008704823441803455,-0.002901607658714056
1780751935744950800,6.13995068359375,0.004199695307761431,0.001450803829357028,-0.008017600513994694
1780751935793467600,6.188467529296875,0.009086613543331623,-0.0029779658652842045,-0.007635809946805239
1780751935841984500,6.236984619140625,0.005421424750238657,0.007024944759905338,-0.003512472379952669
1780751935890501400,6.28550146484375,0.0025961752980947495,0.012140937149524689,-0.005803215317428112
1780751935939018200,6.334018310546875,0.0027488914784044027,0.013668099418282509,-0.0017562361899763346
1780751935987535000,6.38253515625,0.003359756199643016,0.004810560029000044,-0.0021380267571657896
1780751936036052000,6.431052001953125,0.0027488914784044027,0.005192350596189499,-0.005803215317428112
1780751936084568800,6.47956884765625,0.005803215317428112,-0.0017562361899763346,-0.00679587060585618
1780751936133085700,6.528085693359375,0.0025961752980947495,-0.004963276442140341,-0.00045814859913662076
1780751936181602600,6.5766025390625,0.0023671009112149477,-0.008704823441803455,-0.0025961752980947495
1780751936230119700,6.62511962890625,0.005268708802759647,-0.004428769461810589,-0.003512472379952669
1780751936278636500,6.673636474609375,0.00954476185142994,-0.007406735327094793,-0.013897174037992954
1780751936327153400,6.7221533203125,0.005039634648710489,0.0010690133785828948,-0.0013744457392022014
1780751936375670000,6.770669921875,0.005803215317428112,-0.0027488914784044027,-0.008704823441803455
1780751936424187000,6.819186767578125,0.008628465235233307,0.000305432389723137,-0.004810560029000044
1780751936472704000,6.8677041015625,0.01107192412018776,0.002290742937475443,-0.005650499369949102
1780751936521220900,6.916220947265625,0.005421424750238657,0.002061668550595641,-0.003359756199643016
1780751936569737700,6.96473779296875,0.004428769461810589,-0.0025961752980947495,-0.0009162971982732415
1780751936666771200,7.061771240234375,0.004046979360282421,-0.0013744457392022014,-0.007177661173045635
1780751936715288300,7.110288330078125,0.008017600513994694,-0.00954476185142994,-0.0035888305865228176
1780751936763805200,7.15880517578125,0.007254019379615784,-0.005803215317428112,-0.007788525894284248
1780751936812322000,7.207322021484375,0.0035888305865228176,-0.004428769461810589,-0.00847574882209301
1780751936860838700,7.255838623046875,0.005650499369949102,-0.011300998739898205,-0.00946840364485979
1780751936909355800,7.304355712890625,0.007406735327094793,-0.004657844081521034,-0.007406735327094793
1780751936957872600,7.35287255859375,0.005574141163378954,0.0035888305865228176,-0.0001527161948615685
1780751937006389500,7.401389404296875,0.00847574882209301,-0.005803215317428112,-0.00679587060585618
1780751937054906400,7.44990625,0.008246674202382565,-0.0009162971982732415,-0.011530072428286076
1780751937103423000,7.498423095703125,0.013209951110184193,-0.007406735327094793,-0.0062613640911877155
1780751937151940000,7.546940185546875,0.010155626572668552,-0.004199695307761431,0.0009162971982732415
1780751937200457000,7.59545703125,0.0154243353754282,-0.02084576152265072,0.0005345066892914474
1780751937248973800,7.643973876953125,0.0193185992538929,-0.015806125476956367,-0.007024944759905338
1780751937297490700,7.69249072265625,0.01847865991294384,-0.019242240116000175,-0.010690134018659592
1780751937346007600,7.741007568359375,0.0243582334369421,-0.021456625312566757,-0.005574141163378954
1780751937394524400,7.7895244140625,0.029474224895238876,-0.021685699000954628,-0.007788525894284248
1780751937443041300,7.838041259765625,0.03130681812763214,-0.02107483521103859,-0.009850194677710533
1780751937491558100,7.88655810546875,0.03061959706246853,-0.033139415085315704,-0.004352411720901728
1780751937540075000,7.935074951171875,0.03558287397027016,-0.02779434807598591,-0.0102319847792387
1780751937588591900,7.983591796875,0.04169152304530144,-0.03817904740571976,-0.01908952370285988
1780751937637108700,8.032108642578125,0.04230238497257233,-0.04283689334988594,-0.013362666592001915
1780751937685625600,8.08062548828125,0.041844237595796585,-0.051847148686647415,-0.02496909722685814
1780751937734142500,8.129142578125,0.05429060757160187,-0.023747367784380913,-0.04589121788740158
1780751937782659000,8.1776591796875,0.05894844979047775,0.003894262947142124,-0.06406444311141968
1780751937831176200,8.22617626953125,0.06528617441654205,0.049709122627973557,-0.08422297984361649
1780751937879693000,8.274693115234374,0.06711876392364502,0.11018473654985428,-0.116751529276371
1780751937928210000,8.3232099609375,0.0461202897131443,0.15256348252296448,-0.1599702090024948
1780751937976726500,8.3717265625,-0.019013166427612305,0.13645191490650177,-0.1703549176454544
1780751938025243400,8.420243408203126,-0.05688678100705147,0.08353576064109802,-0.24327689409255981
1780751938073760500,8.468760498046874,-0.0005345066892914474,-0.05780307948589325,-0.20906847715377808
1780751938122277400,8.51727734375,0.05406153202056885,0.04932733252644539,-0.07704532146453857
1780751938170794000,8.5657939453125,0.03306305781006813,0.07643445581197739,0.015806125476956367
1780751938219310800,8.614310791015624,0.08605557680130005,0.31115925312042236,0.05787943676114082
1780751938316344800,8.7113447265625,0.14798198640346527,0.34926193952560425,0.05345066636800766
1780751938364861400,8.759861328125,0.08926261961460114,0.2790125012397766,-0.07162389904260635
1780751938413378300,8.80837841796875,0.12721258401870728,0.2360992431640625,-0.20616686344146729
1780751938461895200,8.856895263671875,0.1493564397096634,0.2041051983833313,-0.36911505460739136
1780751938510411800,8.905411865234376,0.16134466230869293,0.1810450553894043,-0.5238165259361267
1780751938558929000,8.953928955078124,0.24930918216705322,0.11575887352228165,-0.3297906219959259
1780751938607445800,9.00244580078125,0.26946771144866943,0.10903936624526978,-0.22044582664966583
1780751938655962600,9.050962646484376,0.24106250703334808,-0.03962985426187515,-0.28473934531211853
1780751938704479200,9.099479248046874,0.30024003982543945,-0.14813470840454102,0.1847866028547287
1780751938752996400,9.147996337890625,0.3153589367866516,-0.0077121676877141,1.0833686590194702
1780751938801513200,9.19651318359375,0.2835939824581146,0.5734493136405945,1.605199933052063
1780751938850029800,9.24502978515625,0.3421606421470642,-1.2480731010437012,1.8001421689987183
1780751938898546700,9.293546630859375,-0.5089266896247864,-0.37026041746139526,1.1458295583724976
1780751938947063600,9.3420634765625,-1.4241548776626587,-1.149571180343628,-0.022678354755043983
1780751938995580700,9.39058056640625,-1.0499238967895508,-1.5285364389419556,0.9750165343284607
1780751939044097300,9.43909716796875,-0.6241511106491089,-1.1857649087905884,0.7312815189361572
1780751939092614100,9.4876142578125,-0.028328854590654373,-1.0190751552581787,-0.258853942155838
1780751939141131000,9.536131103515626,0.5199222564697266,-0.7659480571746826,-0.3868301212787628
1780751939189648000,9.58464794921875,0.20922118425369263,-0.7728202939033508,-0.4814378023147583
1780751939238164700,9.633164794921875,-0.2897789776325226,0.07261654734611511,0.29451319575309753
1780751939286681600,9.681681640625,-0.11698060482740402,0.015806125476956367,-0.8021417856216431
1780751939335198500,9.730198486328124,-0.9862411618232727,0.17234022915363312,-1.3410009145736694
1780751939383715000,9.778715087890625,-0.39332056045532227,0.30856308341026306,-1.1287254095077515
1780751939432232000,9.82723193359375,-0.06566796451807022,0.5167152285575867,-0.7913753390312195
1780751939480748800,9.875748779296876,0.45906487107276917,1.0609194040298462,-0.33857181668281555
1780751939529265700,9.924265625,0.803363561630249,1.7062216997146606,-0.35705047845840454
1780751939577782500,9.972782470703125,0.8332959413528442,1.4412591457366943,-0.2759581506252289
1780751939626299400,10.02129931640625,0.5613083839416504,0.873994767665863,-0.4606684148311615
1780751939674816300,10.069816162109374,0.1029307171702385,0.9967786073684692,-1.0249547958374023
1780751939723333000,10.1183330078125,-0.2277761995792389,0.981354296207428,-0.5845212340354919
1780751939771850000,10.16685009765625,0.6474403142929077,-0.4727329909801483,-0.30833399295806885
1780751939820366600,10.21536669921875,0.5755873322486877,0.18959715962409973,0.673249363899231
1780751939917400300,10.312400390625,1.0780999660491943,-1.184772253036499,3.121213674545288
1780751939965917200,10.360917236328126,-0.025121813639998436,-0.8585704565048218,1.1692715883255005
1780751940014434000,10.40943408203125,-1.246240496635437,-1.9620213508605957,-0.6979129910469055
1780751940062951000,10.457950927734375,-1.2246311902999878,-1.981339931488037,0.12820523977279663
1780751940111467500,10.506467529296875,-0.4981602132320404,-1.7038545608520508,0.3845393657684326
1780751940159984600,10.554984619140624,0.31123560667037964,-1.3780345916748047,0.18173226714134216
1780751940208501500,10.60350146484375,0.551152765750885,-1.4398846626281738,-0.04955640435218811
1780751940257018000,10.65201806640625,-0.15722131729125977,0.03023780696094036,0.1251509189605713
1780751940305535000,10.700534912109376,-0.09155336022377014,-0.014813470654189587,-0.9051488637924194
1780751940354051800,10.7490517578125,-0.6600393652915955,0.4904480576515198,-1.2101994752883911
1780751940402568700,10.797568603515625,-1.0768018960952759,-0.06146826967597008,-1.7268383502960205
1780751940451085600,10.84608544921875,-0.21067199110984802,-0.5837576389312744,-0.5410735011100769
1780751940499602200,10.894602294921874,0.6701950430870056,0.37354379892349243,-0.3782780170440674
1780751940548119000,10.943119140625,0.8015309572219849,0.8630755543708801,0.014737112447619438
1780751940596636000,10.991635986328125,0.6036871075630188,2.1717007160186768,-0.5648971796035767
1780751940645152800,11.04015283203125,0.840320885181427,0.848567545413971,-0.9143118858337402
1780751940693669600,11.088669677734375,0.5313760042190552,0.8058069944381714,-0.9224821925163269
1780751940742186500,11.1371865234375,-0.2893971800804138,1.6549090147018433,-0.39477136731147766
1780751940790703400,11.185703369140626,0.8357393741607666,-0.324063777923584,0.19845469295978546
1780751940839220200,11.23422021484375,0.8661298751831055,0.8170316219329834,1.096960425376892
1780751940887736800,11.28273681640625,1.1124610900878906,0.3904189467430115,3.3538002967834473
1780751940936253700,11.331253662109376,0.8439096808433533,-0.605519711971283,2.8131086826324463
1780751940984770600,11.3797705078125,-0.4127918779850006,-0.2196822464466095,0.1383608728647232
1780751941033287400,11.428287353515625,-1.293887972831726,-1.5067743062973022,-0.5012145638465881
1780751941081804300,11.47680419921875,-0.9577596187591553,-1.5012001991271973,0.041844237595796585
1780751941130321000,11.52532080078125,-0.2528216540813446,-1.1815651655197144,0.24266603589057922
1780751941178837800,11.573837646484375,0.3641517758369446,-1.3173298835754395,-0.12469277530908585
1780751941227354600,11.622354736328125,0.31902414560317993,-0.9769254922866821,-0.5962803959846497
1780751941275871500,11.67087158203125,-0.7272345423698425,0.5820014476776123,-0.2390008419752121
1780751941324388400,11.719388427734375,0.17997603118419647,0.10354158282279968,-0.9285908341407776
1780751941372905200,11.7679052734375,-1.0219004154205322,0.2424369603395462,-1.5252529382705688
1780751941421421800,11.816421875,-0.6685914993286133,0.018784092739224434,-1.585728645324707
1780751941469938700,11.864938720703124,0.46769335865974426,-0.38270679116249084,-0.04085158184170723
1780751941566972400,11.961972412109375,0.6268999576568604,1.3154972791671753,-0.2110537886619568
1780751941615489300,12.0104892578125,0.5187005400657654,1.8493931293487549,-0.9265291690826416
1780751941664006000,12.059005859375,0.7303652167320251,0.4869355857372284,-0.7622065544128418
1780751941712522800,12.107522705078125,0.07139482349157333,0.8491783738136292,-0.7472403645515442
1780751941761039600,12.15603955078125,-0.29940009117126465,1.4382047653198242,-0.281455934047699
1780751941809556500,12.204556396484374,1.0402263402938843,-1.067333459854126,0.25213444232940674
1780751941858073300,12.2530732421875,0.6452259421348572,0.31238096952438354,1.375972867012024
1780751941906590000,12.30158984375,0.9532544612884521,-0.2159406989812851,3.2210135459899902
1780751941955106800,12.35010693359375,0.8050433993339539,-0.8168025612831116,2.6916229724884033
1780751942003623700,12.398623779296875,-0.4897608458995819,-1.1463640928268433,-0.21983496844768524
1780751942052140500,12.447140625,-1.500512957572937,-1.3814706802368164,-0.5309178233146667
1780751942100657200,12.4956572265625,-0.788550078868866,-1.91414475440979,0.15118902921676636
1780751942149174000,12.544174072265625,0.10881029069423676,-1.4188097715377808,0.33971717953681946
1780751942197691000,12.59269091796875,0.5675697326660156,-0.9406554102897644,0.04169152304530144
1780751942246207700,12.641207763671876,0.17058399319648743,-0.2796997129917145,0.017027854919433594
1780751942294724600,12.689724609375,-0.3618610203266144,0.03871355578303337,-0.42997244000434875
1780751942343241200,12.7382412109375,-0.526030957698822,0.4676169753074646,-1.0228930711746216
1780751942391758000,12.786758056640625,-0.7273872494697571,0.32421648502349854,-1.7412700653076172
1780751942440275000,12.83527490234375,-0.13996438682079315,-0.06246092543005943,-0.7235693335533142
1780751942488791800,12.883791748046875,0.4944950342178345,0.536644697189331,-0.6097193956375122
1780751942537308400,12.932308349609375,0.7565560340881348,1.1535418033599854,-0.2237292230129242
1780751942585825300,12.9808251953125,0.3416261374950409,2.290590286254883,-0.5855138897895813
1780751942634342100,13.029342041015624,0.7289143800735474,0.8494074940681458,-0.8424589037895203
1780751942682859000,13.07785888671875,0.4050796926021576,0.4592939615249634,-0.9610430002212524
1780751942731375600,13.126375732421875,-0.53931725025177,1.4046835899353027,-0.6436987519264221
1780751942779892500,13.174892578125,0.6894372701644897,-0.711962878704071,0.09705114364624023
1780751942828409300,13.223409423828125,0.8638391494750977,0.170965775847435,1.3126720190048218
1780751942876926000,13.271926025390625,0.7719039916992188,0.5140427350997925,3.244455575942993
1780751942925442800,13.32044287109375,0.6242274641990662,-0.7912226319313049,2.8422775268554688
1780751943022476500,13.4174765625,-1.418046236038208,-1.2483785152435303,-0.9102649092674255
1780751943070993200,13.4659931640625,-0.954094409942627,-1.3444370031356812,0.04245510324835777
1780751943119510000,13.514510009765624,0.11514800786972046,-1.9359831809997559,0.3484983444213867
1780751943168026600,13.563026611328125,0.5849030017852783,-1.5450297594070435,-0.02107483521103859
1780751943216543700,13.611543701171875,0.377285361289978,-0.799163818359375,-0.24663665890693665
1780751943265060400,13.660060302734376,-0.6155989766120911,0.04833467677235603,-0.17883066833019257
1780751943313577200,13.7085771484375,-0.18417572975158691,0.6230056881904602,-0.49831295013427734
1780751943362094000,13.757093994140625,-0.9988402724266052,-0.3297906219959259,-1.947513222694397
1780751943410611000,13.80561083984375,-0.3871355652809143,-0.4523453712463379,-1.0471749305725098
1780751943459127600,13.85412744140625,0.14202606678009033,-0.15554144978523254,-0.4311941862106323
1780751943507644400,13.90264453125,0.7580068111419678,0.7686969637870789,-0.0591011680662632
1780751943556161000,13.9511611328125,0.49571678042411804,1.8670318126678467,-0.24174973368644714
1780751943604678000,13.999677978515624,0.7467821836471558,1.536553978919983,-0.9791398644447327
1780751943653194800,14.04819482421875,0.8595631122589111,0.07154753804206848,-1.0467168092727661
1780751943701711600,14.096711669921875,-0.09903645515441895,0.9137773513793945,-0.6666061878204346
1780751943750228200,14.145228271484376,0.16302454471588135,0.07689260691404343,-0.18501566350460052
1780751943798745000,14.1937451171875,0.8447496294975281,-0.7390699982643127,0.7457895278930664
1780751943847262000,14.242261962890625,0.29329144954681396,1.6194789409637451,2.2906665802001953
1780751943895778800,14.29077880859375,1.1008546352386475,-1.4301108121871948,3.3810601234436035
1780751943944295400,14.33929541015625,0.1787542998790741,-0.4344012141227722,1.760054111480713
1780751943992812300,14.387812255859375,-1.1559852361679077,-1.2521964311599731,-0.857119619846344
1780751944041329200,14.4363291015625,-1.2974004745483398,-0.9649372696876526,-0.34727662801742554
1780751944089845800,14.484845703125,-0.3820195496082306,-0.9105703234672546,0.3260490894317627
1780751944138362600,14.533362548828125,0.6036871075630188,-1.3990330696105957,-0.03588830679655075
1780751944186879200,14.581879150390625,0.7016545534133911,-1.0147227048873901,-0.12354740500450134
1780751944235396000,14.63039599609375,-0.5885682106018066,0.8646027445793152,0.09972367435693741
1780751944283913000,14.678912841796874,-0.008628465235233307,0.010461059398949146,-0.792978823184967
1780751944332429600,14.7274296875,-0.9243147969245911,0.09766200929880142,-1.4588978290557861
1780751944380946400,14.775946533203125,-0.722882091999054,-0.24610215425491333,-1.4906628131866455
1780751944429463300,14.82446337890625,-0.04940368980169296,-0.3862192630767822,-0.3904189467430115
1780751944477980200,14.872980224609375,0.7589994668960571,0.7683151960372925,-0.5217548608779907
1780751944526496800,14.921496826171875,0.7037925720214844,1.7734167575836182,-0.26396992802619934
1780751944575013600,14.970013671875,0.9622647166252136,1.610545039176941,-0.795651376247406
1780751944672047000,15.067047119140625,0.15263983607292175,1.1342995166778564,-0.7933606505393982
1780751944720564000,15.11556396484375,-0.13530655205249786,0.5293143391609192,-0.5613083839416504
1780751944769080600,15.16408056640625,0.7466294765472412,-0.7057015299797058,0.1798996776342392
1780751944817597700,15.21259765625,0.2931387424468994,1.8739804029464722,1.5384629964828491
1780751944866114300,15.2611142578125,0.8469640016555786,-0.1842520833015442,3.3454010486602783
1780751944914631000,15.309630859375,0.6604975461959839,-0.9164499044418335,2.6157994270324707
1780751944963147800,15.358147705078125,-0.5338194370269775,-0.630107045173645,-0.10270164161920547
1780751945011664400,15.406664306640625,-1.3893356323242188,-0.7456368207931519,-0.2793179154396057
1780751945060181500,15.455181396484376,-0.8058069944381714,-1.0249547958374023,0.20112723112106323
1780751945108698000,15.503697998046874,0.3776671588420868,-1.595502495765686,0.2603047490119934
1780751945157215000,15.552215087890625,0.5561923980712891,-1.353829026222229,-0.22128576040267944
1780751945205731600,15.600731689453125,-0.09353867173194885,-0.11026109009981155,-0.18806999921798706
1780751945254248400,15.64924853515625,-0.2643517255783081,-0.29214608669281006,-0.6830231547355652
1780751945302765000,15.69776513671875,-0.3808741867542267,0.9237039089202881,-0.7359393239021301
1780751945351282000,15.746281982421875,-1.0167080163955688,-0.42737627029418945,-1.7905974388122559
1780751945399798800,15.794798828125,-0.3698022663593292,-0.6107884049415588,-0.5934551358222961
1780751945448315600,15.843315673828124,0.28092142939567566,0.30566146969795227,-0.2590830326080322
1780751945496832300,15.891832275390625,0.7861065864562988,0.7492256760597229,-0.3633118271827698
1780751945545348900,15.940348876953125,0.5812378525733948,2.5408921241760254,-0.8003092408180237
1780751945593865700,15.98886572265625,0.9355394244194031,0.9043089747428894,-0.9344704151153564
1780751945642382600,16.037382568359376,0.5327504277229309,0.4986947476863861,-0.805425226688385
1780751945690899500,16.0858994140625,-0.49082985520362854,1.2985458374023438,-0.5742892622947693
1780751945739416000,16.134416015625,0.7655662894248962,-0.9714277386665344,-0.14004075527191162
1780751945787933000,16.182932861328126,0.61201012134552,0.4467712342739105,0.7192932963371277
1780751945836449500,16.231449462890627,0.7073050737380981,1.0341176986694336,2.976667642593384
1780751945884966400,16.27996630859375,0.8339831233024597,-0.8180242776870728,3.0272932052612305
1780751945933483000,16.32848291015625,0.09414953738451004,-1.0309107303619385,1.2499819993972778
1780751945981999900,16.376999755859377,-1.2405136823654175,-1.3015238046646118,-0.8473458290100098
1780751946030516500,16.4255166015625,-1.1255183219909668,-2.0654101371765137,-0.5245801210403442
1780751946079033300,16.474033447265626,-0.28924447298049927,-1.0668753385543823,0.17539454996585846
1780751946127550200,16.52255029296875,0.5771908760070801,-1.1214714050292969,0.008093958720564842
1780751946224583700,16.619583740234376,-0.640720784664154,0.41218101978302,0.27542364597320557
1780751946273100500,16.6681005859375,0.16409355401992798,0.16096286475658417,-0.9569196701049805
1780751946321617200,16.7166171875,-0.9047670960426331,-0.10842850059270859,-1.6523128747940063
1780751946370134000,16.765134033203125,-0.9473749399185181,0.4024835228919983,-1.4030036926269531
1780751946418650600,16.813650634765626,0.21601705253124237,-0.18150319159030914,-0.281455934047699
1780751946467167500,16.86216748046875,0.6639336347579956,0.5948295593261719,-0.10132719576358795
1780751946515684400,16.910684326171875,0.4001927971839905,1.5858813524246216,-0.10919208079576492
1780751946564201000,16.959200927734376,0.6130791902542114,2.1466550827026367,-1.2629629373550415
1780751946612717600,17.007717529296876,0.8138245940208435,0.6589703559875488,-1.153999924659729
1780751946661234400,17.056234375,0.4521162807941437,0.6763036847114563,-0.9763146042823792
1780751946709751300,17.104751220703125,-0.32162031531333923,0.8789580464363098,-0.5346593856811523
1780751946758268000,17.153267822265626,0.47700902819633484,-0.7212022542953491,0.13958260416984558
1780751946806784500,17.201784423828126,0.3202458620071411,0.6529380679130554,1.219591498374939
1780751946855301400,17.25030126953125,0.8519272804260254,-1.0282381772994995,3.114264965057373
1780751946903818200,17.298818359375,0.6488147377967834,-1.0467931032180786,2.796691656112671
1780751946952334800,17.3473349609375,-0.1585194170475006,-1.7496694326400757,0.3162752389907837
1780751947000851700,17.395851806640625,-1.4131592512130737,-1.6048945188522339,-0.8001564741134644
1780751947049368300,17.444368408203125,-1.0974185466766357,-1.2245547771453857,0.12140937149524689
1780751947097885200,17.49288525390625,0.17111849784851074,-1.6420809030532837,0.6076577305793762
1780751947146401800,17.54140185546875,0.5610793232917786,-1.5934407711029053,0.16073378920555115
1780751947194918700,17.589918701171875,0.03329212963581085,-0.6148353815078735,0.03329212963581085
1780751947243435300,17.638435302734376,-0.4376846253871918,-0.21212279796600342,-0.49105891585350037
1780751947291952000,17.6869521484375,0.5167152285575867,0.1409570425748825,-0.7665589451789856
1780751947340469000,17.735468994140625,-0.9151517748832703,-0.427528977394104,-1.1733949184417725
1780751947388985600,17.783985595703125,-0.8329141139984131,-0.21227550506591797,-1.5728241205215454
1780751947437502200,17.832502197265626,0.38560840487480164,-0.17913609743118286,-0.5303069949150085
1780751947486019000,17.88101904296875,0.7419716119766235,0.5206858515739441,0.16791145503520966
1780751947534536000,17.929535888671875,0.2920697331428528,1.4159082174301147,0.2874118685722351
1780751947583052500,17.978052490234376,0.3927097022533417,2.359847068786621,-1.5205187797546387
1780751947631569200,18.026569091796876,0.7079159021377563,0.6172788739204407,-0.8127555847167969
1780751947680086000,18.0750859375,0.32162031531333923,0.18295399844646454,-0.8617774844169617
1780751947777119500,18.172119384765626,0.6421716213226318,-0.9731839299201965,0.44700029492378235
1780751947825636000,18.220635986328126,0.5291616320610046,-0.3246746361255646,2.4442226886749268
1780751947874153000,18.269153076171875,0.3312414288520813,0.09758564829826355,2.282496213912964
1780751947922669800,18.317669921875,0.7400626540184021,-1.676365613937378,2.192470073699951
1780751947971186400,18.3661865234375,-0.562911868095398,-0.6826413869857788,0.21632249653339386
1780751948019703000,18.414703125,-1.2470040321350098,-1.407127022743225,-0.2611446976661682
1780751948068220000,18.463219970703125,-0.5579485893249512,-1.432248830795288,0.3173442482948303
1780751948116736800,18.51173681640625,0.2733619809150696,-1.0027345418930054,0.19738568365573883
1780751948165253400,18.56025341796875,0.7282271981239319,-1.0772600173950195,0.45394888520240784
1780751948213770000,18.60877001953125,0.28435754776000977,-0.22059854865074158,0.16012293100357056
1780751948262286800,18.657286865234376,-0.028405211865901947,-0.4165334105491638,-0.1597411334514618
1780751948310803500,18.705803466796876,0.09812015295028687,0.7076104879379272,-0.04413498193025589
1780751948359320300,18.7543203125,-0.8135955333709717,0.1432477980852127,-1.578932762145996
1780751948407837000,18.8028369140625,-0.04627300798892975,1.1260528564453125,-0.7018072605133057
1780751948456353800,18.851353759765626,0.2764926850795746,1.6909500360488892,-0.25320345163345337
1780751948504870400,18.899870361328126,0.4771617650985718,2.4596469402313232,-1.274340271949768
1780751948553387300,18.94838720703125,0.5138899683952332,3.3868634700775146,-0.8777363300323486
1780751948601903900,18.99690380859375,0.9465349912643433,2.713308572769165,-0.6205622553825378
1780751948650420700,19.045420654296876,0.713184654712677,2.7460663318634033,-0.790917158126831
1780751948698937300,19.093937255859377,0.5598575472831726,2.438037633895874,-0.7699950337409973
1780751948747454200,19.1424541015625,0.04528035223484039,1.4079669713974,-0.3572031855583191
1780751948795970800,19.190970703125,0.8394045829772949,-0.4137081801891327,0.19898919761180878
1780751948844487400,19.2394873046875,0.5938369035720825,1.1333832740783691,0.9827287197113037
1780751948893004300,19.28800439453125,0.7093667387962341,1.0120502710342407,2.4127631187438965
1780751948941521000,19.33652099609375,0.7132610082626343,-0.18173226714134216,2.3092215061187744
1780751948990037800,19.385037841796876,-0.24320054054260254,1.3154209852218628,0.845360517501831
1780751949038554400,19.433554443359377,-1.2718968391418457,1.334357738494873,-0.5514581799507141
1780751949087071000,19.482071044921874,-0.8231402635574341,0.6697368621826172,0.45623964071273804
1780751949135587800,19.530587890625,-0.09796743839979172,-0.041615162044763565,0.21059563755989075
1780751949184104700,19.579104736328127,0.30169084668159485,0.10980294644832611,-0.20838125050067902
1780751949232621300,19.627621337890623,0.6382773518562317,-0.1268308013677597,-0.047952886670827866
1780751949281138000,19.676137939453124,-0.31238096952438354,0.6300306916236877,0.34521496295928955
1780751949378171600,19.773171630859373,-0.11392628401517868,1.1507165431976318,-0.757777750492096
1780751949426688300,19.821688232421874,-0.8489493131637573,1.1130720376968384,-1.4771473407745361
1780751949475204900,19.870204833984374,-0.28092142939567566,1.4152209758758545,-1.0618356466293335
1780751949523721500,19.918721435546875,0.24594943225383759,1.5852704048156738,-0.11232276260852814
1780751949572238000,19.967238037109375,0.5694786906242371,2.787299633026123,-0.44990190863609314
1780751949620755000,20.0157548828125,0.5664243698120117,3.413435935974121,-0.38438665866851807
1780751949669271800,20.064271728515624,0.8028290271759033,2.4592652320861816,-0.42562004923820496
1780751949717788400,20.112788330078125,0.49396052956581116,2.1806344985961914,-0.6052906513214111
1780751949766305000,20.161304931640625,0.27519458532333374,1.8318307399749756,-0.3529271185398102
1780751949814822000,20.20982177734375,-0.04283689334988594,0.9157626628875732,-0.5447386503219604
1780751949863338500,20.25833837890625,0.27748534083366394,0.4150826036930084,-0.13920080661773682
1780751949911855000,20.306855224609375,0.30085089802742004,0.47983428835868835,0.2542724609375
1780751949960372000,20.3553720703125,0.19356778264045715,0.694247841835022,1.8663445711135864
1780751950008888800,20.403888916015624,0.41813695430755615,0.37927067279815674,2.631070852279663
1780751950057405400,20.452405517578125,0.343993216753006,-0.7184533476829529,2.011730432510376
1780751950105922000,20.500922119140625,-0.8946114778518677,-0.3940841555595398,-0.7606030106544495
1780751950154438700,20.549438720703126,-1.6200897693634033,-0.4370737373828888,-0.5356520414352417
1780751950202955300,20.597955322265626,-0.5981130003929138,-1.1032981872558594,0.8074105381965637
1780751950251472100,20.64647216796875,0.21494804322719574,-1.3220640420913696,0.4143190383911133
1780751950299989000,20.694989013671876,0.44157886505126953,-0.9766964316368103,-0.04711294546723366
1780751950348505600,20.743505615234376,-0.06666062027215958,0.22388194501399994,-0.04039343446493149
1780751950397022200,20.792022216796877,-0.3300960659980774,0.020387612283229828,-0.3069595396518707
1780751950445539000,20.8405390625,-0.2810741662979126,0.6339249014854431,-1.0401500463485718
1780751950494055700,20.8890556640625,-0.7118865251541138,-0.052916161715984344,-1.8457279205322266
1780751950542572300,20.937572265625,-0.28214317560195923,0.20364704728126526,-0.9221003651618958
1780751950591089000,20.9860888671875,0.2859610617160797,0.7952696084976196,-0.3633118271827698
1780751950639605800,21.034605712890624,0.7395281791687012,1.0897064208984375,-0.4419606626033783
1780751950688122600,21.08312255859375,0.5627591609954834,2.106567144393921,-0.3039052188396454
1780751950736639200,21.13163916015625,0.6938660144805908,1.7198134660720825,-0.7273872494697571
1780751950785155800,21.18015576171875,0.5653553605079651,0.8827759623527527,-0.7490729093551636
1780751950833672700,21.228672607421874,-0.19883649051189423,1.604054570198059,-0.4696022868156433
1780751950930706000,21.325705810546875,0.8022181987762451,-0.6837103962898254,0.5154171586036682
1780751950979222500,21.374222412109376,0.4741837978363037,1.2182934284210205,1.9066617488861084
1780751951027739100,21.4227392578125,0.9891427755355835,-0.12041672319173813,2.968726396560669
1780751951076256000,21.471256103515625,0.3513999581336975,-0.8419243693351746,2.2696681022644043
1780751951124772900,21.51977294921875,-0.6330850124359131,-0.6209440231323242,-0.5019781589508057
1780751951173289500,21.56828955078125,-1.381394386291504,-1.303356409072876,-0.7133373618125916
1780751951221806000,21.61680615234375,-0.86544269323349,-1.3791035413742065,0.0461202897131443
1780751951270323000,21.665322998046875,0.1011744812130928,-0.9581413865089417,0.29886558651924133
1780751951318839600,21.713839599609376,0.5478693246841431,-1.2816706895828247,-0.07704532146453857
1780751951367356200,21.762356201171876,0.01107192412018776,-0.08949168771505356,0.2735147178173065
1780751951415872800,21.810872802734377,-0.45738500356674194,-0.33162322640419006,-0.594295084476471
1780751951464389600,21.8593896484375,-0.2320522516965866,0.31612253189086914,-1.2854121923446655
1780751951512906200,21.90790625,-0.8094722032546997,0.3047451674938202,-1.7663154602050781
1780751951561422800,21.9564228515625,-0.16684244573116302,0.050930850207805634,-0.8501710295677185
1780751951609939700,22.004939697265623,0.42164942622184753,0.8038216829299927,-0.2651916742324829
1780751951658456300,22.053456298828124,0.729143500328064,1.2986221313476562,-0.12163844704627991
1780751951706973200,22.10197314453125,0.425467312335968,2.7424774169921875,-0.544967770576477
1780751951755489800,22.15048974609375,0.702799916267395,1.4287363290786743,-0.7664825916290283
1780751951804006400,22.19900634765625,0.5751292109489441,0.7332668304443359,-0.883768618106842
1780751951852523000,22.24752294921875,-0.2934441566467285,1.4301108121871948,-0.7344121932983398
1780751951901039900,22.296039794921874,0.39194610714912415,-0.34322965145111084,-0.2493855506181717
1780751951949556500,22.344556396484375,0.6188823580741882,-0.22189663350582123,0.6356047987937927
1780751951998073000,22.393072998046875,0.6973785161972046,0.5796343088150024,2.6283984184265137
1780751952046589700,22.441589599609376,0.9504292607307434,-0.7384591698646545,3.115257740020752
1780751952095106600,22.4901064453125,0.15531237423419952,-1.0231221914291382,1.391473650932312
1780751952143623200,22.538623046875,-1.0350340604782104,-1.4572179317474365,-0.9414190053939819
1780751952192139800,22.587139892578126,-1.3694061040878296,-1.668195366859436,-0.4433351159095764
1780751952240656400,22.635656494140626,-0.47204574942588806,-1.088637351989746,0.6177369952201843
1780751952289173000,22.684173095703127,0.43806639313697815,-1.0764964818954468,0.10659590363502502
1780751952337689900,22.73268994140625,0.602007269859314,-1.1598031520843506,-0.2096029818058014
1780751952386206500,22.78120654296875,-0.4623482823371887,0.5084685683250427,0.24610215425491333
1780751952434723000,22.82972314453125,-0.12736530601978302,0.15645773708820343,-0.8449786901473999
1780751952531756800,22.9267568359375,-0.5429824590682983,0.2263254076242447,-1.3796380758285522
1780751952580273400,22.9752734375,0.01802051067352295,0.08926261961460114,-0.5910117030143738
1780751952628790000,23.0237900390625,0.7276163101196289,0.8664353489875793,-0.38591381907463074
1780751952677306600,23.072306640625,0.6683624386787415,1.419497013092041,0.20395247638225555
1780751952725823500,23.120823486328124,0.38759371638298035,2.3435826301574707,-0.6553052067756653
1780751952774340000,23.169340087890625,0.5277107954025269,0.760755717754364,-1.1538472175598145
1780751952822856700,23.217856689453125,0.19074252247810364,0.8919389247894287,-1.1482731103897095
1780751952871373300,23.266373291015626,-0.2375500351190567,0.7363975048065186,-0.4523453712463379
1780751952919890000,23.314889892578126,0.7622829079627991,-0.8702532649040222,0.1957821547985077
1780751952968406800,23.36340673828125,0.4120282828807831,0.8368083834648132,1.5189152956008911
1780751953016923400,23.41192333984375,0.8930079340934753,0.05543597787618637,3.495062828063965
1780751953065440000,23.46043994140625,0.7893900275230408,-1.1912627220153809,3.008432626724243
1780751953113956600,23.50895654296875,-0.2851211428642273,-1.1656826734542847,0.1856265366077423
1780751953162473500,23.557473388671873,-1.2093595266342163,-2.2024729251861572,-1.2495238780975342
1780751953210990000,23.605989990234374,-0.6313287615776062,-1.9169700145721436,-0.19295690953731537
1780751953259506700,23.654506591796874,-0.0005345066892914474,-1.254258155822754,0.43340855836868286
1780751953308023300,23.703023193359375,0.43340855836868286,-1.418351650238037,-0.045738499611616135
1780751953356540000,23.751539794921875,0.24258968234062195,-0.2900844216346741,0.1582903414964676
1780751953405056800,23.800056884765624,-0.34605491161346436,0.11995857208967209,-0.6429351568222046
1780751953453573400,23.848573486328124,-0.1521816849708557,0.48617202043533325,-0.8229112029075623
1780751953502090000,23.897090087890625,-0.8504001498222351,0.2635118067264557,-1.9326233863830566
1780751953550606600,23.945606689453125,-0.09292780607938766,-0.0859028622508049,-1.0799325704574585
1780751953599123500,23.99412353515625,0.3196350038051605,0.0009162971982732415,-0.6201804876327515
1780751953647640000,24.04264013671875,0.9379828572273254,0.5569559335708618,-0.23686282336711884
1780751953696156700,24.09115673828125,0.44868019223213196,2.2023966312408447,-0.17111849784851074
1780751953744673300,24.13967333984375,0.73830646276474,1.1207841634750366,-0.3819431960582733
1780751953793190100,24.188190185546876,0.2658025324344635,0.7416661977767944,-0.5036579966545105
1780751953841706800,24.236706787109377,-0.2761872410774231,1.5840487480163574,-0.8960622549057007
1780751953890223400,24.285223388671874,0.06971494108438492,-0.28260132670402527,-0.75571608543396
1780751953938740000,24.333739990234374,0.5959749221801758,-0.7103593945503235,0.40088000893592834
1780751953987256600,24.382256591796875,0.40370526909828186,1.0279327630996704,1.9482004642486572
1780751954084289800,24.479289794921876,0.3365101218223572,-0.7282271981239319,2.255618095397949
1780751954132806400,24.527806396484376,-0.5464185476303101,-0.9643264412879944,-0.39332056045532227
1780751954181323000,24.576322998046876,-1.3425281047821045,-1.7771583795547485,-0.5056433081626892
1780751954229840000,24.62483984375,-0.7023417949676514,-1.785252332687378,0.04940368980169296
1780751954278356500,24.6733564453125,0.19868376851081848,-0.902400016784668,0.34315329790115356
1780751954326873000,24.721873046875,0.6421716213226318,-1.3694825172424316,-0.058795735239982605
1780751954375389700,24.7703896484375,-0.018784092739224434,-0.039248060435056686,0.44180795550346375
1780751954423906600,24.818906494140624,-0.22876885533332825,-0.2784779667854309,-0.8315396904945374
1780751954472423200,24.867423095703124,-0.3566686809062958,0.23968806862831116,-1.0221295356750488
1780751954520939800,24.915939697265625,-0.9515746235847473,0.0974329337477684,-1.7314962148666382
1780751954569456400,24.964456298828125,-0.21670427918434143,-0.2646571695804596,-0.9976949095726013
1780751954617973000,25.012972900390626,0.4953349828720093,0.5796343088150024,-0.33421939611434937
1780751954666489900,25.06148974609375,0.910952091217041,1.0301470756530762,0.07131846249103546
1780751954715006500,25.11000634765625,0.5814669132232666,2.572427988052368,-0.24236060678958893
1780751954763523000,25.158523193359375,0.7416661977767944,1.383226990699768,-0.5878046154975891
1780751954812039700,25.207039794921876,0.4046979248523712,0.966846227645874,-1.1332305669784546
1780751954860556500,25.255556640625,-0.3981311321258545,1.563126564025879,-0.8776599764823914
1780751954909073200,25.3040732421875,0.2605338394641876,-0.14263692498207092,-0.2485456019639969
1780751954957589500,25.352589599609374,0.8525381684303284,-0.7239511013031006,0.4214203357696533
1780751955006106000,25.401106201171874,0.48533207178115845,0.6276635527610779,2.038532018661499
1780751955054622700,25.449622802734375,1.0442733764648438,-0.8061124086380005,3.035081624984741
1780751955103139600,25.4981396484375,0.4004218578338623,-0.9447023868560791,2.180863618850708
1780751955151656200,25.54665625,-0.6785180568695068,-1.5935171842575073,-0.38293585181236267
1780751955200172800,25.5951728515625,-1.5561779737472534,-1.778380036354065,-0.6883682608604431
1780751955248689400,25.643689453125,-0.7404444813728333,-1.5089123249053955,0.22548545897006989
1780751955297206300,25.692206298828125,0.23732095956802368,-1.085430383682251,0.44356417655944824
1780751955345723000,25.740722900390626,0.6430115103721619,-1.2925134897232056,-0.07338013499975204
1780751955394239500,25.789239501953126,0.0475710928440094,0.015195261687040329,0.09972367435693741
1780751955442756600,25.837756591796875,-0.16852232813835144,-0.05429060757160187,-0.885219395160675
1780751955491273200,25.886273193359376,-0.23403756320476532,0.21586434543132782,-1.0745874643325806
1780751955539789800,25.934789794921876,-0.7876337766647339,0.3584249019622803,-1.6993494033813477
1780751955588306400,25.983306396484377,-0.20486877858638763,-0.23861905932426453,-0.8277981281280518
1780751955685339600,26.080339599609374,1.014417290687561,1.1249074935913086,-0.1735619604587555
1780751955733856500,26.1288564453125,0.5808560252189636,2.580521821975708,-0.5361865758895874
1780751955782373000,26.177373046875,0.799163818359375,1.128801703453064,-0.6242274641990662
1780751955830889700,26.2258896484375,0.20777037739753723,1.095509648323059,-0.7870992422103882
1780751955879406300,26.27440625,-0.404468834400177,1.1114684343338013,-0.6415607333183289
1780751955927923200,26.322923095703125,0.58039790391922,-1.197218656539917,-0.08750637620687485
1780751955976439600,26.371439453125,0.48701193928718567,0.08460476994514465,0.5574141144752502
1780751956024956200,26.4199560546875,0.5140427350997925,0.19799654185771942,2.685667037963867
1780751956073472800,26.46847265625,0.9487493634223938,-1.1603376865386963,3.0012550354003906
1780751956121989400,26.5169892578125,0.06345357745885849,-0.9275981783866882,1.9747731685638428
1780751956170506200,26.56550634765625,-1.07863450050354,-1.4513384103775024,-1.0713040828704834
1780751956219022800,26.61402294921875,-1.2615121603012085,-1.458516001701355,-0.5624537467956543
1780751956267539500,26.66253955078125,-0.4482983946800232,-1.208443284034729,0.47639816999435425
1780751956316056000,26.71105615234375,0.4904480576515198,-1.1565197706222534,-0.08720094710588455
1780751956364572700,26.75957275390625,0.448527455329895,-0.8215367794036865,-0.0758235901594162
1780751956413089300,26.80808935546875,-0.6498837471008301,0.4456258714199066,0.17134757339954376
1780751956461606000,26.85660595703125,-0.050930850207805634,0.34811657667160034,-0.9825760126113892
1780751956510122500,26.90512255859375,-0.9259182810783386,0.28267768025398254,-1.8563417196273804
1780751956558639000,26.95363916015625,-0.47006043791770935,0.5938369035720825,-1.225242018699646
1780751956607156000,27.002156005859376,0.2464839369058609,0.495258629322052,-0.7570141553878784
1780751956655672600,27.050672607421873,0.8750637769699097,0.9057597517967224,-0.5586358308792114
1780751956704189200,27.099189208984374,0.7466294765472412,1.669722557067871,-0.04046979174017906
1780751956752705500,27.14770556640625,0.8126028776168823,1.6264275312423706,-0.32299473881721497
1780751956801222400,27.196222412109375,0.7444151043891907,0.5134318470954895,-0.5791761875152588
1780751956849739000,27.244739013671875,-0.2638172209262848,1.4840959310531616,-0.962417483329773
1780751956898255600,27.293255615234376,-0.474260151386261,0.4967094361782074,-0.7127264738082886
1780751956946772200,27.341772216796876,0.7812197208404541,-1.1824051141738892,0.2242637276649475
1780751956995288800,27.390288818359377,0.34979644417762756,0.8780417442321777,1.1603376865386963
1780751957043805400,27.438805419921874,1.0245729684829712,-0.7123447060585022,3.2789695262908936
1780751957092322000,27.487322021484374,0.6165152788162231,-1.4095704555511475,2.9912521839141846
1780751957189355300,27.584355224609375,-1.4285073280334473,-1.9638539552688599,-0.857119619846344
1780751957237872000,27.6328720703125,-0.8242856860160828,-1.891771912574768,-0.2853502035140991
1780751957286388700,27.681388671875,0.042684175074100494,-1.2243257761001587,0.5248855352401733
1780751957334905000,27.729905029296877,0.5916988849639893,-1.1526254415512085,-0.08414662629365921
1780751957383421700,27.778421630859373,0.3387245237827301,-0.4926624298095703,-0.10247256606817245
1780751957431938600,27.8269384765625,-0.3586539924144745,-0.14737112820148468,-0.43463030457496643
1780751957480455200,27.875455078125,-0.0939968153834343,0.4376082420349121,-0.7050142884254456
1780751957528971800,27.9239716796875,-0.9085850119590759,0.14217877388000488,-1.8971933126449585
1780751957577488100,27.972488037109375,-0.2902371287345886,-0.08956804871559143,-0.9791398644447327
1780751957626004700,28.021004638671876,0.4615083336830139,0.3136790692806244,-0.4082103967666626
1780751957674521600,28.069521484375,0.9539417028427124,0.7824414372444153,0.020693045109510422
1780751957723038200,28.1180380859375,0.5153408050537109,2.1938445568084717,0.04780016839504242
1780751957771554800,28.166554931640626,0.6845503449440002,1.468595266342163,-0.8486438989639282
1780751957820071400,28.215071533203126,0.602007269859314,0.43913543224334717,-1.0831396579742432
1780751957868588000,28.263588134765627,-0.3551415205001831,1.344208002090454,-0.620333194732666
1780751957917104600,28.312104736328124,0.07139482349157333,-0.18379394710063934,-0.22189663350582123
1780751957965621200,28.360621337890624,0.7134137153625488,-0.6828704476356506,0.37781986594200134
1780751958014137900,28.409137939453124,0.5242747068405151,1.0037271976470947,2.14001202583313
1780751958062654500,28.457654541015625,1.0015891790390015,-1.2483785152435303,3.579362154006958
1780751958111171000,28.506171142578125,0.15286891162395477,-0.4560869038105011,1.9962297677993774
1780751958159687700,28.554687744140626,-0.8726203441619873,-1.8251875638961792,-1.3122903108596802
1780751958208204300,28.603204345703126,-1.4429389238357544,-1.525634765625,-0.7382301092147827
1780751958256721000,28.651720947265623,-0.5248091816902161,-1.0872629880905151,0.5869646668434143
1780751958305237500,28.700237548828124,0.3741546869277954,-1.0125083923339844,0.3546070158481598
1780751958353754000,28.748754150390624,0.6777544617652893,-1.421024203300476,-0.16875138878822327
1780751958402270700,28.797270751953125,-0.29558220505714417,0.3001636862754822,-0.054443322122097015
1780751958450787300,28.845787353515625,-0.16745330393314362,0.0758235901594162,-0.6870701313018799
1780751958499304000,28.894303955078126,-0.5655844211578369,0.3725511431694031,-1.1751511096954346
1780751958547820500,28.942820556640626,-0.9013310074806213,0.40462157130241394,-1.6801835298538208
1780751958596337200,28.991337158203127,-0.04085158184170723,-0.212733656167984,-0.4794524908065796
1780751958644853800,29.039853759765624,0.5951350331306458,0.38293585181236267,-0.4240928590297699
1780751958693370400,29.088370361328124,0.7683915495872498,1.1020764112472534,-0.08659008145332336
1780751958741887000,29.136886962890625,0.47784897685050964,2.410548686981201,-0.32818710803985596
1780751958838920200,29.233920166015626,0.4258491098880768,0.46715885400772095,-1.1128429174423218
1780751958887436800,29.282436767578126,-0.49342602491378784,1.4604250192642212,-0.713184654712677
1780751958935953700,29.33095361328125,0.26794055104255676,-0.5494728684425354,-0.13614648580551147
1780751958984470000,29.379469970703123,0.7306706309318542,-0.6183478832244873,0.7121156454086304
1780751959032986600,29.427986572265624,0.5114465355873108,0.7570905089378357,2.4763693809509277
1780751959081503200,29.476503173828124,1.0992511510849,-0.9005674123764038,3.179856538772583
1780751959130019800,29.525019775390625,0.28473934531211853,-1.1976003646850586,2.2702789306640625
1780751959178536400,29.573536376953125,-0.9552397727966309,-1.796858787536621,-0.8159626126289368
1780751959227053000,29.622052978515626,-1.197524070739746,-1.745011568069458,-0.8339067697525024
1780751959275569700,29.670569580078126,-0.49075350165367126,-1.5639665126800537,0.16668972373008728
1780751959324086300,29.719086181640623,0.4021017551422119,-1.3589450120925903,0.08788817375898361
1780751959372603000,29.767602783203124,0.6122392416000366,-1.2358558177947998,-0.30596688389778137
1780751959421119500,29.816119384765624,-0.24281874299049377,0.4519635736942291,-0.12202023714780807
1780751959469636000,29.864635986328125,0.09964732080698013,0.013897174037992954,-0.643393337726593
1780751959518152700,29.913152587890625,-0.5696313977241516,0.6303361058235168,-0.892015278339386
1780751959566669300,29.96166943359375,-0.6175079345703125,0.4745655655860901,-1.5987094640731812
1780751959615186000,30.01018603515625,-0.0334448479115963,0.05367974191904068,-0.469678670167923
1780751959663702500,30.05870263671875,0.6307178735733032,0.7579304575920105,-0.6272817850112915
1780751959712219100,30.10721923828125,0.6420952677726746,1.7905210256576538,-0.23388485610485077
1780751959760735700,30.15573583984375,0.5073995590209961,2.4583489894866943,-0.6677515506744385
1780751959809252400,30.20425244140625,0.7806088328361511,0.8170316219329834,-0.6292670965194702
1780751959857769000,30.25276904296875,0.2277761995792389,1.177670955657959,-0.6895899772644043
1780751959906285600,30.30128564453125,-0.32704174518585205,0.7256309986114502,-0.5174788236618042
1780751959954802200,30.34980224609375,0.6491202116012573,-1.1935534477233887,0.07261654734611511
1780751960003318500,30.398318603515627,0.5478693246841431,0.22319471836090088,1.074434757232666
1780751960051835400,30.44683544921875,0.6944769024848938,0.3407861888408661,2.9720098972320557
1780751960100352000,30.49535205078125,0.7395281791687012,-1.2202024459838867,3.1705408096313477
1780751960148868400,30.543868408203124,-0.07299833744764328,-1.1147518157958984,0.975703775882721
1780751960197385000,30.592385009765625,-1.4518728256225586,-1.542128086090088,-1.0909281969070435
1780751960245901800,30.64090185546875,-1.1126137971878052,-1.65987229347229,-0.5065596103668213
1780751960294418400,30.68941845703125,-0.2790888547897339,-0.9347758293151855,0.30245441198349
1780751960391451400,30.786451416015623,0.7789289355278015,-0.6937133073806763,-0.057497646659612656
1780751960439968300,30.83496826171875,-0.6417134404182434,0.6683624386787415,-0.2664133906364441
1780751960488484900,30.88348486328125,0.0012980876490473747,0.6779071688652039,-0.9411898851394653
1780751960537001200,30.932001220703125,-0.5771908760070801,0.2853502035140991,-1.6537636518478394
1780751960585517800,30.980517822265625,-0.28901541233062744,0.48586657643318176,-1.3547453880310059
1780751960634034400,31.029034423828126,-0.04810560122132301,0.23999349772930145,-0.2854265570640564
1780751960682551000,31.077551025390626,0.9290489554405212,0.826958179473877,-0.1902843713760376
1780751960731067600,31.126067626953127,0.5101484656333923,1.6375757455825806,0.22266021370887756
1780751960779584300,31.174584228515624,0.3226129710674286,2.0767874717712402,-0.5169443488121033
1780751960828100600,31.2231005859375,0.5164861679077148,1.0957386493682861,-1.1222349405288696
1780751960876617500,31.271617431640625,0.21410810947418213,1.3096177577972412,-1.117577075958252
1780751960925134000,31.320134033203125,-0.16294817626476288,0.5270999670028687,-0.5006036758422852
1780751960973650700,31.368650634765626,0.6757691502571106,-0.9125556349754333,0.29901832342147827
1780751961022167300,31.417167236328126,0.5044979453086853,0.2857320010662079,0.902400016784668
1780751961070683600,31.46568359375,0.594295084476471,-0.21288637816905975,2.8883213996887207
1780751961119200500,31.514200439453123,0.7580068111419678,-1.3218350410461426,3.3138651847839355
1780751961167716900,31.562716796875,-0.07399099320173264,-1.1180353164672852,0.39629852771759033
1780751961216233500,31.6112333984375,-1.2727367877960205,-1.6237549781799316,-1.2647955417633057
1780751961264750000,31.65975,-1.1261292695999146,-1.9589669704437256,-0.3872119188308716
1780751961313266700,31.7082666015625,-0.2836703360080719,-1.2131011486053467,0.5490147471427917
1780751961361783300,31.756783203125,0.39805474877357483,-0.7735075354576111,0.3782780170440674
1780751961410300000,31.8052998046875,0.5354229807853699,-0.969518780708313,-0.10499238222837448
1780751961458816500,31.85381640625,-0.6285035014152527,0.7375428676605225,-0.1856265366077423
1780751961507333000,31.9023330078125,0.08483384549617767,0.28206682205200195,-0.9836450219154358
1780751961555849700,31.950849609375,-0.8581122756004333,0.13629920780658722,-1.7799072265625
1780751961604366300,31.999366455078125,-0.6404917240142822,0.11407899856567383,-1.5123485326766968
1780751961652883000,32.04788305664062,-0.016416991129517555,-0.2658788859844208,-0.2845102846622467
1780751961701399300,32.0963994140625,0.7590758204460144,0.49625128507614136,-0.343993216753006
1780751961749916200,32.14491625976562,0.6712640523910522,1.4684425592422485,-0.11743875592947006
1780751961798432800,32.19343286132813,0.7163153290748596,1.8221333026885986,-0.5920807123184204
1780751961895465700,32.2904658203125,0.09842558950185776,0.9198096394538879,-0.8993456959724426
1780751961943982300,32.338982421875,-0.493196964263916,0.6895899772644043,-0.4815141558647156
1780751961992499000,32.3874990234375,0.7250201106071472,-1.2587631940841675,0.0709366723895073
1780751962041015600,32.436015625,0.356286883354187,0.31673339009284973,0.9527963399887085
1780751962089532200,32.4845322265625,0.7431169748306274,-0.3485747277736664,2.6650502681732178
1780751962138048500,32.533048583984375,0.72173672914505,-1.725158452987671,2.8400630950927734
1780751962186565400,32.5815654296875,-0.2637408673763275,-1.014111876487732,0.7932079434394836
1780751962235082000,32.63008203125,-1.240360975265503,-1.7250057458877563,-0.906828761100769
1780751962283598300,32.67859838867187,-1.1548398733139038,-1.590157389640808,-0.3068068325519562
1780751962332115000,32.72711499023438,-0.2130390852689743,-0.7508291602134705,0.7677806615829468
1780751962380631600,32.77563159179687,0.5544361472129822,-0.8573487401008606,0.4428006112575531
1780751962429148200,32.82414819335938,0.47899433970451355,-0.5016726851463318,-0.15630502998828888
1780751962477664800,32.872664794921874,-0.47288569808006287,0.281914085149765,-0.3158934414386749
1780751962526181400,32.92118139648438,0.03779725730419159,0.48327040672302246,-0.6799688339233398
1780751962574698000,32.969697998046875,-0.8880446553230286,0.07780890166759491,-1.742110013961792
1780751962623214600,33.01821459960937,-0.3453676700592041,0.3032943606376648,-1.2485312223434448
1780751962671731200,33.066731201171876,0.0910952091217041,0.32566729187965393,-0.6601921319961548
1780751962720247600,33.11524755859375,0.7537307739257812,0.9182060956954956,-0.4592176079750061
1780751962768764200,33.16376416015625,0.44814568758010864,2.2415683269500732,0.06001746281981468
1780751962817280800,33.21228076171875,0.7974839806556702,2.1129050254821777,-0.6004037261009216
1780751962865797400,33.26079736328125,0.858646810054779,0.8247438073158264,-0.6166679859161377
1780751962914314000,33.30931396484375,0.01718057133257389,1.529834508895874,-0.8232930302619934
1780751962962830600,33.35783056640625,-0.1792888194322586,0.6010146141052246,-0.5742892622947693
1780751963011347000,33.406346923828124,0.809548556804657,-1.5248712301254272,0.4834994673728943
1780751963059863800,33.45486376953125,0.40836310386657715,0.5620719790458679,1.5914554595947266
1780751963108380400,33.50338037109375,0.8980475664138794,-0.798323929309845,2.734994411468506
1780751963156896800,33.55189672851562,0.38927358388900757,-1.018846035003662,1.9982913732528687
1780751963205413400,33.600413330078126,-0.5062541961669922,-0.7118101716041565,0.7780889868736267
1780751963253930000,33.64892993164062,-1.2213478088378906,-1.179121732711792,-0.6032289862632751
1780751963302446600,33.69744653320313,-0.797102153301239,-1.8030437231063843,-0.20509785413742065
1780751963350963200,33.745963134765624,-0.04734202101826668,-0.718758761882782,0.2719111740589142
1780751963399479800,33.79447973632813,0.4114174246788025,-0.9445496797561646,-0.1003345400094986
1780751963496513000,33.89151293945312,-0.3407098352909088,-0.04253146052360535,-0.7502183318138123
1780751963545029400,33.940029296875,-0.29329144954681396,0.5036579966545105,-0.7227293848991394
1780751963593546000,33.9885458984375,-0.8744529485702515,0.3517817556858063,-1.89994215965271
1780751963642062600,34.0370625,-0.1847866028547287,0.20654866099357605,-0.7744238376617432
1780751963690579000,34.08557885742187,0.34613126516342163,0.47059494256973267,-0.46028661727905273
1780751963739095800,34.134095703125,0.8271872401237488,0.9064469933509827,-0.25702136754989624
1780751963787612400,34.1826123046875,0.3365101218223572,1.975383996963501,-0.3289506733417511
1780751963836128800,34.23112866210938,0.5764272809028625,1.242193579673767,-0.7058542370796204
1780751963884645400,34.279645263671874,0.5543597936630249,0.2943604588508606,-0.9902881383895874
1780751963933162000,34.32816186523438,-0.41668614745140076,1.3464223146438599,-0.6291143894195557
1780751963981678600,34.3766787109375,0.34490951895713806,-0.39538222551345825,-0.27947062253952026
1780751964030195200,34.4251953125,0.7392227649688721,-0.7461713552474976,0.660802960395813
1780751964078711600,34.473711669921876,0.48617202043533325,0.5713876485824585,2.5783839225769043
1780751964127228200,34.52222827148437,0.9479857683181763,-1.0486257076263428,3.3513569831848145
1780751964175745000,34.5707451171875,0.17508912086486816,-1.170569658279419,1.8422918319702148
1780751964224261400,34.619261474609374,-0.9461531639099121,-2.245615243911743,-1.181717872619629
1780751964272778000,34.66777807617188,-1.3301581144332886,-1.880776286125183,-0.6356047987937927
1780751964321294600,34.716294677734375,-0.5063305497169495,-1.1440733671188354,0.6543889045715332
1780751964369811200,34.76481127929687,0.480903297662735,-1.292055368423462,0.1680641770362854
1780751964418327800,34.813327880859376,0.503505289554596,-0.9235512018203735,-0.24610215425491333
1780751964466844400,34.86184448242187,-0.28703010082244873,0.416304349899292,0.011453714221715927
1780751964515360800,34.91036083984375,0.08773545175790787,-0.131717711687088,-0.8975130915641785
1780751964563877400,34.95887744140625,-0.7030289769172668,0.301003634929657,-0.9317215085029602
1780751964612394000,35.00739404296875,-0.663475513458252,0.09949459880590439,-1.6155846118927002
1780751964660910600,35.05591064453125,-0.14836378395557404,-0.20967933535575867,-0.5761218667030334
1780751964709427200,35.10442724609375,0.8958331942558289,0.8578832149505615,-0.09392046183347702
1780751964757943600,35.152943603515624,0.7248674035072327,1.6351323127746582,0.06673697382211685
1780751964806460200,35.20146020507813,0.5110647678375244,2.4369685649871826,-0.5918515920639038
1780751964854976800,35.249976806640625,0.7731257081031799,0.7042507529258728,-0.8587231636047363
1780751964903493400,35.29849340820312,0.24365869164466858,0.8157335519790649,-1.021518588066101
1780751964952010000,35.347010009765626,-0.54962557554245,1.2216532230377197,-0.5358047485351562
1780751965000526300,35.3955263671875,0.7103593945503235,-0.9518800377845764,0.10537417232990265
1780751965097559600,35.4925595703125,0.6553815603256226,0.12270746380090714,2.7049856185913086
1780751965146076200,35.541076171875,0.968297004699707,-1.121700406074524,2.8709118366241455
1780751965194592800,35.5895927734375,0.08559742569923401,-0.9483675956726074,1.1688897609710693
1780751965243109400,35.638109375,-1.251891016960144,-1.589775562286377,-1.2964078187942505
1780751965291626000,35.6866259765625,-1.261359453201294,-1.413617491722107,-0.6103302836418152
1780751965340142300,35.73514233398438,-0.43256860971450806,-0.9963968396186829,0.45944666862487793
1780751965388659000,35.783658935546875,0.3191768527030945,-1.0897064208984375,0.08910989761352539
1780751965437175600,35.83217553710937,0.6191114783287048,-0.7966440320014954,0.26564982533454895
1780751965485692200,35.880692138671876,-0.4904480576515198,0.46692976355552673,-0.14592032134532928
1780751965534208800,35.92920874023437,0.14424043893814087,-0.04001164436340332,-0.9729548692703247
1780751965582725000,35.97772509765625,-0.5991056561470032,0.09697478264570236,-1.3290890455245972
1780751965631241700,36.02624169921875,-0.5497019290924072,0.37148213386535645,-1.4182753562927246
1780751965679758300,36.07475830078125,-0.06650790572166443,0.24029892683029175,-0.18646647036075592
1780751965728275000,36.12327490234375,0.8510873317718506,0.847956657409668,-0.05306887626647949
1780751965776791300,36.17179125976563,0.5709294676780701,1.616424560546875,0.029474224895238876
1780751965825308000,36.22030786132812,0.4033234715461731,2.4414737224578857,-0.9344704151153564
1780751965873824500,36.26882446289063,0.6973021626472473,0.6490437984466553,-1.0877974033355713
1780751965922341000,36.317341064453124,0.10399972647428513,1.001665472984314,-0.7967203855514526
1780751965970857700,36.36585766601563,-0.29245150089263916,0.30566146969795227,-0.3497200906276703
1780751966019374300,36.414374267578125,0.8876628875732422,-1.2780818939208984,0.5053378939628601
1780751966067890700,36.462890625,0.40233081579208374,0.8440623879432678,0.9705114364624023
1780751966116407300,36.5114072265625,0.811610221862793,-0.33001968264579773,2.3938262462615967
1780751966164924000,36.559923828125,0.49487683176994324,-1.3758201599121094,2.787299633026123
1780751966213440500,36.6084404296875,-0.685924768447876,-0.3128391206264496,0.8727730512619019
1780751966261956900,36.65695678710937,-1.306334376335144,-1.6730822324752808,-1.310457706451416
1780751966310473500,36.70547338867188,-0.8744529485702515,-1.5399137735366821,-0.15546508133411407
1780751966358990300,36.753990234375,0.05429060757160187,-0.6348412036895752,0.49228066205978394
1780751966407506700,36.80250659179688,0.5549706816673279,-1.2456296682357788,-0.14278964698314667
1780751966456023300,36.851023193359374,0.05711585655808449,0.3557523787021637,0.5826886296272278
1780751966504539600,36.89953955078125,-0.36804601550102234,-0.2603047490119934,-0.8660535216331482
1780751966553056300,36.94805615234375,-0.3075704276561737,0.404468834400177,-1.036561131477356
1780751966650089500,37.04508935546875,-0.1865428388118744,-0.0038179049734026194,-0.7989347577095032
1780751966698605800,37.09360571289063,0.3992764949798584,0.5349648594856262,-0.37697991728782654
1780751966747122400,37.142122314453125,0.9239329695701599,0.7609847784042358,0.0011453714687377214
1780751966795639000,37.19063916015625,0.4165334105491638,2.0893867015838623,-0.3067304790019989
1780751966844155600,37.23915576171875,0.7113520503044128,0.7912989854812622,-0.6754637360572815
1780751966892672000,37.28767211914062,0.4151589870452881,0.5955168008804321,-1.0652718544006348
1780751966941188600,37.33618872070313,-0.5981130003929138,1.2864048480987549,-0.6272054314613342
1780751966989705500,37.38470556640625,0.4249328076839447,-0.5941423773765564,-0.17119485139846802
1780751967038221800,37.43322192382813,0.6744710803031921,-0.1744018942117691,0.8605557680130005
1780751967086738400,37.481738525390625,0.6689732670783997,0.4356229603290558,2.7901248931884766
1780751967135254800,37.5302548828125,0.9659299254417419,-1.2096649408340454,3.209559917449951
1780751967183771400,37.578771484375,-0.11568251997232437,-0.9764673709869385,1.2492948770523071
1780751967232288000,37.6272880859375,-1.1476621627807617,-1.6203951835632324,-1.1472804546356201
1780751967280804600,37.6758046875,-1.258915901184082,-1.6085597276687622,-0.6374374032020569
1780751967329321200,37.7243212890625,-0.30779948830604553,-1.0078505277633667,0.4531853199005127
1780751967377837600,37.772837646484376,0.4088212549686432,-1.0072396993637085,0.12759438157081604
1780751967426354200,37.82135424804687,0.45074185729026794,-0.6783653497695923,0.3326158821582794
1780751967474870800,37.86987084960938,-0.5347357392311096,0.41668614745140076,0.0062613640911877155
1780751967523387400,37.918387451171874,0.16103923320770264,0.0628427118062973,-1.1613303422927856
1780751967571903700,37.96690380859375,-0.7400626540184021,0.10835213959217072,-1.610774040222168
1780751967620420400,38.01542041015625,-0.5555051565170288,0.3006218373775482,-1.4479022026062012
1780751967668937000,38.06393701171875,0.12759438157081604,-0.05261072888970375,-0.08498656004667282
1780751967717453600,38.11245361328125,0.6958513259887695,0.7658717036247253,-0.16157373785972595
1780751967765970000,38.16096997070313,0.7186824083328247,1.339931845664978,-0.02779434807598591
1780751967814486500,38.209486572265625,0.5533671379089355,1.9708788394927979,-0.6056724190711975
1780751967863003100,38.25800317382812,0.7464004158973694,0.4073704481124878,-0.663475513458252
1780751967911519700,38.306519775390626,0.07055488228797913,0.8424589037895203,-0.9449314475059509
1780751967960036000,38.3550361328125,-0.5899426341056824,0.7388409376144409,-0.5796343088150024
1780751968008552700,38.403552734375,0.7251728773117065,-1.1587340831756592,0.1156061589717865
1780751968057069300,38.4520693359375,0.505872368812561,0.4015672206878662,0.788550078868866
1780751968154102300,38.54910229492187,0.8455132246017456,-1.5221986770629883,2.7695846557617188
1780751968202619000,38.59761889648438,-0.27863070368766785,-0.5069414377212524,1.680641770362854
1780751968251135200,38.64613525390625,-1.2104285955429077,-1.4369066953659058,-1.2472331523895264
1780751968299652000,38.69465209960938,-1.1535418033599854,-1.5269328355789185,-0.4252382516860962
1780751968348168700,38.743168701171875,-0.2977202236652374,-0.5820778012275696,0.34643667936325073
1780751968396685000,38.79168505859375,0.5452731847763062,-0.9292016625404358,0.08605557680130005
1780751968445201700,38.84020166015625,0.4313468933105469,-0.7065414786338806,0.4017963111400604
1780751968493718300,38.88871826171875,-0.4969384968280792,0.4903717041015625,-0.019853105768561363
1780751968542234600,38.937234619140625,0.16752967238426208,0.3943132162094116,-1.2951860427856445
1780751968590751200,38.98575122070312,-0.7888554930686951,0.12851068377494812,-1.7261511087417603
1780751968639267600,39.034267578125,-0.4032471179962158,0.4456258714199066,-1.2509746551513672
1780751968687784200,39.0827841796875,0.04329504072666168,0.12873975932598114,-0.314748078584671
1780751968736300800,39.13130078125,0.8452077507972717,0.6420952677726746,0.0019089524867013097
1780751968784817400,39.1798173828125,0.6185005903244019,1.7324888706207275,0.02367101050913334
1780751968833333800,39.228333740234376,0.6601157784461975,2.056018114089966,-0.6714931130409241
1780751968881850400,39.27685034179687,0.7438042163848877,0.3476584255695343,-0.7470112442970276
1780751968930367000,39.32536694335938,-0.23831361532211304,1.1695005893707275,-0.9338595271110535
1780751968978883600,39.373883544921874,-0.2214384824037552,0.249920055270195,-0.528092622756958
1780751969027400000,39.42239990234375,0.7109702229499817,-1.2638028860092163,0.16439898312091827
1780751969075916500,39.47091650390625,0.3904189467430115,0.7270054221153259,0.9101121425628662
1780751969124433200,39.51943310546875,0.6262891292572021,-0.4987711012363434,2.6884922981262207
1780751969172949800,39.56794970703125,0.5278635025024414,-1.182176113128662,2.8355579376220703
1780751969221466000,39.61646606445313,-0.28183773159980774,-0.9239329695701599,0.7573959827423096
1780751969269982700,39.664982666015625,-1.3784164190292358,-1.436448574066162,-1.0789399147033691
1780751969318499300,39.71349926757812,-1.095127820968628,-1.1252893209457397,-0.2096029818058014
1780751969367015700,39.762015625,-0.11759147047996521,-0.6520981788635254,0.3477347791194916
1780751969415532300,39.8105322265625,0.5048797130584717,-1.1216241121292114,0.011911863461136818
1780751969464049000,39.859048828125,0.07299833744764328,0.11293362826108932,0.7073050737380981
1780751969512565200,39.90756518554687,-0.3908770978450775,0.0654388889670372,-0.7422770857810974
1780751969561081900,39.956081787109376,0.20777037739753723,0.3271180987358093,-1.172096848487854
1780751969609598500,40.00459838867187,-0.7697659730911255,0.1207985132932663,-1.5154027938842773
1780751969658115000,40.05311499023438,-0.36048656702041626,0.12789981067180634,-0.9760855436325073
1780751969755148000,40.15014794921875,0.8009200692176819,0.5432878732681274,0.07689260691404343
1780751969803664400,40.19866430664062,0.2755763828754425,1.6227623224258423,0.20082180202007294
1780751969852181200,40.24718115234375,0.385990172624588,1.5263984203338623,-0.8032108545303345
1780751969900697600,40.295697509765624,0.448527455329895,0.38270679116249084,-1.1692715883255005
1780751969949214200,40.34421411132813,-0.25702136754989624,0.9369902014732361,-1.0177770853042603
1780751969997730600,40.39273046875,-0.15118902921676636,0.032681263983249664,-0.43256860971450806
1780751970046247200,40.4412470703125,0.8478039503097534,-1.2471568584442139,0.2564868628978729
1780751970094763800,40.489763671875,0.30718863010406494,0.7310523986816406,1.1870629787445068
1780751970143280000,40.53828002929688,0.7490729093551636,-0.5153408050537109,2.7017786502838135
1780751970191796700,40.586796630859375,0.5753582715988159,-1.7566180229187012,2.957119941711426
1780751970240313300,40.63531323242187,-0.42019861936569214,-1.0709223747253418,0.4214203357696533
1780751970288830000,40.683829833984376,-1.3401609659194946,-1.6678135395050049,-1.0687079429626465
1780751970337346300,40.73234619140625,-0.9560797214508057,-1.3458877801895142,-0.16340632736682892
1780751970385863000,40.78086279296875,0.08712458610534668,-0.8629228472709656,0.5730675458908081
1780751970434379500,40.829379638671874,0.4672352075576782,-0.9551634192466736,0.07521272450685501
1780751970482896000,40.877895751953126,0.27893611788749695,-0.0602465383708477,0.5242747068405151
1780751970531412500,40.92641259765625,-0.29191699624061584,0.2582430839538574,-0.7378482818603516
1780751970579928800,40.9749287109375,-0.2560287117958069,0.7783181071281433,-1.0538945198059082
1780751970628445400,41.023445556640624,-0.8019890785217285,0.3364337682723999,-1.564959168434143
1780751970676962000,41.07196215820313,-0.18371757864952087,0.191735178232193,-0.8410844206809998
1780751970725478700,41.120478759765625,0.13141228258609772,0.08949168771505356,-0.42424559593200684
1780751970773995000,41.1689951171875,0.9288198947906494,0.9049961566925049,-0.13179408013820648
1780751970822511600,41.21751171875,0.5235874652862549,2.076176643371582,-0.08643736690282822
1780751970871028200,41.2660283203125,0.6805797219276428,1.3667335510253906,-0.4392881393432617
1780751970919544600,41.314544677734375,0.5480984449386597,0.559399425983429,-0.897665798664093
1780751970968061200,41.36306127929687,-0.28412848711013794,0.9466876983642578,-1.023885726928711
1780751971016577800,41.411577880859376,-0.26702427864074707,0.23907721042633057,-0.4672352075576782
1780751971065094100,41.46009423828125,0.7993165850639343,-1.1856122016906738,0.18096868693828583
1780751971113610800,41.50861083984375,0.4444804787635803,0.38331764936447144,1.2600613832473755
1780751971162127000,41.55712719726562,0.6286562085151672,-0.5019017457962036,2.594266414642334
1780751971210643700,41.605643798828126,0.5120574235916138,-1.3862049579620361,2.6331326961517334
1780751971259160300,41.65416040039062,-0.30657777190208435,-1.3041199445724487,1.0897064208984375
1780751971356193300,41.751193359375,-1.0228166580200195,-1.2892301082611084,-0.24488042294979095
1780751971404710000,41.7997099609375,-0.028405211865901947,-0.6916516423225403,0.4012618064880371
1780751971453226500,41.8482265625,0.5611556768417358,-0.9747111201286316,0.012293653562664986
1780751971501742800,41.89674291992188,0.35850125551223755,-0.16485713422298431,0.32391104102134705
1780751971550259200,41.94525927734375,-0.393244206905365,0.08132137358188629,-0.23770275712013245
1780751971598776000,41.99377612304688,0.05917752534151077,0.5276344418525696,-1.0157153606414795
1780751971647292400,42.04229248046875,-0.8523854613304138,0.28985533118247986,-1.7789145708084106
1780751971695809000,42.09080908203125,-0.28031057119369507,0.32246023416519165,-1.1379647254943848
1780751971744325400,42.139325439453124,0.29214608669281006,0.24060437083244324,-0.490066260099411
1780751971792842000,42.18784204101563,0.7908408045768738,1.0566433668136597,-0.026801692321896553
1780751971841358600,42.236358642578125,0.4344012141227722,2.015777349472046,0.06101011857390404
1780751971889875000,42.284875,0.6700422763824463,1.7766238451004028,-0.6779071688652039
1780751971938391600,42.3333916015625,0.643927812576294,0.535193920135498,-0.869566023349762
1780751971986908200,42.381908203125,-0.34261879324913025,1.2790744304656982,-0.857730507850647
1780751972035424500,42.430424560546875,-0.14202606678009033,0.321391224861145,-0.5429060459136963
1780751972083941000,42.47894116210937,0.887891948223114,-1.2890774011611938,0.028405211865901947
1780751972132457500,42.52745751953125,0.4124864339828491,0.3779725730419159,0.6706531643867493
1780751972180974000,42.57597412109375,0.5325977206230164,-0.3813323378562927,2.5064544677734375
1780751972229490700,42.62449072265625,0.6230056881904602,-1.190040946006775,2.6822309494018555
1780751972278007000,42.67300708007812,-0.07803797721862793,-1.315955400466919,1.1946988105773926
1780751972326523600,42.721523681640626,-1.3112212419509888,-1.3154972791671753,-1.1709513664245605
1780751972375040300,42.77004028320312,-1.3057234287261963,-1.114980936050415,-0.21067199110984802
1780751972423556600,42.818556640625,-0.2749654948711395,-0.7671698331832886,0.4808269441127777
1780751972472073200,42.8670732421875,0.3955349326133728,-0.9025527238845825,0.07101303339004517
1780751972520589600,42.915589599609376,0.3145190179347992,-0.5507709383964539,0.34460410475730896
1780751972569106200,42.96410620117187,-0.4892263412475586,0.27030766010284424,-0.07422006875276566
1780751972617622800,43.01262280273438,0.3032943606376648,0.15607595443725586,-1.0958150625228882
1780751972666139100,43.06113916015625,-0.8066469430923462,-0.043142326176166534,-1.584506869316101
1780751972714655700,43.10965576171875,-0.5032762289047241,0.5530617237091064,-1.1208604574203491
1780751972763172400,43.15817236328125,0.2905425727367401,0.09124792367219925,-0.17478369176387787
1780751972860205300,43.255205322265624,0.5122101306915283,1.6184862852096558,0.189673513174057
1780751972957238500,43.352238525390625,0.48907360434532166,0.7960331439971924,-0.9753983616828918
1780751973005755000,43.4007548828125,0.03695731982588768,0.7786998748779297,-1.1813361644744873
1780751973054271200,43.449271240234374,-0.5648971796035767,0.7602212429046631,-0.5569559335708618
1780751973102787800,43.49778784179688,0.6574432253837585,-1.0811543464660645,-0.04024071618914604
1780751973151304400,43.546304443359375,0.5299251675605774,0.21181736886501312,0.5838339924812317
1780751973199821000,43.59482104492187,0.5118283033370972,-0.033979352563619614,2.535776138305664
1780751973248337400,43.64333740234375,0.8844558596611023,-1.2954151630401611,2.8431174755096436
1780751973296853800,43.69185375976563,-0.09575305134057999,-1.1253656148910522,1.489593744277954
1780751973345370400,43.740370361328125,-1.1443787813186646,-1.5722895860671997,-1.0884846448898315
1780751973393887000,43.78888696289062,-1.269835114479065,-1.5385392904281616,-0.4595230221748352
1780751973442403600,43.837403564453126,-0.29390230774879456,-0.9443206191062927,0.41531169414520264
1780751973490920000,43.885919921875,0.5615374445915222,-0.9414953589439392,0.10819942504167557
1780751973539436500,43.9344365234375,0.625067412853241,-0.7097485065460205,0.21876594424247742
1780751973587953200,43.982953125,-0.3977493345737457,0.6391936540603638,0.17821979522705078
1780751973636469500,44.031469482421876,0.06528617441654205,0.36453354358673096,-0.9685261249542236
1780751973684986000,44.07998608398437,-0.7367792725563049,0.08116865903139114,-1.5706861019134521
1780751973733502700,44.12850268554688,-0.4107302129268646,0.6463713049888611,-1.1766018867492676
1780751973782019000,44.17701904296875,0.09949459880590439,0.21464261412620544,-0.3552178740501404
1780751973830535700,44.22553564453125,0.7720566987991333,0.7784708142280579,-0.4169152081012726
1780751973879052000,44.27405200195312,0.5278635025024414,1.5730531215667725,-0.04673115536570549
1780751973927568600,44.32256860351563,0.5939132571220398,1.7273728847503662,-0.5497019290924072
1780751973976085000,44.3710849609375,0.5837576389312744,0.48647743463516235,-0.591622531414032
1780751974024601600,44.4196015625,-0.2871828079223633,1.1187224388122559,-0.9660826325416565
1780751974073118200,44.4681181640625,-0.44761115312576294,0.546953022480011,-0.6375901103019714
1780751974121634800,44.516634765625,0.8553634285926819,-1.3293944597244263,0.16508620977401733
1780751974170151200,44.565151123046874,0.518318772315979,0.36132651567459106,1.1342995166778564
1780751974218667500,44.61366748046875,0.6519454121589661,-0.27832525968551636,2.7569854259490967
1780751974267184000,44.66218408203125,0.5559632778167725,-0.9252310395240784,2.6565744876861572
1780751974315700700,44.71070068359375,-0.2998582422733307,-0.9970840215682983,0.7702241539955139
1780751974364217000,44.759217041015624,-1.2910627126693726,-1.7343977689743042,-0.8430697321891785
1780751974461250000,44.85625,-0.08048143237829208,-0.8972840309143066,0.49403688311576843
1780751974509767000,44.90476684570312,0.5773435831069946,-1.0823760032653809,0.08781181275844574
1780751974558283300,44.953283203125,0.4930442273616791,-0.40347617864608765,0.3615556061267853
1780751974606799600,45.00179956054688,-0.4515054225921631,0.18287764489650726,-0.3756054937839508
1780751974655316200,45.050316162109375,0.10361793637275696,0.2796997129917145,-0.9082795977592468
1780751974703832800,45.09883276367187,-0.7598394155502319,0.05406153202056885,-1.6097050905227661
1780751974752349200,45.14734912109375,-0.1969275325536728,0.3245982825756073,-0.9442442059516907
1780751974800865800,45.19586572265625,0.1156061589717865,0.042684175074100494,-0.24426954984664917
1780751974849382100,45.244382080078125,0.7877101302146912,0.6897426843643188,-0.13103049993515015
1780751974897898800,45.29289868164062,0.5067123174667358,1.853592872619629,-0.1576794683933258
1780751974946415400,45.341415283203126,0.5668061375617981,1.7375285625457764,-0.7144063711166382
1780751974994931700,45.389931640625,0.3955349326133728,0.4730384051799774,-0.7626646757125854
1780751975043448300,45.4384482421875,-0.4396699368953705,1.3096177577972412,-0.8352048993110657
1780751975091964700,45.48696459960937,0.01870773360133171,0.09071341902017593,-0.5180897116661072
1780751975140481000,45.53548095703125,0.8361974954605103,-0.960355818271637,0.3733910918235779
1780751975188998000,45.58399780273437,0.43203410506248474,0.6989056468009949,1.665140986442566
1780751975237514200,45.63251416015625,0.8927788734436035,-0.9099594354629517,3.300196886062622
1780751975334547200,45.729547119140626,-0.5799397230148315,-1.1964550018310547,-0.29390230774879456
1780751975383063800,45.77806372070312,-1.3325251340866089,-1.6089414358139038,-0.6580541133880615
1780751975431580400,45.82658032226563,-0.794200599193573,-1.2892301082611084,-0.30573782324790955
1780751975480096800,45.8750966796875,0.11339177191257477,-0.8488729596138,0.2484692484140396
1780751975528613400,45.92361328125,0.6068941354751587,-0.9765437245368958,-0.13553562760353088
1780751975577129700,45.97212963867187,0.27603453397750854,-0.0022143847309052944,0.43020153045654297
1780751975625646300,46.02064624023438,-0.4203513264656067,0.437302827835083,-0.6571378111839294
1780751975674163000,46.069162841796874,-0.1343138962984085,0.9143118858337402,-1.275562047958374
1780751975722679300,46.11767919921875,-0.7651081085205078,0.48159050941467285,-1.623220443725586
1780751975771195600,46.16619555664062,-0.268627792596817,0.5312996506690979,-0.926376461982727
1780751975819712500,46.21471240234375,0.0029779658652842045,0.4473820924758911,-0.19723296165466309
1780751975868228900,46.263228759765624,0.9573014378547668,0.8116865754127502,-0.30146175622940063
1780751975916745500,46.31174536132813,0.4450913369655609,2.269057273864746,-0.2338084876537323
1780751975965261800,46.36026171875,0.776103675365448,1.4309507608413696,-0.5482511520385742
1780751976013778200,46.40877807617188,0.4589121639728546,0.6205622553825378,-0.6902008652687073
1780751976062295000,46.457294921875,-0.2753472924232483,1.3476440906524658,-0.9078977704048157
1780751976110811400,46.50581127929688,-0.0862082913517952,-0.13881902396678925,-0.6944005489349365
1780751976159328000,46.554327880859375,0.8084795475006104,-1.2954151630401611,0.10735948383808136
1780751976207844400,46.60284423828125,0.4987711012363434,0.3455967605113983,1.022663950920105
1780751976256361000,46.65136083984375,0.6044507026672363,-0.3430005609989166,2.7746241092681885
1780751976304877600,46.69987768554687,0.5737547278404236,-1.0691660642623901,2.487135887145996
1780751976353394000,46.748393798828126,-0.11507165431976318,-1.10940682888031,1.0347285270690918
1780751976401910300,46.79691015625,-1.3659700155258179,-1.2957205772399902,-1.0948224067687988
1780751976450427000,46.84542700195313,-1.121776819229126,-1.3334414958953857,-0.3068068325519562
1780751976498943500,46.89394360351562,-0.14057525992393494,-0.7526617646217346,0.41042476892471313
1780751976547460000,46.94246020507813,0.4686860144138336,-1.0194569826126099,-0.03611737862229347
1780751976595976400,46.9909765625,0.32268932461738586,-0.49396052956581116,0.25786128640174866
1780751976644492800,47.03949291992188,-0.5101484656333923,0.3788125216960907,-0.0322994738817215
1780751976693009400,47.08800952148437,0.04558578506112099,0.3989710509777069,-0.8990402221679688
1780751976741526000,47.13652612304688,-0.7066178321838379,0.22441644966602325,-1.6365830898284912
1780751976790042400,47.18504248046875,-0.5747473835945129,0.3843103051185608,-1.112079381942749
1780751976838559000,47.23355908203125,-0.005421424750238657,0.08597921580076218,-0.36483898758888245
1780751976887075300,47.28207543945312,1.0012837648391724,0.8051961660385132,-0.1527925580739975
1780751976935592200,47.33059228515625,0.5061778426170349,1.7522655725479126,-0.04062250629067421
1780751976984108500,47.379108642578124,0.4834994673728943,1.8682535886764526,-0.8452841639518738
1780751977032625000,47.427625,0.48968449234962463,0.7499892115592957,-0.8358157277107239
1780751977081141500,47.4761416015625,-0.26274821162223816,1.1916444301605225,-0.814588189125061
1780751977129657900,47.52465795898438,-0.1409570425748825,0.21227550506591797,-0.41065385937690735
1780751977178174500,47.573174560546875,0.9905936121940613,-1.3387864828109741,0.0781143307685852
1780751977226691000,47.62169116210937,0.45303258299827576,0.32612544298171997,0.8277981281280518
1780751977275207400,47.67020751953125,0.28641921281814575,-0.32505643367767334,2.671464443206787
1780751977323724000,47.71872412109375,0.7661007642745972,-1.4175117015838623,2.456439971923828
1780751977372240600,47.76724072265625,-0.21525347232818604,-1.410868525505066,1.2662463188171387
1780751977420757000,47.81575708007812,-1.2844959497451782,-1.8250348567962646,-1.1249074935913086
1780751977469273600,47.864273681640626,-1.190422773361206,-1.6439898014068604,-0.3849211633205414
1780751977517790000,47.9127900390625,-0.1207985132932663,-1.2597558498382568,0.4247037470340729
1780751977566306300,47.961306396484375,0.5000692009925842,-1.282357931137085,-0.11110103130340576
1780751977614823200,48.0098232421875,0.44501498341560364,-0.3467421233654022,0.2536616027355194
1780751977663339500,48.058339599609376,-0.36804601550102234,-0.15118902921676636,-0.3291797637939453
1780751977711856000,48.10685620117187,-0.04062250629067421,0.7987056970596313,-0.3741546869277954
1780751977760372500,48.15537255859375,-0.8484148383140564,0.3774380683898926,-2.1244349479675293
1780751977808889000,48.20388916015625,-0.13164135813713074,0.36277732253074646,-1.1467459201812744
1780751977857405700,48.25240576171875,0.2801578640937805,0.046883873641490936,0.03405570983886719
1780751977905922000,48.30092211914062,1.0680971145629883,0.688902735710144,0.12347104400396347
1780751977954438400,48.3494384765625,0.5296961069107056,2.0069198608398438,-0.2603811025619507
1780751978002955000,48.397955078125,0.5158752799034119,1.471267819404602,-0.7790052890777588
1780751978051471600,48.4464716796875,0.21021384000778198,0.31001389026641846,-0.6527090072631836
1780751978099988200,48.49498828125,-0.37087127566337585,1.526780128479004,-0.7233402729034424
1780751978148504600,48.54350463867188,0.15431971848011017,-0.039858926087617874,-0.4099666178226471
1780751978197021000,48.59202099609375,0.9314924478530884,-0.949436604976654,0.7227293848991394
1780751978294054100,48.68905419921875,0.698371171951294,-0.6567559838294983,3.1301474571228027
1780751978342570500,48.73757055664063,0.11293362826108932,-0.5796343088150024,2.021886110305786
1780751978391087000,48.786087158203124,-0.7245619893074036,-1.4415645599365234,-0.8217658400535583
1780751978439603500,48.834603515625,-1.2563961744308472,-1.7511202096939087,-0.6962331533432007
1780751978488120300,48.883120361328125,-0.648967444896698,-0.997618556022644,-0.17218750715255737
1780751978536636700,48.93163671875,0.36659523844718933,-1.0122792720794678,0.3173442482948303
1780751978585153000,48.980153076171874,0.7101303339004517,-0.8930079340934753,0.2023489624261856
1780751978633669600,49.02866967773438,0.032681263983249664,0.5312996506690979,0.2063959389925003
1780751978682186000,49.07718603515625,-0.12698352336883545,0.009010255336761475,-1.0544289350509644
1780751978730702600,49.12570263671875,-0.25702136754989624,0.6639336347579956,-0.895604133605957
1780751978779219200,49.17421923828125,-0.5443568825721741,0.7033344507217407,-1.7162245512008667
1780751978827735600,49.22273559570313,-0.1963166743516922,0.13080142438411713,-0.6052906513214111
1780751978876252200,49.271252197265625,0.47723811864852905,1.0375537872314453,-0.04199695214629173
1780751978924768800,49.31976879882812,0.9469167590141296,1.199814796447754,-0.25954118371009827
1780751978973285000,49.36828515625,0.3358992636203766,2.4928627014160156,-0.609948456287384
1780751979021801700,49.4168017578125,0.5985711216926575,1.1126902103424072,-0.9579886794090271
1780751979070318000,49.465318115234375,0.1222493126988411,0.9951750636100769,-0.9471458196640015
1780751979118834400,49.51383447265625,-0.42791077494621277,0.5921570658683777,-0.42164942622184753
1780751979167351300,49.562351318359376,0.7895427346229553,-1.2080614566802979,0.2906189262866974
1780751979215867600,49.61086767578125,0.3281107544898987,0.5472584962844849,0.6455313563346863
1780751979264384000,49.659384033203125,0.131717711687088,0.4364628791809082,2.2973861694335938
1780751979312900600,49.70790063476562,0.7908408045768738,-1.0529018640518188,2.8051674365997314
1780751979361417000,49.7564169921875,-0.43027788400650024,-0.47700902819633484,2.0297510623931885
1780751979409933800,49.80493383789062,-1.190040946006775,-1.6325361728668213,-1.6180280447006226
1780751979458450200,49.8534501953125,-1.1617120504379272,-1.8976514339447021,-0.5942187309265137
1780751979506966500,49.90196655273437,-0.19654574990272522,-0.9612720608711243,0.36621344089508057
1780751979555483100,49.950483154296876,0.5920043587684631,-1.1714096069335938,0.007788525894284248
1780751979603999700,49.99899975585937,0.49655669927597046,-0.6567559838294983,0.46311184763908386
1780751979652516000,50.04751611328125,-0.45051276683807373,0.34666576981544495,0.10499238222837448
1780751979701032700,50.09603271484375,0.12247838824987411,0.22769984602928162,-0.9935715794563293
1780751979749549000,50.144549072265626,-0.7683151960372925,-0.04245510324835777,-1.7854050397872925
1780751979798065400,50.1930654296875,-0.509155809879303,0.36949682235717773,-1.2238675355911255
1780751979846582300,50.24158227539063,-0.018555017188191414,0.4301251769065857,-0.011300998739898205
1780751979895098600,50.2900986328125,0.9805907011032104,0.8182533979415894,-0.11049016565084457
1780751979943615200,50.338615234375,0.5816959738731384,1.9576689004898071,-0.29962918162345886
1780751979992131600,50.38713159179687,0.6411789655685425,1.8826088905334473,-0.8671225309371948
1780751980040648200,50.43564819335938,0.5981130003929138,0.8287907838821411,-0.7891609072685242
1780751980089164800,50.484164794921874,-0.15668681263923645,1.056414246559143,-0.7466294765472412
1780751980137681200,50.53268115234375,-0.32505643367767334,0.21021384000778198,-0.4845684766769409
1780751980186197500,50.58119750976562,0.7522799968719482,-1.2888482809066772,-0.052076224237680435
1780751980234714000,50.62971411132813,0.34552037715911865,-0.009315688163042068,0.8343649506568909
1780751980283230700,50.678230712890624,0.43256860971450806,-0.14103341102600098,2.5449390411376953
1780751980331747000,50.7267470703125,0.6547706723213196,-1.7460042238235474,3.106705665588379
1780751980380263700,50.775263671875,0.05123628303408623,-1.7871612310409546,1.6354377269744873
1780751980428780000,50.82378002929688,-1.1449897289276123,-2.2853214740753174,-1.6952260732650757
1780751980477296600,50.872296630859374,-1.0589340925216675,-1.5896228551864624,-0.408592164516449
1780751980525813200,50.92081323242188,-0.2372446060180664,-1.3506983518600464,0.28206682205200195
1780751980574329600,50.96932958984375,0.47517645359039307,-1.1787399053573608,0.06856957077980042
1780751980622846000,51.01784594726563,0.509155809879303,-0.3790415823459625,0.25671592354774475
1780751980671362600,51.066362548828124,-0.4313468933105469,0.6710349321365356,0.25702136754989624
1780751980719879200,51.11487915039063,0.3393353819847107,0.6869174242019653,-0.9978476166725159
1780751980768395800,51.163395751953125,-0.47838348150253296,0.500832736492157,-1.2283726930618286
1780751980816912100,51.211912109375,-0.5471821427345276,0.8505528569221497,-1.5557962656021118
1780751980865428500,51.260428466796874,-0.1230892539024353,0.18471023440361023,-0.00007635809743078426
1780751980913945000,51.30894506835938,0.6804270148277283,0.731510579586029,0.03283398225903511
1780751980962461700,51.357461669921875,0.6211731433868408,1.2578469514846802,-0.17684535682201385
1780751981010978000,51.40597802734375,0.37949973344802856,2.208352565765381,-0.9036217331886292
1780751981059494700,51.45449462890625,0.653701663017273,0.9019418358802795,-0.9054543375968933
1780751981108011000,51.50301098632813,0.2799287736415863,0.805425226688385,-0.9251546859741211
1780751981156527600,51.551527587890625,-0.5506945848464966,0.6390409469604492,-0.5419133901596069
1780751981205044200,51.60004418945312,0.6508764028549194,-1.2315797805786133,0.029016077518463135
1780751981253560600,51.648560546875,0.5798633694648743,-0.2271653413772583,0.5716167092323303
1780751981302077000,51.69707690429688,0.2367101013660431,0.3145190179347992,2.3211333751678467
1780751981350593500,51.745593505859375,0.8469640016555786,-0.8436806201934814,2.536616086959839
1780751981399110100,51.79411010742187,0.06467530876398087,-1.274034857749939,2.15421462059021
1780751981447626500,51.84262646484375,-1.0464876890182495,-0.8308524489402771,-0.9117156863212585
1780751981496143000,51.89114306640625,-1.3548216819763184,-1.2585341930389404,-0.7699950337409973
1780751981544659500,51.939659423828125,-0.5124391913414001,-0.6127737164497375,0.21861323714256287
1780751981593176000,51.98817602539062,0.4039343297481537,-0.7868701815605164,0.0501672700047493
1780751981641692700,52.036692626953126,0.4448622763156891,-0.7317396402359009,0.2848156988620758
1780751981690209000,52.085208984375,-0.47410741448402405,0.6892845630645752,0.20448698103427887
1780751981738725400,52.133725341796875,0.09361502528190613,0.04512763395905495,-1.197218656539917
1780751981787242000,52.18224194335937,-0.4441750645637512,-0.20273074507713318,-1.3138173818588257
1780751981835758600,52.230758544921876,-0.8039743900299072,0.3217730224132538,-1.374903917312622
1780751981884275000,52.27927490234375,-0.28069236874580383,-0.474718302488327,-0.20273074507713318
1780751981932791600,52.32779150390625,0.6496546864509583,0.47288569808006287,-0.16485713422298431
1780751981981308000,52.37630786132812,0.767551600933075,1.1242202520370483,-0.0435241162776947
1780751982029824300,52.42482421875,0.5770381689071655,1.9241477251052856,-0.7486147880554199
1780751982078341000,52.47334106445312,0.723798394203186,0.8109229803085327,-0.6088794469833374
1780751982126857500,52.521857421875,0.1259908676147461,0.8155808448791504,-1.0446550846099854
1780751982175373800,52.57037377929687,-0.5885682106018066,1.0045671463012695,-0.5423715710639954
1780751982223890400,52.618890380859376,0.5390881896018982,-1.074434757232666,-0.018173227086663246
1780751982272407000,52.66740698242187,0.552603542804718,-0.4203513264656067,0.734183132648468
1780751982320923400,52.71592333984375,0.21517711877822876,0.3686569035053253,2.194760799407959
1780751982369439700,52.76443969726562,0.6837103962898254,-1.2738057374954224,2.2932627201080322
1780751982417956400,52.81295629882813,-0.06826414167881012,-1.3484840393066406,2.2712717056274414
1780751982466472700,52.86147265625,-1.0157153606414795,-1.469817042350769,-0.8277981281280518
1780751982514989300,52.9099892578125,-1.2346340417861938,-1.8028147220611572,-0.6095666885375977
1780751982563506000,52.958505859375,-0.35155269503593445,-1.0564906597137451,0.08261945843696594
1780751982612022300,53.00702221679688,0.5102248191833496,-0.8885791897773743,0.30863943696022034
1780751982660538600,53.05553857421875,0.5119810700416565,-0.5849030017852783,0.21700970828533173
1780751982709055500,53.10405541992188,-0.2893971800804138,0.6462185978889465,0.012370011769235134
1780751982757571800,53.15257177734375,0.22250749170780182,0.16416990756988525,-1.0290017127990723
1780751982806088200,53.20108813476563,-0.386601060628891,0.055512335151433945,-0.9288198947906494
1780751982854604800,53.24960473632812,-0.5774962902069092,0.6709585785865784,-1.5457932949066162
1780751982951637800,53.3466376953125,0.7609084248542786,0.6767618060112,-0.2611446976661682
1780751983000154400,53.395154296875,0.6042979955673218,0.8994984030723572,-0.000305432389723137
1780751983048670700,53.443670654296874,0.35995206236839294,2.154367446899414,-0.6363683938980103
1780751983097187000,53.49218701171875,0.517707884311676,0.4653262495994568,-0.619722306728363
1780751983145703400,53.54070336914062,-0.21616977453231812,0.8090140223503113,-0.778776228427887
1780751983194220300,53.58922021484375,-0.5090794563293457,0.6446914076805115,-0.7097485065460205
1780751983291253000,53.6862529296875,0.5819250345230103,0.19616395235061646,1.0332777500152588
1780751983339769600,53.73476953125,0.5059487819671631,0.10758855938911438,2.683452606201172
1780751983388286200,53.7832861328125,0.4039343297481537,-1.08100163936615,2.5966334342956543
1780751983436802600,53.831802490234374,-0.2393062710762024,-1.0306816101074219,1.3812416791915894
1780751983485319200,53.88031909179688,-1.194546103477478,-1.374598503112793,-1.0766491889953613
1780751983533835500,53.92883544921875,-0.9571487307548523,-1.6564362049102783,-0.6402626633644104
1780751983582352000,53.97735180664063,-0.12347104400396347,-0.801836371421814,0.2687041461467743
1780751983630868700,54.02586865234375,0.5938369035720825,-0.8233693838119507,0.4747946560382843
1780751983679385000,54.07438500976563,0.5067886710166931,-0.719369649887085,0.38736462593078613
1780751983727901400,54.1229013671875,-0.43722647428512573,0.30260714888572693,0.0798705667257309
1780751983776417800,54.17141772460938,0.24350596964359283,0.36942046880722046,-1.2106575965881348
1780751983824934700,54.2199345703125,-0.6672934293746948,-0.06566796451807022,-1.5456405878067017
1780751983873451000,54.26845092773438,-0.50144362449646,0.5530617237091064,-1.2676208019256592
1780751983921967400,54.31696728515625,0.004810560029000044,0.2323576956987381,-0.20532692968845367
1780751983970484000,54.36548388671875,0.8211549520492554,0.8723912835121155,-0.1320231556892395
1780751984019000300,54.414000244140624,0.708984911441803,1.468595266342163,0.1729510873556137
1780751984067517000,54.46251684570313,0.5248091816902161,2.1129050254821777,-0.6867647171020508
1780751984116033300,54.511033203125,0.5568795800209045,0.6908116936683655,-0.8987348079681396
1780751984164550000,54.5595498046875,0.033139415085315704,0.7580068111419678,-1.2573124170303345
1780751984213066200,54.608066162109374,-0.5212967395782471,1.1698824167251587,-0.6036107540130615
1780751984261582600,54.65658251953125,0.7184533476829529,-1.20271635055542,0.04696023091673851
1780751984310099500,54.705099365234375,0.46685341000556946,0.014508038759231567,0.7651081085205078
1780751984358615800,54.75361572265625,0.13958260416984558,0.1764635592699051,2.3781728744506836
1780751984407132200,54.802132080078124,0.6867647171020508,-1.09520423412323,2.4232242107391357
1780751984455648500,54.8506484375,-0.029856016859412193,-1.7369940280914307,1.8962006568908691
1780751984504165400,54.899165283203125,-1.0890191793441772,-1.21287202835083,-0.9198096394538879
1780751984552681700,54.947681640625,-1.1645373106002808,-1.8377866744995117,-0.7488438487052917
1780751984601198000,54.996197998046874,-0.22266021370887756,-0.8427643179893494,0.33689191937446594
1780751984649714700,55.04471459960938,0.5745946764945984,-0.7720566987991333,0.4110356271266937
1780751984698231000,55.09323095703125,0.49945831298828125,-0.34490951895713806,0.2808450758457184
1780751984746747600,55.14174755859375,-0.34521496295928955,0.5235874652862549,-0.13797907531261444
1780751984795264300,55.19026416015625,0.17417281866073608,0.4451677203178406,-0.9589813351631165
1780751984843780600,55.23878051757813,-0.6819541454315186,-0.00847574882209301,-1.2772419452667236
1780751984892297000,55.287296875,-0.46517354249954224,0.4150826036930084,-1.289688229560852
1780751984940813600,55.3358134765625,-0.11537708342075348,-0.13713914155960083,-0.1519526094198227
1780751984989330200,55.384330078125,0.725860059261322,0.5206858515739441,-0.3811032772064209
1780751985037846500,55.43284643554688,0.7130318880081177,1.63620126247406,-0.1328630894422531
1780751985086363000,55.48136279296875,0.6495019793510437,2.0819034576416016,-0.6165152788162231
1780751985134879200,55.52987915039063,0.60406893491745,0.32933247089385986,-0.4600575268268585
1780751985183396000,55.57839599609375,-0.19051344692707062,1.2022582292556763,-0.8623883724212646
1780751985231912400,55.62691235351563,-0.3601047992706299,0.5504655241966248,-0.7493783831596375
1780751985280428800,55.6754287109375,0.7570141553878784,-0.8917862176895142,0.2536616027355194
1780751985328945400,55.7239453125,0.608497679233551,0.3966803252696991,1.3771946430206299
1780751985377461800,55.772461669921874,0.7854957580566406,-0.44264790415763855,3.3313510417938232
1780751985425978400,55.82097827148438,0.4266890585422516,-0.7160098552703857,2.562730550765991
1780751985474494700,55.86949462890625,-0.4309650957584381,-0.7263945937156677,-0.022754713892936707
1780751985523011300,55.91801123046875,-1.3038145303726196,-1.70011305809021,-0.7866411209106445
1780751985571527700,55.966527587890624,-0.959134042263031,-1.2990039587020874,-0.393244206905365
1780751985620044300,56.01504418945313,-0.0680350661277771,-0.6443859934806824,0.312228262424469
1780751985668561000,56.063560791015625,0.5666534304618835,-0.7108175158500671,0.1986074149608612
1780751985717077200,56.1120771484375,0.44906195998191833,-0.25320345163345337,0.27779075503349304
1780751985765593600,56.160593505859374,-0.51564621925354,0.14767655730247498,-0.5500837564468384
1780751985814110000,56.20910986328125,0.14698933064937592,0.4248564541339874,-0.9311106204986572
1780751985862626800,56.257626708984375,-0.6154462695121765,0.12370011955499649,-1.7936517000198364
1780751985911143200,56.30614306640625,-0.28672465682029724,0.5160280466079712,-1.096960425376892
1780751985959659500,56.354659423828124,0.13942988216876984,0.5073232054710388,-0.40286532044410706
1780751986008175900,56.40317578125,0.920115053653717,0.7400626540184021,-0.31612253189086914
1780751986056692500,56.4516923828125,0.31467172503471375,1.864817500114441,-0.09720385819673538
1780751986105209000,56.500208984375,0.44173160195350647,1.880776286125183,-0.8406262993812561
1780751986153725400,56.548725341796874,0.4137081801891327,0.5509236454963684,-0.8672752976417542
1780751986202242000,56.59724194335938,-0.29680392146110535,1.1763728857040405,-0.6256782412528992
1780751986250758400,56.64575830078125,0.026801692321896553,-0.12255474925041199,-0.3361283540725708
1780751986299275000,56.69427490234375,0.7655662894248962,-1.060613989830017,0.3462839722633362
1780751986347791400,56.742791259765625,0.33421939611434937,0.453719824552536,1.683619737625122
1780751986396308000,56.79130786132812,0.7890082001686096,-0.30947935581207275,3.039968490600586
1780751986444824300,56.83982421875,0.2788597643375397,-1.1726312637329102,2.6823835372924805
1780751986493340700,56.88834057617188,-0.6474403142929077,-1.092531681060791,-0.5832231640815735
1780751986541857300,56.936857177734375,-1.4860812425613403,-1.3800199031829834,-0.8323032855987549
1780751986590374000,56.98537377929687,-0.7365502119064331,-0.9669225811958313,-0.13920080661773682
1780751986638890200,57.03389013671875,0.25205808877944946,-0.8038216829299927,0.47372564673423767
1780751986687406600,57.08240649414063,0.5406916737556458,-0.7555633783340454,0.4199695289134979
1780751986735923200,57.130923095703125,0.18585561215877533,0.39309149980545044,0.27320927381515503
1780751986784439800,57.17943969726562,-0.15012001991271973,0.12614357471466064,-1.0495420694351196
1780751986832956200,57.2279560546875,-0.08804088830947876,0.4987711012363434,-0.8881210088729858
1780751986881472500,57.27647241210938,-0.592233419418335,0.2926805913448334,-1.5498403310775757
1780751986929989000,57.324989013671875,-0.17676898837089539,0.03474293276667595,-0.6981421113014221
1780751986978505700,57.37350561523437,0.18577924370765686,0.3058905303478241,-0.3565923273563385
1780751987027022000,57.42202197265625,0.766406238079071,0.7751110196113586,-0.004199695307761431
1780751987075538400,57.47053833007813,0.22670719027519226,1.8697807788848877,-0.25152358412742615
1780751987124055000,57.519054931640625,0.5913934707641602,1.2983931303024292,-0.7538834810256958
1780751987172571400,57.5675712890625,0.5812378525733948,0.3746891915798187,-0.9962440729141235
1780751987221088000,57.616087890625,-0.3044397234916687,1.000291109085083,-0.7834340929985046
1780751987269604400,57.66460424804688,0.022525638341903687,0.23770275712013245,-0.3336085379123688
1780751987318121000,57.713120849609375,0.7861065864562988,-1.025412917137146,0.5917752385139465
1780751987366637300,57.76163720703125,0.4269181191921234,0.30245441198349,1.8333579301834106
1780751987415154000,57.81015380859375,0.7679333686828613,-0.7262418866157532,2.833496332168579
1780751987463670300,57.85867016601563,0.14225514233112335,-1.205999732017517,2.2954771518707275
1780751987512187000,57.907186767578125,-0.6760746240615845,-1.395520567893982,-0.48334676027297974
1780751987560703200,57.955703125,-1.3563488721847534,-1.7638720273971558,-0.7614429593086243
1780751987609219600,58.004219482421874,-0.7457131743431091,-0.9692133069038391,0.11614066362380981
1780751987657736200,58.05273608398438,0.21555891633033752,-0.9340885877609253,0.3361283540725708
1780751987706252800,58.101252685546875,0.5061014890670776,-1.1473567485809326,0.09094249457120895
1780751987754769200,58.14976904296875,-0.1366809904575348,0.41706791520118713,0.367053359746933
1780751987803285500,58.198285400390624,-0.13041962683200836,-0.08093958348035812,-0.9035453796386719
1780751987851801900,58.2468017578125,-0.23846633732318878,0.16050471365451813,-1.0328196287155151
1780751987900318700,58.295318603515625,-0.673249363899231,0.260915607213974,-1.6070325374603271
1780751987948835000,58.3438349609375,-0.11759147047996521,0.030161447823047638,-0.814588189125061
1780751987997351400,58.392351318359374,0.4661661982536316,0.6329322457313538,-0.6871465444564819
1780751988045867800,58.44086767578125,0.7673225402832031,0.940197229385376,0.10903936624526978
1780751988094384600,58.489384521484375,0.41447174549102783,2.159865140914917,-0.20189081132411957
1780751988142901000,58.53790087890625,0.7025708556175232,0.8744529485702515,-0.5781835317611694
1780751988191417300,58.586417236328124,0.48105600476264954,0.428139865398407,-1.1012364625930786
1780751988239933700,58.63493359375,-0.5229766368865967,1.1193333864212036,-0.7600684762001038
1780751988288450300,58.6834501953125,0.282524973154068,-0.404468834400177,-0.27397283911705017
1780751988336967000,58.731966796875,0.729143500328064,-0.632168710231781,0.6733257174491882
1780751988385483300,58.780483154296874,0.3173442482948303,0.7339540123939514,2.2814271450042725
1780751988433999600,58.82899951171875,0.7889318466186523,-0.8462004065513611,2.763246774673462
1780751988482516200,58.87751611328125,0.026190826669335365,-1.2204314470291138,1.9886702299118042
1780751988531032800,58.92603271484375,-0.9057597517967224,-0.8409317135810852,-0.5598575472831726
1780751988579549200,58.974549072265624,-1.2732713222503662,-1.7480659484863281,-0.6456077098846436
1780751988628065500,59.0230654296875,-0.4958694875240326,-0.7047088742256165,0.07864884287118912
1780751988676582100,59.07158203125,0.4667770564556122,-0.8684206604957581,0.29733842611312866
1780751988725098500,59.12009838867188,0.5136609077453613,-0.8983530402183533,0.15439607203006744
1780751988773615000,59.168614990234374,-0.34353506565093994,0.5991820096969604,0.40202537178993225
1780751988822131500,59.21713134765625,0.10972658544778824,0.17768529057502747,-1.1208604574203491
1780751988870648000,59.26564794921875,-0.4678460657596588,0.0397825688123703,-1.455614447593689
1780751988919164400,59.31416430664063,-0.4771617650985718,0.8731548190116882,-1.348331332206726
1780751988967680800,59.3626806640625,-0.000305432389723137,0.0017562361899763346,-0.7137954831123352
1780751989016197400,59.411197265625,0.5884155035018921,0.6435460448265076,-0.4311941862106323
1780751989064713700,59.45971362304687,0.6777544617652893,1.2346340417861938,0.11866047978401184
1780751989113230300,59.50823022460938,0.4633409380912781,2.346637010574341,-0.7197514176368713
1780751989161746700,59.55674658203125,0.6788234710693359,0.6653081178665161,-0.6549997329711914
1780751989210263300,59.60526318359375,0.11064288020133972,0.5734493136405945,-0.9302706718444824
1780751989258779600,59.65377954101562,-0.6288089156150818,0.710512101650238,-0.5309942364692688
1780751989307296300,59.70229614257813,0.6651554107666016,-1.1924843788146973,0.061162836849689484
1780751989355812600,59.7508125,0.34406960010528564,0.3297906219959259,0.7764855027198792
1780751989404329000,59.79932885742188,0.48296496272087097,0.10041090101003647,2.640921115875244
1780751989452845600,59.847845458984374,0.666987955570221,-1.5561779737472534,2.9326090812683105
1780751989501362200,59.89636206054688,-0.26618432998657227,-1.0618356466293335,0.7819832563400269
1780751989549878500,59.94487841796875,-1.2844959497451782,-1.5134174823760986,-0.8715513348579407
1780751989598395000,59.99339477539063,-1.1163554191589355,-1.6824743747711182,-0.3696495592594147
1780751989646911200,60.0419111328125,-0.15905392169952393,-0.7351757884025574,0.40026915073394775
1780751989695427800,60.090427734375,0.5506945848464966,-0.9588286280632019,0.2997818887233734
1780751989743944400,60.1389443359375,0.3845393657684326,-0.6766090989112854,0.38247770071029663
1780751989792460800,60.18746069335938,-0.418366014957428,0.3572031855583191,-0.2863428592681885
1780751989840977400,60.235977294921874,0.18280129134655,0.21143557131290436,-0.8770490884780884
1780751989889493800,60.28449365234375,-0.6391936540603638,-0.1421024203300476,-1.5880956649780273
1780751989938010000,60.33301000976562,-0.3287216126918793,0.04604393243789673,-1.0780236721038818
1780751989986526700,60.38152661132813,0.095982126891613,0.07276926934719086,-0.4647153913974762
1780751990035043000,60.43004296875,0.9964731931686401,0.6952404975891113,-0.14912736415863037
1780751990083559700,60.4785595703125,0.4650208055973053,1.4938697814941406,0.5020545125007629
1780751990132076000,60.52707592773437,0.39194610714912415,1.8599305152893066,-0.6534726023674011
1780751990180592400,60.57559228515625,0.46746426820755005,0.3801869750022888,-1.039615511894226
1780751990229109000,60.62410888671875,-0.26824599504470825,1.0326669216156006,-0.9793689846992493
1780751990277625300,60.672625244140626,-0.2006690800189972,0.42936158180236816,-0.4502837061882019
1780751990326142000,60.72114184570312,0.8487966060638428,-0.9881501197814941,0.325514554977417
1780751990374658300,60.769658203125,0.4143190383911133,0.4780016839504242,1.2970186471939087
1780751990423174700,60.81817456054687,0.6624828577041626,-0.38331764936447144,2.6384778022766113
1780751990471691300,60.866691162109376,0.3929387629032135,-1.2231040000915527,2.859381675720215
1780751990520208000,60.91520776367187,-0.2986365258693695,-1.092760682106018,0.3575085997581482
1780751990568724200,60.96372412109375,-1.240360975265503,-1.6698752641677856,-1.034881353378296
1780751990617240600,61.01224047851562,-0.9185879230499268,-1.025336503982544,-0.3399462401866913
1780751990665757200,61.060757080078126,0.045738499611616135,-0.6402626633644104,0.36949682235717773
1780751990714273500,61.1092734375,0.5493201613426208,-0.9085086584091187,0.2084576040506363
1780751990762790100,61.1577900390625,0.14569124579429626,0.2386954128742218,0.5132027864456177
1780751990811306500,61.20630639648437,-0.34643667936325073,-0.051618073135614395,-0.6488910913467407
1780751990859822800,61.25482275390625,0.11858412623405457,0.45761406421661377,-0.9923498630523682
1780751990908339500,61.30333935546875,-0.7247146964073181,0.3447568118572235,-1.767155408859253
1780751990956856000,61.35185595703125,-0.22853977978229523,0.4134027361869812,-0.7548761367797852
1780751991005372400,61.40037231445312,0.11110103130340576,0.42913252115249634,-0.08941533416509628
1780751991053888800,61.448888671875,0.7360156774520874,0.6767618060112,-0.14813470840454102
1780751991102405000,61.49740502929688,0.2910770773887634,1.936365008354187,-0.2225838601589203
1780751991150921700,61.545921630859375,0.5482511520385742,1.6920191049575806,-0.84177166223526
