time,seconds_elapsed,z,y,x
1780751929874431000,0.269430908203125,-0.007024944759905338,0.07055488228797913,-0.005803215317428112
1780751929922923300,0.31792333984375,-0.006872228812426329,0.05108356848359108,-0.011377356946468353
1780751929971440000,0.366440185546875,-0.004886918235570192,0.03504836559295654,-0.027030766010284424
1780751930019957000,0.41495703125,-0.002672533504664898,0.01183550525456667,-0.016035201027989388
1780751930068473900,0.463473876953125,-0.016875140368938446,0.0007635809597559273,-0.0007635809597559273
1780751930116990700,0.51199072265625,-0.01626427471637726,-0.005345067009329796,-0.008323032408952713
1780751930165507600,0.560507568359375,-0.0154243353754282,-0.0019853105768561363,-0.009773836471140385
1780751930214024700,0.609024658203125,-0.01588248461484909,0.002672533504664898,-0.00511599238961935
1780751930262541300,0.657541259765625,-0.009162971749901772,-0.0009926552884280682,-0.020998476073145866
1780751930311058200,0.70605810546875,-0.00954476185142994,0.0058795735239982605,-0.018555017188191414
1780751930359575000,0.754574951171875,-0.002901607658714056,-0.0016035200096666813,-0.019394956529140472
1780751930408092200,0.803092041015625,-0.010384701192378998,0.011453714221715927,-0.017867794260382652
1780751930456609000,0.851609130859375,-0.011148282326757908,-0.001221729558892548,-0.017715077847242355
1780751930505126000,0.9001259765625,-0.008704823441803455,0.006337722297757864,-0.008933897130191326
1780751930553642800,0.948642822265625,-0.008704823441803455,-0.004505127668380737,-0.010995565913617611
1780751930602159900,0.997159912109375,-0.016035201027989388,0.0034361144062131643,-0.010384701192378998
1780751930650676500,1.045676513671875,-0.006719512399286032,0.010766491293907166,-0.023823726922273636
1780751930699193300,1.094193359375,-0.001679878099821508,0.05849030241370201,-0.039248060435056686
1780751930747710200,1.142710205078125,-0.008399390615522861,0.09567669779062271,-0.05971203371882439
1780751930796227000,1.19122705078125,-0.013820815831422806,0.09728021919727325,-0.030695954337716103
1780751930844744200,1.239744140625,-0.008704823441803455,0.06475166976451874,-0.04474584385752678
1780751930893261000,1.288260986328125,-0.007330377586185932,0.033139415085315704,-0.030390523374080658
1780751930941778000,1.33677783203125,-0.001679878099821508,0.012217295356094837,-0.020922118797898293
1780751930990294800,1.385294677734375,0.008093958720564842,0.0345902182161808,-0.04505127668380737
1780751931038812000,1.43381201171875,0.026419902220368385,0.002672533504664898,-0.0907897800207138
1780751931087328800,1.482328857421875,0.02848157100379467,-0.003894262947142124,-0.08651372790336609
1780751931135845600,1.530845703125,0.006872228812426329,-0.024892739951610565,-0.08353576064109802
1780751931184362500,1.579362548828125,-0.007177661173045635,-0.1101083755493164,-0.07742711156606674
1780751931232879400,1.62787939453125,0.01183550525456667,-0.16821688413619995,-0.03260490670800209
1780751931281396500,1.676396484375,0.05497783049941063,-0.2393062710762024,-0.06818778067827225
1780751931329913300,1.724913330078125,0.07269290834665298,-0.24579671025276184,-0.06864593178033829
1780751931378430200,1.77343017578125,0.030695954337716103,-0.17569997906684875,-0.06268999725580215
1780751931426947000,1.821947021484375,-0.006872228812426329,-0.05887209251523018,0.030695954337716103
1780751931475464000,1.8704638671875,-0.04230238497257233,0.02153298258781433,0.10155627131462097
1780751931523980800,1.918980712890625,-0.027107125148177147,0.07231111824512482,-0.029932374134659767
1780751931572497700,1.96749755859375,0.00755945174023509,0.049861837178468704,-0.046425722539424896
1780751931621014500,2.0160146484375,-0.0022143847309052944,0.0007635809597559273,0.015500693581998348
1780751931669531400,2.064531494140625,-0.003665188793092966,0.030772313475608826,-0.05497783049941063
1780751931766565400,2.1615654296875,-0.016035201027989388,0.09636391699314117,-0.010766491293907166
1780751931815082200,2.210082275390625,-0.030695954337716103,0.08208495378494263,-0.03275762498378754
1780751931863599000,2.25859912109375,-0.0423787422478199,0.06047561392188072,-0.056199558079242706
1780751931912116000,2.307115966796875,-0.04566214233636856,0.02458730712532997,-0.050090912729501724
1780751931960633000,2.355633056640625,-0.04169152304530144,0.027107125148177147,-0.01000291109085083
1780751932009150000,2.40414990234375,-0.02283107116818428,-0.0025961752980947495,-0.033368486911058426
1780751932057666800,2.452666748046875,-0.01954767294228077,-0.0154243353754282,-0.011453714221715927
1780751932106183700,2.50118359375,-0.021838415414094925,-0.01954767294228077,-0.03909534588456154
1780751932154700500,2.549700439453125,-0.00954476185142994,-0.013820815831422806,-0.0295505840331316
1780751932203217700,2.5982177734375,-0.0013744457392022014,-0.003665188793092966,-0.026419902220368385
1780751932251734500,2.646734619140625,-0.008399390615522861,0.03527744114398956,-0.02519817277789116
1780751932300251400,2.69525146484375,-0.0009926552884280682,0.02611446939408779,-0.043142326176166534
1780751932348768300,2.743768310546875,0.0032070400193333626,0.021380268037319183,-0.059635672718286514
1780751932397285000,2.79228515625,-0.002290742937475443,0.008933897130191326,-0.03993528336286545
1780751932445802200,2.84080224609375,-0.008704823441803455,-0.0022143847309052944,-0.04130972921848297
1780751932494318800,2.88931884765625,-0.006719512399286032,-0.017256930470466614,-0.03581194952130318
1780751932542835700,2.937835693359375,-0.011988221667706966,-0.01565340906381607,-0.018096869811415672
1780751932591352600,2.9863525390625,-0.01000291109085083,-0.01565340906381607,-0.037491824477910995
1780751932639869700,3.03486962890625,-0.011988221667706966,-0.00022907429956831038,-0.029703300446271896
1780751932688386600,3.083386474609375,-0.013897174037992954,0.006948587018996477,-0.020540328696370125
1780751932736903400,3.1319033203125,-0.012217295356094837,0.011224640533328056,-0.0334448479115963
1780751932785420300,3.180420166015625,-0.009926552884280682,0.014813470654189587,-0.03520108386874199
1780751932833937200,3.228937255859375,-0.010384701192378998,0.007101302966475487,-0.026038112118840218
1780751932882454300,3.277454345703125,-0.009621120058000088,0.008933897130191326,-0.027107125148177147
1780751932930971100,3.32597119140625,-0.01649334840476513,0.014431680552661419,-0.04199695214629173
1780751932979488000,3.374488037109375,-0.011606430634856224,0.03375028073787689,-0.04276053607463837
1780751933028004900,3.4230048828125,-0.008704823441803455,0.027336198836565018,-0.039706211537122726
1780751933076521700,3.471521728515625,-0.0077121676877141,0.023212861269712448,-0.02649625949561596
1780751933125038800,3.520038818359375,-0.012446369975805283,0.030695954337716103,-0.030314164236187935
1780751933173555700,3.5685556640625,-0.005955931730568409,0.020769402384757996,-0.03588830679655075
1780751933222072300,3.617072265625,-0.0030543238390237093,0.02848157100379467,-0.03810269013047218
1780751933270589200,3.665589111328125,-0.002061668550595641,0.013286309316754341,-0.024663666263222694
1780751933367623200,3.762623046875,-0.023365577682852745,-0.006490438245236874,-0.014508038759231567
1780751933416140000,3.81114013671875,-0.017486004158854485,-0.009162971749901772,-0.01870773360133171
1780751933464657000,3.859656982421875,-0.013820815831422806,-0.009621120058000088,-0.02649625949561596
1780751933513173800,3.908173828125,-0.008781181648373604,-0.004734201822429895,-0.014049889519810677
1780751933561691000,3.95669091796875,-0.011148282326757908,0.01588248461484909,-0.02542724646627903
1780751933610207700,4.005207763671875,-0.007483093533664942,0.017867794260382652,-0.01511890348047018
1780751933658724600,4.053724609375,-0.011988221667706966,0.030390523374080658,-0.008399390615522861
1780751933707241500,4.102241455078125,-0.009621120058000088,0.033597562462091446,-0.018784092739224434
1780751933755758600,4.150758544921875,-0.0022143847309052944,0.023441936820745468,-0.025503603741526604
1780751933804275200,4.199275146484375,-0.002672533504664898,0.008704823441803455,-0.010384701192378998
1780751933852792000,4.2477919921875,-0.002901607658714056,-0.01259908638894558,-0.008399390615522861
1780751933901309000,4.296308837890625,-0.007788525894284248,-0.01977674663066864,-0.01588248461484909
1780751933949825800,4.34482568359375,-0.008781181648373604,-0.008704823441803455,-0.008552107028663158
1780751933998343000,4.393343017578125,-0.0038179049734026194,-0.01588248461484909,-0.010766491293907166
1780751934046859800,4.44185986328125,-0.009162971749901772,-0.0025961752980947495,-0.011224640533328056
1780751934095376600,4.490376708984375,-0.008704823441803455,-0.002290742937475443,-0.010842849500477314
1780751934143893500,4.5388935546875,-0.0013744457392022014,-0.009621120058000088,-0.007101302966475487
1780751934192410600,4.58741064453125,0.0013744457392022014,-0.011988221667706966,-0.027947064489126205
1780751934240927200,4.63592724609375,0.00022907429956831038,-0.0038179049734026194,-0.01511890348047018
1780751934289444000,4.684444091796875,-0.002825249684974551,0.0001527161948615685,-0.011148282326757908
1780751934337961000,4.7329609375,-0.0007635809597559273,-0.0025961752980947495,-0.014813470654189587
1780751934386477800,4.781477783203125,0.000839939049910754,-0.0013744457392022014,-0.01259908638894558
1780751934434995000,4.829994873046875,-0.0001527161948615685,-0.0001527161948615685,-0.01954767294228077
1780751934483511800,4.87851171875,-0.0007635809597559273,0.0025961752980947495,-0.017867794260382652
1780751934532028700,4.927028564453125,0.00022907429956831038,0.001221729558892548,-0.01893680728971958
1780751934580545500,4.975545654296875,-0.0057268571108579636,-0.002443459117785096,-0.007177661173045635
1780751934629062400,5.0240625,-0.005268708802759647,-0.010537417605519295,-0.0102319847792387
1780751934677579300,5.072579345703125,-0.002825249684974551,-0.008093958720564842,-0.017104214057326317
1780751934726096400,5.121096435546875,-0.005345067009329796,-0.011224640533328056,-0.021838415414094925
1780751934774613000,5.169613037109375,-0.002672533504664898,-0.013286309316754341,-0.014431680552661419
1780751934823129900,5.2181298828125,-0.0030543238390237093,-0.013286309316754341,-0.020998476073145866
1780751934871647000,5.26664697265625,-0.002290742937475443,-0.002061668550595641,-0.018173227086663246
1780751934920163800,5.315163818359375,-0.001679878099821508,-0.006719512399286032,-0.00755945174023509
1780751935017197600,5.412197509765625,-0.0062613640911877155,-0.005345067009329796,-0.02214384824037552
1780751935065714400,5.46071435546875,-0.0062613640911877155,0.0025961752980947495,-0.013668099418282509
1780751935114231300,5.509231201171875,-0.003512472379952669,-0.004657844081521034,-0.018555017188191414
1780751935162748200,5.557748046875,-0.010613775812089443,0.006948587018996477,-0.020158538594841957
1780751935211265000,5.60626513671875,-0.010842849500477314,0.008704823441803455,-0.015042545273900032
1780751935259782000,5.654781982421875,-0.010613775812089443,0.006337722297757864,-0.014202605932950974
1780751935308299000,5.703299072265625,-0.008093958720564842,0.006872228812426329,-0.017944153398275375
1780751935356816000,5.75181591796875,-0.007101302966475487,0.0022143847309052944,-0.011148282326757908
1780751935405332700,5.800332763671875,-0.008323032408952713,-0.004276053514331579,-0.010766491293907166
1780751935453849300,5.848849365234375,-0.005268708802759647,-0.008933897130191326,-0.016340631991624832
1780751935502366200,5.8973662109375,-0.005268708802759647,-0.01626427471637726,-0.01649334840476513
1780751935550883300,5.94588330078125,-0.004428769461810589,-0.00954476185142994,-0.01588248461484909
1780751935599400200,5.994400146484375,-0.006490438245236874,-0.013668099418282509,-0.01672242395579815
1780751935647917000,6.0429169921875,-0.008093958720564842,-0.01183550525456667,-0.013057234697043896
1780751935696434000,6.091433837890625,-0.001679878099821508,-0.012675444595515728,-0.01611155830323696
1780751935744950800,6.13995068359375,-0.0032070400193333626,-0.0025961752980947495,-0.021227551624178886
1780751935793467600,6.188467529296875,0.001679878099821508,-0.006948587018996477,-0.020922118797898293
1780751935841984500,6.236984619140625,-0.0019853105768561363,0.0030543238390237093,-0.01672242395579815
1780751935890501400,6.28550146484375,-0.004734201822429895,0.008170315995812416,-0.01908952370285988
1780751935939018200,6.334018310546875,-0.004657844081521034,0.009621120058000088,-0.015042545273900032
1780751935987535000,6.38253515625,-0.004046979360282421,0.000839939049910754,-0.0154243353754282
1780751936036052000,6.431052001953125,-0.004657844081521034,0.001221729558892548,-0.01908952370285988
1780751936084568800,6.47956884765625,-0.0016035200096666813,-0.0057268571108579636,-0.02000582218170166
1780751936133085700,6.528085693359375,-0.004734201822429895,-0.008933897130191326,-0.013668099418282509
1780751936181602600,6.5766025390625,-0.005039634648710489,-0.012675444595515728,-0.01588248461484909
1780751936230119700,6.62511962890625,-0.002061668550595641,-0.008399390615522861,-0.01672242395579815
1780751936278636500,6.673636474609375,0.0022143847309052944,-0.011377356946468353,-0.027107125148177147
1780751936327153400,6.7221533203125,-0.002290742937475443,-0.002901607658714056,-0.014660755172371864
1780751936375670000,6.770669921875,-0.0016035200096666813,-0.006719512399286032,-0.021991131827235222
1780751936424187000,6.819186767578125,0.001221729558892548,-0.003665188793092966,-0.018096869811415672
1780751936472704000,6.8677041015625,0.003665188793092966,-0.001679878099821508,-0.01893680728971958
1780751936521220900,6.916220947265625,-0.0019853105768561363,-0.0019853105768561363,-0.016646064817905426
1780751936569737700,6.96473779296875,-0.002901607658714056,-0.006566796451807022,-0.014202605932950974
1780751936666771200,7.061771240234375,-0.003283398225903511,-0.005345067009329796,-0.020387612283229828
1780751936715288300,7.110288330078125,0.000610864779446274,-0.01359174121171236,-0.016875140368938446
1780751936763805200,7.15880517578125,-0.0001527161948615685,-0.009773836471140385,-0.020998476073145866
1780751936812322000,7.207322021484375,-0.0038179049734026194,-0.008399390615522861,-0.02176205813884735
1780751936860838700,7.255838623046875,-0.001679878099821508,-0.015271619893610477,-0.022754713892936707
1780751936909355800,7.304355712890625,0,-0.008704823441803455,-0.0206166859716177
1780751936957872600,7.35287255859375,-0.001832594396546483,-0.00038179047987796366,-0.013439024798572063
1780751937006389500,7.401389404296875,0.0010690133785828948,-0.009773836471140385,-0.02000582218170166
1780751937054906400,7.44990625,0.000839939049910754,-0.004886918235570192,-0.024816380813717842
1780751937103423000,7.498423095703125,0.0058795735239982605,-0.011377356946468353,-0.01954767294228077
1780751937151940000,7.546940185546875,0.002825249684974551,-0.008170315995812416,-0.012370011769235134
1780751937200457000,7.59545703125,0.008093958720564842,-0.024816380813717842,-0.012675444595515728
1780751937248973800,7.643973876953125,0.011988221667706966,-0.01977674663066864,-0.020311253145337105
1780751937297490700,7.69249072265625,0.011148282326757908,-0.023212861269712448,-0.023976443335413933
1780751937346007600,7.741007568359375,0.01695149764418602,-0.02542724646627903,-0.018784092739224434
1780751937394524400,7.7895244140625,0.02214384824037552,-0.0256563201546669,-0.020998476073145866
1780751937443041300,7.838041259765625,0.023976443335413933,-0.025045456364750862,-0.02306014485657215
1780751937491558100,7.88655810546875,0.023212861269712448,-0.03711003437638283,-0.017562363296747208
1780751937540075000,7.935074951171875,0.02825249545276165,-0.03176496922969818,-0.023441936820745468
1780751937588591900,7.983591796875,0.03436114266514778,-0.04214967042207718,-0.03237583488225937
1780751937637108700,8.032108642578125,0.03497200831770897,-0.046807512640953064,-0.026648975908756256
1780751937685625600,8.08062548828125,0.034437503665685654,-0.05581776797771454,-0.03825540840625763
1780751937734142500,8.129142578125,0.046883873641490936,-0.027717988938093185,-0.0591011680662632
1780751937782659000,8.1776591796875,0.05154171586036682,-0.0001527161948615685,-0.07735075056552887
1780751937831176200,8.22617626953125,0.05787943676114082,0.04566214233636856,-0.09750928729772568
1780751937879693000,8.274693115234374,0.05971203371882439,0.10613775253295898,-0.12996147572994232
1780751937928210000,8.3232099609375,0.03871355578303337,0.14859285950660706,-0.173256516456604
1780751937976726500,8.3717265625,-0.026419902220368385,0.13240493834018707,-0.1836412250995636
1780751938025243400,8.420243408203126,-0.0642935186624527,0.0795651376247406,-0.2565632164478302
1780751938073760500,8.468760498046874,-0.007941242307424545,-0.061850059777498245,-0.22235478460788727
1780751938122277400,8.51727734375,0.046654798090457916,0.04535670951008797,-0.0902552679181099
1780751938170794000,8.5657939453125,0.0256563201546669,0.07246383279561996,0.0025961752980947495
1780751938219310800,8.614310791015624,0.07864884287118912,0.30711227655410767,0.04459312930703163
1780751938316344800,8.7113447265625,0.1406516134738922,0.3452913165092468,0.04016435891389847
1780751938364861400,8.759861328125,0.0818558782339096,0.2750418782234192,-0.08491020649671555
1780751938413378300,8.80837841796875,0.11988221108913422,0.23212862014770508,-0.21945317089557648
1780751938461895200,8.856895263671875,0.14194969832897186,0.20013457536697388,-0.38240134716033936
1780751938510411800,8.905411865234376,0.1539379209280014,0.1769980639219284,-0.5371028780937195
1780751938558929000,8.953928955078124,0.2419024556875229,0.11178825795650482,-0.3430769443511963
1780751938607445800,9.00244580078125,0.2620609998703003,0.10506874322891235,-0.23373213410377502
1780751938655962600,9.050962646484376,0.23373213410377502,-0.043600473552942276,-0.29794928431510925
1780751938704479200,9.099479248046874,0.2928332984447479,-0.15210533142089844,0.1715002804994583
1780751938752996400,9.147996337890625,0.30802857875823975,-0.011759147047996521,1.070082426071167
1780751938801513200,9.19651318359375,0.27626359462738037,0.5694786906242371,1.5919135808944702
1780751938850029800,9.24502978515625,0.3347539007663727,-1.2520437240600586,1.7869322299957275
1780751938898546700,9.293546630859375,-0.5163334608078003,-0.3742310404777527,1.1325433254241943
1780751938947063600,9.3420634765625,-1.4314852952957153,-1.1535418033599854,-0.03588830679655075
1780751938995580700,9.39058056640625,-1.0572541952133179,-1.532507061958313,0.9617302417755127
1780751939044097300,9.43909716796875,-0.6314814686775208,-1.1897355318069458,0.7179951667785645
1780751939092614100,9.4876142578125,-0.03565923124551773,-1.0230457782745361,-0.2720639109611511
1780751939141131000,9.536131103515626,0.5125155448913574,-0.76991868019104,-0.4001164436340332
1780751939189648000,9.58464794921875,0.2018144577741623,-0.7767909169197083,-0.494647741317749
1780751939238164700,9.633164794921875,-0.29710936546325684,0.06864593178033829,0.28122687339782715
1780751939286681600,9.681681640625,-0.12438733875751495,0.01183550525456667,-0.8153517842292786
1780751939335198500,9.730198486328124,-0.9936479330062866,0.1683696061372757,-1.3542872667312622
1780751939383715000,9.778715087890625,-0.4007273018360138,0.30459246039390564,-1.1419353485107422
1780751939432232000,9.82723193359375,-0.07307469844818115,0.5127446055412292,-0.8046616315841675
1780751939480748800,9.875748779296876,0.4516581594944,1.0569487810134888,-0.35185810923576355
1780751939529265700,9.924265625,0.7959567904472351,1.7022510766983032,-0.37033677101135254
1780751939577782500,9.972782470703125,0.8258891701698303,1.4372121095657349,-0.289168119430542
1780751939626299400,10.02129931640625,0.5539016127586365,0.8700241446495056,-0.4738783538341522
1780751939674816300,10.069816162109374,0.09552398324012756,0.9928079843521118,-1.0382410287857056
1780751939723333000,10.1183330078125,-0.23518294095993042,0.9773836731910706,-0.5978075265884399
1780751939771850000,10.16685009765625,0.6400335431098938,-0.47670361399650574,-0.32154396176338196
1780751939820366600,10.21536669921875,0.5682569742202759,0.18555018305778503,0.6599630117416382
1780751939917400300,10.312400390625,1.0706932544708252,-1.1887428760528564,3.1079273223876953
1780751939965917200,10.360917236328126,-0.03252854943275452,-0.8625410795211792,1.1559852361679077
1780751940014434000,10.40943408203125,-1.2536472082138062,-1.9659919738769531,-0.7111993432044983
1780751940062951000,10.457950927734375,-1.2319614887237549,-1.9853105545043945,0.11499529331922531
1780751940111467500,10.506467529296875,-0.5055669546127319,-1.7078251838684082,0.3712530732154846
1780751940159984600,10.554984619140624,0.3038288652896881,-1.382005214691162,0.16844595968723297
1780751940208501500,10.60350146484375,0.5438223481178284,-1.4438552856445312,-0.06276635825634003
1780751940257018000,10.65201806640625,-0.16455170512199402,0.02626718580722809,0.11194097250699997
1780751940305535000,10.700534912109376,-0.09896009415388107,-0.018784092739224434,-0.9183588624000549
1780751940354051800,10.7490517578125,-0.6674461364746094,0.48647743463516235,-1.2234094142913818
1780751940402568700,10.797568603515625,-1.0841323137283325,-0.06551524996757507,-1.7401247024536133
1780751940451085600,10.84608544921875,-0.21807873249053955,-0.5878046154975891,-0.5542834401130676
1780751940499602200,10.894602294921874,0.6627882719039917,0.3695732057094574,-0.3915643095970154
1780751940548119000,10.943119140625,0.794124186038971,0.8591049313545227,0.001450803829357028
1780751940596636000,10.991635986328125,0.5963567495346069,2.1677300930023193,-0.5781071782112122
1780751940645152800,11.04015283203125,0.8329904675483704,0.8445969223976135,-0.927521824836731
1780751940693669600,11.088669677734375,0.523969292640686,0.801836371421814,-0.9356921315193176
1780751940742186500,11.1371865234375,-0.29672756791114807,1.6509383916854858,-0.40805765986442566
1780751940790703400,11.185703369140626,0.8283326625823975,-0.3280344009399414,0.18524473905563354
1780751940839220200,11.23422021484375,0.8587231636047363,0.813060998916626,1.0836740732192993
1780751940887736800,11.28273681640625,1.1050543785095215,0.38644832372665405,3.340590476989746
1780751940936253700,11.331253662109376,0.8365029692649841,-0.6094903349876404,2.7998223304748535
1780751940984770600,11.3797705078125,-0.42012226581573486,-0.2237292230129242,0.125074565410614
1780751941033287400,11.428287353515625,-1.3012946844100952,-1.5108213424682617,-0.5145008563995361
1780751941081804300,11.47680419921875,-0.9651663303375244,-1.5051708221435547,0.028557928279042244
1780751941130321000,11.52532080078125,-0.26022839546203613,-1.1855357885360718,0.2294560819864273
1780751941178837800,11.573837646484375,0.35674503445625305,-1.3213005065917969,-0.13790272176265717
1780751941227354600,11.622354736328125,0.3116937577724457,-0.9808961153030396,-0.6094903349876404
1780751941275871500,11.67087158203125,-0.7346412539482117,0.5780308246612549,-0.2522871494293213
1780751941324388400,11.719388427734375,0.1726456582546234,0.09957095980644226,-0.9418007731437683
1780751941372905200,11.7679052734375,-1.0293071269989014,0.23846633732318878,-1.5385392904281616
1780751941421421800,11.816421875,-0.6759982109069824,0.014813470654189587,-1.5990148782730103
1780751941469938700,11.864938720703124,0.46036297082901,-0.38667741417884827,-0.05413788929581642
1780751941566972400,11.961972412109375,0.6195695996284485,1.3115266561508179,-0.22434009611606598
1780751941615489300,12.0104892578125,0.5112938284873962,1.8454225063323975,-0.9397391080856323
1780751941664006000,12.059005859375,0.7230347990989685,0.48296496272087097,-0.7754164934158325
1780751941712522800,12.107522705078125,0.0639880821108818,0.8452077507972717,-0.7605266571044922
1780751941761039600,12.15603955078125,-0.3068068325519562,1.4341577291488647,-0.2946659028530121
1780751941809556500,12.204556396484374,1.0328196287155151,-1.0713040828704834,0.23884813487529755
1780751941858073300,12.2530732421875,0.6378955245018005,0.30833399295806885,1.3626866340637207
1780751941906590000,12.30158984375,0.945847749710083,-0.21991132199764252,3.207803726196289
1780751941955106800,12.35010693359375,0.7976366877555847,-0.820773184299469,2.678412914276123
1780751942003623700,12.398623779296875,-0.4970912039279938,-1.1504111289978027,-0.23312127590179443
1780751942052140500,12.447140625,-1.5078433752059937,-1.3854413032531738,-0.5441278219223022
1780751942100657200,12.4956572265625,-0.7959567904472351,-1.9181153774261475,0.13790272176265717
1780751942149174000,12.544174072265625,0.10140355676412582,-1.4228568077087402,0.3264308571815491
1780751942197691000,12.59269091796875,0.5601630210876465,-0.9446260333061218,0.02848157100379467
1780751942246207700,12.641207763671876,0.16325360536575317,-0.2836703360080719,0.0038179049734026194
1780751942294724600,12.689724609375,-0.36919140815734863,0.034666575491428375,-0.44325876235961914
1780751942343241200,12.7382412109375,-0.5334376692771912,0.46364638209342957,-1.0361794233322144
1780751942391758000,12.786758056640625,-0.734717607498169,0.3202458620071411,-1.75455641746521
1780751942440275000,12.83527490234375,-0.14737112820148468,-0.06643154472112656,-0.7368556261062622
1780751942488791800,12.883791748046875,0.48708829283714294,0.5326740741729736,-0.6229293346405029
1780751942537308400,12.932308349609375,0.7491493225097656,1.1494947671890259,-0.2370155304670334
1780751942585825300,12.9808251953125,0.33429574966430664,2.2866196632385254,-0.5988001823425293
1780751942634342100,13.029342041015624,0.7215840220451355,0.8454368710517883,-0.855668842792511
1780751942682859000,13.07785888671875,0.39767298102378845,0.45532333850860596,-0.9743293523788452
1780751942731375600,13.126375732421875,-0.5467239618301392,1.4007129669189453,-0.6569086909294128
1780751942779892500,13.174892578125,0.6821069121360779,-0.7159335017204285,0.08384118974208832
1780751942828409300,13.223409423828125,0.8564324378967285,0.16699515283107758,1.299462080001831
1780751942876926000,13.271926025390625,0.7645736336708069,0.5100721120834351,3.231245517730713
1780751942925442800,13.32044287109375,0.6168206930160522,-0.7951932549476624,2.8290674686431885
1780751943022476500,13.4174765625,-1.4253766536712646,-1.2524255514144897,-0.9234748482704163
1780751943070993200,13.4659931640625,-0.9615011811256409,-1.3484076261520386,0.02916879393160343
1780751943119510000,13.514510009765624,0.10774127393960953,-1.9399538040161133,0.3352120518684387
1780751943168026600,13.563026611328125,0.5774962902069092,-1.5490003824234009,-0.03436114266514778
1780751943216543700,13.611543701171875,0.3699549734592438,-0.8031344413757324,-0.25984659790992737
1780751943265060400,13.660060302734376,-0.6229293346405029,0.04436405375599861,-0.19204062223434448
1780751943313577200,13.7085771484375,-0.19158247113227844,0.6190351247787476,-0.5115228891372681
1780751943362094000,13.757093994140625,-1.0062470436096191,-0.3337612450122833,-1.9607232809066772
1780751943410611000,13.80561083984375,-0.39446592330932617,-0.4563159942626953,-1.0604612827301025
1780751943459127600,13.85412744140625,0.1346193253993988,-0.15958842635154724,-0.4444804787635803
1780751943507644400,13.90264453125,0.7506000995635986,0.7646499872207642,-0.07231111824512482
1780751943556161000,13.9511611328125,0.4883100390434265,1.8629848957061768,-0.25495967268943787
1780751943604678000,13.999677978515624,0.7393754720687866,1.532507061958313,-0.9924262166023254
1780751943653194800,14.04819482421875,0.8521563410758972,0.06757691502571106,-1.0600031614303589
1780751943701711600,14.096711669921875,-0.10644318908452988,0.9098067283630371,-0.6798924803733826
1780751943750228200,14.145228271484376,0.15561780333518982,0.072921983897686,-0.1983019858598709
1780751943798745000,14.1937451171875,0.8373429179191589,-0.7430406212806702,0.7325795888900757
1780751943847262000,14.242261962890625,0.28588470816612244,1.6155083179473877,2.277456521987915
1780751943895778800,14.29077880859375,1.0934479236602783,-1.4340814352035522,3.3678503036499023
1780751943944295400,14.33929541015625,0.17142392694950104,-0.43837183713912964,1.7468441724777222
1780751943992812300,14.387812255859375,-1.1633156538009644,-1.2561670541763306,-0.8703296184539795
1780751944041329200,14.4363291015625,-1.304807186126709,-0.9689842462539673,-0.3605629503726959
1780751944089845800,14.484845703125,-0.38934993743896484,-0.9146173000335693,0.3127627670764923
1780751944138362600,14.533362548828125,0.5963567495346069,-1.4030036926269531,-0.04909825697541237
1780751944186879200,14.581879150390625,0.6943241953849792,-1.0186933279037476,-0.13683371245861053
1780751944235396000,14.63039599609375,-0.5959749221801758,0.8605557680130005,0.08651372790336609
1780751944283913000,14.678912841796874,-0.016035201027989388,0.006490438245236874,-0.8061888217926025
1780751944332429600,14.7274296875,-0.9317215085029602,0.093691386282444,-1.4721840620040894
1780751944380946400,14.775946533203125,-0.7302125096321106,-0.25007277727127075,-1.5039490461349487
1780751944429463300,14.82446337890625,-0.056810423731803894,-0.39018988609313965,-0.4036289155483246
1780751944477980200,14.872980224609375,0.751592755317688,0.7643445730209351,-0.5349648594856262
1780751944526496800,14.921496826171875,0.6963858604431152,1.7694461345672607,-0.27717989683151245
1780751944575013600,14.970013671875,0.9549343585968018,1.6065744161605835,-0.808937668800354
1780751944672047000,15.067047119140625,0.14523309469223022,1.130328893661499,-0.8065705895423889
1780751944720564000,15.11556396484375,-0.1427132785320282,0.5253437161445618,-0.5745946764945984
1780751944769080600,15.16408056640625,0.7392991185188293,-0.7096721529960632,0.16661337018013
1780751944817597700,15.21259765625,0.2857320010662079,1.8700097799301147,1.5251766443252563
1780751944866114300,15.2611142578125,0.8395572900772095,-0.18829907476902008,3.3321146965026855
1780751944914631000,15.309630859375,0.653167188167572,-0.9204205274581909,2.602513074874878
1780751944963147800,15.358147705078125,-0.5412262082099915,-0.6340776681900024,-0.11591159552335739
1780751945011664400,15.406664306640625,-1.3966659307479858,-0.7496837973594666,-0.2926042377948761
1780751945060181500,15.455181396484376,-0.8132137656211853,-1.0289254188537598,0.18791727721691132
1780751945108698000,15.503697998046874,0.37033677101135254,-1.5994731187820435,0.24701844155788422
1780751945157215000,15.552215087890625,0.5487856268882751,-1.3577996492385864,-0.23457208275794983
1780751945205731600,15.600731689453125,-0.10094540566205978,-0.11423171311616898,-0.20135630667209625
1780751945254248400,15.64924853515625,-0.27168211340904236,-0.2961167097091675,-0.6962331533432007
1780751945302765000,15.69776513671875,-0.3882809281349182,0.9197332859039307,-0.7491493225097656
1780751945351282000,15.746281982421875,-1.0240384340286255,-0.43142324686050415,-1.803883671760559
1780751945399798800,15.794798828125,-0.3771326541900635,-0.6147590279579163,-0.6067414283752441
1780751945448315600,15.843315673828124,0.2735147178173065,0.3016144931316376,-0.27229297161102295
1780751945496832300,15.891832275390625,0.7786998748779297,0.7452550530433655,-0.3765217661857605
1780751945545348900,15.940348876953125,0.5738310813903809,2.536921501159668,-0.8135191798210144
1780751945593865700,15.98886572265625,0.9281326532363892,0.9002619981765747,-0.9476803541183472
1780751945642382600,16.037382568359376,0.5253437161445618,0.494647741317749,-0.818711519241333
1780751945690899500,16.0858994140625,-0.49823659658432007,1.2945752143859863,-0.58749920129776
1780751945739416000,16.134416015625,0.7582359313964844,-0.9753983616828918,-0.1533270627260208
1780751945787933000,16.182932861328126,0.6046034097671509,0.4427242577075958,0.7060069441795349
1780751945836449500,16.231449462890627,0.6998983025550842,1.0301470756530762,2.9634578227996826
1780751945884966400,16.27996630859375,0.8266527652740479,-0.8219949007034302,3.0140068531036377
1780751945933483000,16.32848291015625,0.08674279600381851,-1.0349576473236084,1.236772060394287
1780751945981999900,16.376999755859377,-1.2478439807891846,-1.3055707216262817,-0.8605557680130005
1780751946030516500,16.4255166015625,-1.132925033569336,-2.069380760192871,-0.537790060043335
1780751946079033300,16.474033447265626,-0.2966512143611908,-1.0708459615707397,0.16210824251174927
1780751946127550200,16.52255029296875,0.5697841048240662,-1.1254420280456543,-0.00511599238961935
1780751946224583700,16.619583740234376,-0.648127555847168,0.4082103967666626,0.26221370697021484
1780751946273100500,16.6681005859375,0.15676318109035492,0.15699224174022675,-0.9702059626579285
1780751946321617200,16.7166171875,-0.9121738076210022,-0.11239911615848541,-1.6655992269515991
1780751946370134000,16.765134033203125,-0.9547816514968872,0.39851289987564087,-1.4162136316299438
1780751946418650600,16.813650634765626,0.2086866796016693,-0.18547381460666656,-0.2946659028530121
1780751946467167500,16.86216748046875,0.6565269231796265,0.5908589363098145,-0.11461350321769714
1780751946515684400,16.910684326171875,0.39278605580329895,1.5819107294082642,-0.12240202724933624
1780751946564201000,16.959200927734376,0.6057487726211548,2.1426844596862793,-1.2762492895126343
1780751946612717600,17.007717529296876,0.8064942359924316,0.6549997329711914,-1.1672098636627197
1780751946661234400,17.056234375,0.44470956921577454,0.6723330616950989,-0.9896009564399719
1780751946709751300,17.104751220703125,-0.32902705669403076,0.8749874234199524,-0.5479456782341003
1780751946758268000,17.153267822265626,0.4696022868156433,-0.7252492308616638,0.1262962967157364
1780751946806784500,17.201784423828126,0.31291547417640686,0.648967444896698,1.2063052654266357
1780751946855301400,17.25030126953125,0.8445969223976135,-1.032208800315857,3.1009786128997803
1780751946903818200,17.298818359375,0.6414080262184143,-1.050840139389038,2.7834818363189697
1780751946952334800,17.3473349609375,-0.16592614352703094,-1.753640055656433,0.3029889166355133
1780751947000851700,17.395851806640625,-1.4204896688461304,-1.6088651418685913,-0.8134428262710571
1780751947049368300,17.444368408203125,-1.1048252582550049,-1.2286018133163452,0.1081230640411377
1780751947097885200,17.49288525390625,0.1637117564678192,-1.6460515260696411,0.5943714380264282
1780751947146401800,17.54140185546875,0.5536725521087646,-1.5974113941192627,0.14744748175144196
1780751947194918700,17.589918701171875,0.02588539570569992,-0.618806004524231,0.02000582218170166
1780751947243435300,17.638435302734376,-0.4450913369655609,-0.21609342098236084,-0.5043452382087708
1780751947291952000,17.6869521484375,0.5093085169792175,0.13698641955852509,-0.7798452377319336
1780751947340469000,17.735468994140625,-0.9225585460662842,-0.4314996004104614,-1.1866811513900757
1780751947388985600,17.783985595703125,-0.840320885181427,-0.2162461280822754,-1.5860340595245361
1780751947437502200,17.832502197265626,0.3782780170440674,-0.18310672044754028,-0.5435169339179993
1780751947486019000,17.88101904296875,0.7346412539482117,0.5166388750076294,0.15470150113105774
1780751947534536000,17.929535888671875,0.28466299176216125,1.4119375944137573,0.2741255760192871
1780751947583052500,17.978052490234376,0.38530296087265015,2.3558764457702637,-1.5337287187576294
1780751947631569200,18.026569091796876,0.7005091905593872,0.6133082509040833,-0.8260418772697449
1780751947680086000,18.0750859375,0.3142135739326477,0.17898337543010712,-0.8749874234199524
1780751947777119500,18.172119384765626,0.6348412036895752,-0.977154552936554,0.43371400237083435
1780751947825636000,18.220635986328126,0.521831214427948,-0.328645259141922,2.4310126304626465
1780751947874153000,18.269153076171875,0.32391104102134705,0.09361502528190613,2.269209861755371
1780751947922669800,18.317669921875,0.732655942440033,-1.6803362369537354,2.1791837215423584
1780751947971186400,18.3661865234375,-0.5703186392784119,-0.6866120100021362,0.20303617417812347
1780751948019703000,18.414703125,-1.2543344497680664,-1.4110976457595825,-0.2744309902191162
1780751948068220000,18.463219970703125,-0.5652790069580078,-1.4362958669662476,0.3040579557418823
1780751948116736800,18.51173681640625,0.26595523953437805,-1.0067051649093628,0.18409937620162964
1780751948165253400,18.56025341796875,0.720820426940918,-1.081230640411377,0.44066259264945984
1780751948213770000,18.60877001953125,0.27695080637931824,-0.224569171667099,0.14683662354946136
1780751948262286800,18.657286865234376,-0.03581194952130318,-0.42050403356552124,-0.17302745580673218
1780751948310803500,18.705803466796876,0.0907897800207138,0.7035635113716125,-0.05742128938436508
1780751948359320300,18.7543203125,-0.8210022449493408,0.13927717506885529,-1.5921427011489868
1780751948407837000,18.8028369140625,-0.053603384643793106,1.1220059394836426,-0.7150935530662537
1780751948456353800,18.851353759765626,0.26916229724884033,1.6869794130325317,-0.26648977398872375
1780751948504870400,18.899870361328126,0.46975502371788025,2.455676317214966,-1.2875502109527588
1780751948553387300,18.94838720703125,0.5065596103668213,3.3828163146972656,-0.8910226225852966
1780751948601903900,18.99690380859375,0.9391282200813293,2.7093379497528076,-0.6338485479354858
1780751948650420700,19.045420654296876,0.7057778835296631,2.7420191764831543,-0.8041270971298218
1780751948698937300,19.093937255859377,0.5524508357048035,2.4340670108795166,-0.7832813858985901
1780751948747454200,19.1424541015625,0.03787361457943916,1.4039963483810425,-0.3704131245613098
1780751948795970800,19.190970703125,0.831997811794281,-0.4176788032054901,0.18570289015769958
1780751948844487400,19.2394873046875,0.5864301919937134,1.1293362379074097,0.9694424271583557
1780751948893004300,19.28800439453125,0.7020363211631775,1.0080796480178833,2.3994767665863037
1780751948941521000,19.33652099609375,0.7059305906295776,-0.18570289015769958,2.2960116863250732
1780751948990037800,19.385037841796876,-0.25060728192329407,1.3113739490509033,0.8321505188941956
1780751949038554400,19.433554443359377,-1.2793035507202148,1.3303108215332031,-0.5646681189537048
1780751949087071000,19.482071044921874,-0.830547034740448,0.6656898856163025,0.4430296719074249
1780751949135587800,19.530587890625,-0.10529781877994537,-0.04558578506112099,0.19730933010578156
1780751949184104700,19.579104736328127,0.2942841053009033,0.10583232343196869,-0.22159120440483093
1780751949232621300,19.627621337890623,0.6308705806732178,-0.1308777779340744,-0.06123919412493706
1780751949281138000,19.676137939453124,-0.3197113573551178,0.6259836554527283,0.33192864060401917
1780751949378171600,19.773171630859373,-0.12133301794528961,1.1467459201812744,-0.771064043045044
1780751949426688300,19.821688232421874,-0.856279730796814,1.109101414680481,-1.4903573989868164
1780751949475204900,19.870204833984374,-0.2883281707763672,1.411250352859497,-1.0751219987869263
1780751949523721500,19.918721435546875,0.23861905932426453,1.5812997817993164,-0.12560907006263733
1780751949572238000,19.967238037109375,0.5621483325958252,2.7833290100097656,-0.4631882309913635
1780751949620755000,20.0157548828125,0.5590940117835999,3.4094653129577637,-0.39767298102378845
1780751949669271800,20.064271728515624,0.7954986691474915,2.455294609069824,-0.4388299882411957
1780751949717788400,20.112788330078125,0.4866301417350769,2.176663875579834,-0.6185769438743591
1780751949766305000,20.161304931640625,0.2677878439426422,1.8278601169586182,-0.3661370873451233
1780751949814822000,20.20982177734375,-0.05024362727999687,0.9117920398712158,-0.5579485893249512
1780751949863338500,20.25833837890625,0.2701549530029297,0.4111120104789734,-0.152487114071846
1780751949911855000,20.306855224609375,0.2934441566467285,0.47586366534233093,0.24106250703334808
1780751949960372000,20.3553720703125,0.18616104125976562,0.6902772188186646,1.8531346321105957
1780751950008888800,20.403888916015624,0.4107302129268646,0.3753000497817993,2.6177847385406494
1780751950057405400,20.452405517578125,0.33658650517463684,-0.7224239706993103,1.9985204935073853
1780751950105922000,20.500922119140625,-0.9020181894302368,-0.39805474877357483,-0.7738129496574402
1780751950154438700,20.549438720703126,-1.6274964809417725,-0.4410443603992462,-0.5489383339881897
1780751950202955300,20.597955322265626,-0.605519711971283,-1.1072688102722168,0.794124186038971
1780751950251472100,20.64647216796875,0.2075413018465042,-1.326034665107727,0.40110909938812256
1780751950299989000,20.694989013671876,0.4341721534729004,-0.9806670546531677,-0.060322895646095276
1780751950348505600,20.743505615234376,-0.07406735420227051,0.21991132199764252,-0.053603384643793106
1780751950397022200,20.792022216796877,-0.33742642402648926,0.016340631991624832,-0.3202458620071411
1780751950445539000,20.8405390625,-0.28848087787628174,0.6299542784690857,-1.0533599853515625
1780751950494055700,20.8890556640625,-0.7192169427871704,-0.05696314200758934,-1.8590142726898193
1780751950542572300,20.937572265625,-0.28954991698265076,0.19960007071495056,-0.9353867173194885
1780751950591089000,20.9860888671875,0.27855435013771057,0.7912989854812622,-0.3765217661857605
1780751950639605800,21.034605712890624,0.7321978211402893,1.08573579788208,-0.4552469849586487
1780751950688122600,21.08312255859375,0.5554288029670715,2.1025965213775635,-0.31719154119491577
1780751950736639200,21.13163916015625,0.6864593029022217,1.715766429901123,-0.7405971884727478
1780751950785155800,21.18015576171875,0.5579485893249512,0.8788053393363953,-0.7623592615127563
1780751950833672700,21.228672607421874,-0.20624321699142456,1.6000839471817017,-0.4828122556209564
1780751950930706000,21.325705810546875,0.7948877811431885,-0.6876810193061829,0.5021308660507202
1780751950979222500,21.374222412109376,0.46685341000556946,1.2142465114593506,1.8934516906738281
1780751951027739100,21.4227392578125,0.9818124175071716,-0.12438733875751495,2.9555165767669678
1780751951076256000,21.471256103515625,0.34406960010528564,-0.845894992351532,2.2563817501068115
1780751951124772900,21.51977294921875,-0.640415370464325,-0.6249146461486816,-0.5151880979537964
1780751951173289500,21.56828955078125,-1.388724684715271,-1.307403326034546,-0.7265473008155823
1780751951221806000,21.61680615234375,-0.8727730512619019,-1.383150577545166,0.03283398225903511
1780751951270323000,21.665322998046875,0.09384410083293915,-0.9621120095252991,0.2856556475162506
1780751951318839600,21.713839599609376,0.5404626131057739,-1.2856413125991821,-0.0902552679181099
1780751951367356200,21.762356201171876,0.003665188793092966,-0.09346231073141098,0.26022839546203613
1780751951415872800,21.810872802734377,-0.4647153913974762,-0.3355938494205475,-0.607581377029419
1780751951464389600,21.8593896484375,-0.23945899307727814,0.3121519088745117,-1.2986985445022583
1780751951512906200,21.90790625,-0.8168789148330688,0.30077454447746277,-1.779601812362671
1780751951561422800,21.9564228515625,-0.17424917221069336,0.046883873641490936,-0.863381028175354
1780751951609939700,22.004939697265623,0.4143190383911133,0.7998510599136353,-0.27840161323547363
1780751951658456300,22.053456298828124,0.7218130826950073,1.2946515083312988,-0.13484840095043182
1780751951706973200,22.10197314453125,0.4180605709552765,2.73850679397583,-0.5581777095794678
1780751951755489800,22.15048974609375,0.6953932046890259,1.424765706062317,-0.779692530632019
1780751951804006400,22.19900634765625,0.5677224397659302,0.7292198538780212,-0.8969785571098328
1780751951852523000,22.24752294921875,-0.30077454447746277,1.4261401891708374,-0.7476984858512878
1780751951901039900,22.296039794921874,0.3846157491207123,-0.34720027446746826,-0.2626718580722809
1780751951949556500,22.344556396484375,0.6114756464958191,-0.22586725652217865,0.6223185062408447
1780751951998073000,22.393072998046875,0.690048098564148,0.575663685798645,2.615112066268921
1780751952046589700,22.441589599609376,0.9430224895477295,-0.742429792881012,3.101971387863159
1780751952095106600,22.4901064453125,0.14798198640346527,-1.0270928144454956,1.3782637119293213
1780751952143623200,22.538623046875,-1.0423643589019775,-1.461188554763794,-0.9546289443969727
1780751952192139800,22.587139892578126,-1.3767365217208862,-1.6721659898757935,-0.45654505491256714
1780751952240656400,22.635656494140626,-0.4793761372566223,-1.0926079750061035,0.6045270562171936
1780751952289173000,22.684173095703127,0.430659681558609,-1.0804671049118042,0.09330959618091583
1780751952337689900,22.73268994140625,0.5946004986763,-1.1638500690460205,-0.2228129357099533
1780751952386206500,22.78120654296875,-0.46975502371788025,0.504421591758728,0.2328922003507614
1780751952434723000,22.82972314453125,-0.13477204740047455,0.152487114071846,-0.8582650423049927
1780751952531756800,22.9267568359375,-0.5503891706466675,0.22235478460788727,-1.392924427986145
1780751952580273400,22.9752734375,0.010613775812089443,0.08529199659824371,-0.6042979955673218
1780751952628790000,23.0237900390625,0.7202095985412598,0.8623883724212646,-0.39912378787994385
1780751952677306600,23.072306640625,0.6609556674957275,1.4155263900756836,0.19074252247810364
1780751952725823500,23.120823486328124,0.3801869750022888,2.3396120071411133,-0.668515145778656
1780751952774340000,23.169340087890625,0.5203040838241577,0.7567087411880493,-1.1671335697174072
1780751952822856700,23.217856689453125,0.18341214954853058,0.8879683017730713,-1.1614830493927002
1780751952871373300,23.266373291015626,-0.24495677649974823,0.7324268817901611,-0.4656316637992859
1780751952919890000,23.314889892578126,0.7548761367797852,-0.8743002414703369,0.1824958473443985
1780751952968406800,23.36340673828125,0.40462157130241394,0.8328377604484558,1.5056289434432983
1780751953016923400,23.41192333984375,0.8856012225151062,0.05146535858511925,3.481776475906372
1780751953065440000,23.46043994140625,0.7820596098899841,-1.1952333450317383,2.995222806930542
1780751953113956600,23.50895654296875,-0.29245150089263916,-1.169653296470642,0.1724165827035904
1780751953162473500,23.557473388671873,-1.216689944267273,-2.2064435482025146,-1.262810230255127
1780751953210990000,23.605989990234374,-0.6387354731559753,-1.920940637588501,-0.20624321699142456
1780751953259506700,23.654506591796874,-0.007941242307424545,-1.2582287788391113,0.42012226581573486
1780751953308023300,23.703023193359375,0.42600181698799133,-1.4223222732543945,-0.059024810791015625
1780751953356540000,23.751539794921875,0.23518294095993042,-0.2940550446510315,0.1450040340423584
1780751953405056800,23.800056884765624,-0.3534616231918335,0.11591159552335739,-0.6562215089797974
1780751953453573400,23.848573486328124,-0.15958842635154724,0.48220139741897583,-0.836121141910553
1780751953502090000,23.897090087890625,-0.8578068614006042,0.2594648003578186,-1.945833444595337
1780751953550606600,23.945606689453125,-0.1003345400094986,-0.0899498388171196,-1.0932189226150513
1780751953599123500,23.99412353515625,0.31230461597442627,-0.0030543238390237093,-0.6334667801856995
1780751953647640000,24.04264013671875,0.9305761456489563,0.5529853701591492,-0.25007277727127075
1780751953696156700,24.09115673828125,0.44127345085144043,2.198349714279175,-0.18432845175266266
1780751953744673300,24.13967333984375,0.7309760451316833,1.1168135404586792,-0.3952295184135437
1780751953793190100,24.188190185546876,0.258395791053772,0.737695574760437,-0.5169443488121033
1780751953841706800,24.236706787109377,-0.2835939824581146,1.580078125,-0.9093486070632935
1780751953890223400,24.285223388671874,0.06230820715427399,-0.28664830327033997,-0.7689260244369507
1780751953938740000,24.333739990234374,0.5886445641517639,-0.7143300175666809,0.3876700699329376
1780751953987256600,24.382256591796875,0.39629852771759033,1.023962140083313,1.9349905252456665
1780751954084289800,24.479289794921876,0.32910341024398804,-0.7321978211402893,2.2423319816589355
1780751954132806400,24.527806396484376,-0.5538252592086792,-0.9683734178543091,-0.40660688281059265
1780751954181323000,24.576322998046876,-1.3498584032058716,-1.781129002571106,-0.5188532471656799
1780751954229840000,24.62483984375,-0.7096721529960632,-1.7892229557037354,0.036193739622831345
1780751954278356500,24.6733564453125,0.19135339558124542,-0.9063706398010254,0.3298669755458832
1780751954326873000,24.721873046875,0.6348412036895752,-1.373453140258789,-0.0720820426940918
1780751954375389700,24.7703896484375,-0.02611446939408779,-0.04321868345141411,0.42859798669815063
1780751954423906600,24.818906494140624,-0.23617559671401978,-0.28244858980178833,-0.8448259830474854
1780751954472423200,24.867423095703124,-0.3640754222869873,0.23564109206199646,-1.035415768623352
1780751954520939800,24.915939697265625,-0.9589049816131592,0.09346231073141098,-1.744782567024231
1780751954569456400,24.964456298828125,-0.2240346521139145,-0.268627792596817,-1.0109812021255493
1780751954617973000,25.012972900390626,0.48792824149131775,0.575663685798645,-0.3474293351173401
1780751954666489900,25.06148974609375,0.9036217331886292,1.0261001586914062,0.05803215503692627
1780751954715006500,25.11000634765625,0.5740602016448975,2.5684573650360107,-0.25557056069374084
1780751954763523000,25.158523193359375,0.7342594861984253,1.3791799545288086,-0.6010909676551819
1780751954812039700,25.207039794921876,0.3972911834716797,0.9628756046295166,-1.1464405059814453
1780751954860556500,25.255556640625,-0.40546149015426636,1.5591559410095215,-0.8908699154853821
1780751954909073200,25.3040732421875,0.2531270980834961,-0.14660754799842834,-0.2618319094181061
1780751954957589500,25.352589599609374,0.8452077507972717,-0.727921724319458,0.4082103967666626
1780751955006106000,25.401106201171874,0.4779253304004669,0.6236929297447205,2.0252459049224854
1780751955054622700,25.449622802734375,1.036866545677185,-0.8101593852043152,3.0217952728271484
1780751955103139600,25.4981396484375,0.3930151164531708,-0.9486730098724365,2.1675772666931152
1780751955151656200,25.54665625,-0.6858484148979187,-1.5975641012191772,-0.39622217416763306
1780751955200172800,25.5951728515625,-1.563584804534912,-1.7823506593704224,-0.7016545534133911
1780751955248689400,25.643689453125,-0.7478511929512024,-1.512882947921753,0.2121991515159607
1780751955297206300,25.692206298828125,0.22991423308849335,-1.0894010066986084,0.43027788400650024
1780751955345723000,25.740722900390626,0.63568115234375,-1.296484112739563,-0.08659008145332336
1780751955394239500,25.789239501953126,0.04016435891389847,0.011224640533328056,0.08651372790336609
1780751955442756600,25.837756591796875,-0.17592905461788177,-0.05826122686266899,-0.8984293937683105
1780751955491273200,25.886273193359376,-0.24144430458545685,0.21181736886501312,-1.0877974033355713
1780751955539789800,25.934789794921876,-0.7949641346931458,0.35445427894592285,-1.7126357555389404
1780751955588306400,25.983306396484377,-0.2121991515159607,-0.24266603589057922,-0.8410080671310425
1780751955685339600,26.080339599609374,1.007086992263794,1.1209368705749512,-0.18677189946174622
1780751955733856500,26.1288564453125,0.5734493136405945,2.576474905014038,-0.5493965148925781
1780751955782373000,26.177373046875,0.7918334603309631,1.1248310804367065,-0.6375137567520142
1780751955830889700,26.2258896484375,0.2003636509180069,1.0914626121520996,-0.800385594367981
1780751955879406300,26.27440625,-0.41187557578086853,1.1074978113174438,-0.6548470258712769
1780751955927923200,26.322923095703125,0.5729911923408508,-1.2011892795562744,-0.10079269111156464
1780751955976439600,26.371439453125,0.4796815812587738,0.08063415437936783,0.5441278219223022
1780751956024956200,26.4199560546875,0.5066359639167786,0.194025918841362,2.6723806858062744
1780751956073472800,26.46847265625,0.9413426518440247,-1.1643083095550537,2.987968683242798
1780751956121989400,26.5169892578125,0.05604684352874756,-0.9315688014030457,1.96148681640625
1780751956170506200,26.56550634765625,-1.0859649181365967,-1.4553090333938599,-1.0845140218734741
1780751956219022800,26.61402294921875,-1.2689188718795776,-1.4625630378723145,-0.575663685798645
1780751956267539500,26.66253955078125,-0.4557051360607147,-1.2124139070510864,0.4631882309913635
1780751956316056000,26.71105615234375,0.48304131627082825,-1.1604903936386108,-0.10041090101003647
1780751956364572700,26.75957275390625,0.44119709730148315,-0.825507402420044,-0.08903354406356812
1780751956413089300,26.80808935546875,-0.657290518283844,0.4416552484035492,0.15806126594543457
1780751956461606000,26.85660595703125,-0.05826122686266899,0.3441459536552429,-0.9958623051643372
1780751956510122500,26.90512255859375,-0.9332486391067505,0.2787070572376251,-1.8696280717849731
1780751956558639000,26.95363916015625,-0.4774671792984009,0.5898662805557251,-1.2384519577026367
1780751956607156000,27.002156005859376,0.23907721042633057,0.4912880063056946,-0.7703005075454712
1780751956655672600,27.050672607421873,0.8676570653915405,0.901789128780365,-0.5719221234321594
1780751956704189200,27.099189208984374,0.7392991185188293,1.6656755208969116,-0.053756099194288254
1780751956752705500,27.14770556640625,0.8052725195884705,1.6224569082260132,-0.3362047076225281
1780751956801222400,27.196222412109375,0.737084686756134,0.5094612240791321,-0.5923861265182495
1780751956849739000,27.244739013671875,-0.2712239623069763,1.4801253080368042,-0.975703775882721
1780751956898255600,27.293255615234376,-0.48159050941467285,0.49273881316185,-0.7259364128112793
1780751956946772200,27.341772216796876,0.7738129496574402,-1.1864521503448486,0.21097742021083832
1780751956995288800,27.390288818359377,0.3424660563468933,0.873994767665863,1.1470513343811035
1780751957043805400,27.438805419921874,1.0172425508499146,-0.7163153290748596,3.265683174133301
1780751957092322000,27.487322021484374,0.6091849207878113,-1.4135410785675049,2.977965831756592
1780751957189355300,27.584355224609375,-1.4359140396118164,-1.9678245782852173,-0.8703296184539795
1780751957237872000,27.6328720703125,-0.8316160440444946,-1.8957425355911255,-0.29856017231941223
1780751957286388700,27.681388671875,0.03527744114398956,-1.2282963991165161,0.5116755962371826
1780751957334905000,27.729905029296877,0.5843685269355774,-1.156596064567566,-0.09735657274723053
1780751957383421700,27.778421630859373,0.3313177824020386,-0.49663305282592773,-0.11568251997232437
1780751957431938600,27.8269384765625,-0.366060733795166,-0.1513417512178421,-0.44791659712791443
1780751957480455200,27.875455078125,-0.10140355676412582,0.4335612654685974,-0.718224287033081
1780751957528971800,27.9239716796875,-0.9159153699874878,0.13820815086364746,-1.9104032516479492
1780751957577488100,27.972488037109375,-0.29764387011528015,-0.09361502528190613,-0.9924262166023254
1780751957626004700,28.021004638671876,0.4541015923023224,0.30970844626426697,-0.4214966893196106
1780751957674521600,28.069521484375,0.9466113448143005,0.7784708142280579,0.007483093533664942
1780751957723038200,28.1180380859375,0.5080104470252991,2.1897974014282227,0.0345902182161808
1780751957771554800,28.166554931640626,0.6772199869155884,1.4646246433258057,-0.8619301915168762
1780751957820071400,28.215071533203126,0.5946004986763,0.43516480922698975,-1.0963495969772339
1780751957868588000,28.263588134765627,-0.36247187852859497,1.3402373790740967,-0.633619487285614
1780751957917104600,28.312104736328124,0.0639880821108818,-0.18776455521583557,-0.23518294095993042
1780751957965621200,28.360621337890624,0.7060069441795349,-0.6868410706520081,0.36453354358673096
1780751958014137900,28.409137939453124,0.5169443488121033,0.9997565746307373,2.1268022060394287
1780751958062654500,28.457654541015625,0.9942587614059448,-1.2524255514144897,3.5660758018493652
1780751958111171000,28.506171142578125,0.1455385386943817,-0.4601338803768158,1.9830198287963867
1780751958159687700,28.554687744140626,-0.8800270557403564,-1.8291581869125366,-1.3255765438079834
1780751958208204300,28.603204345703126,-1.450345754623413,-1.5296053886413574,-0.7515164017677307
1780751958256721000,28.651720947265623,-0.53221595287323,-1.0912336111068726,0.5737547278404236
1780751958305237500,28.700237548828124,0.3667479455471039,-1.0164790153503418,0.3413206934928894
1780751958353754000,28.748754150390624,0.6703477501869202,-1.4249948263168335,-0.18203771114349365
1780751958402270700,28.797270751953125,-0.3029889166355133,0.2961167097091675,-0.06765327602624893
1780751958450787300,28.845787353515625,-0.17486004531383514,0.07185296714305878,-0.7002801299095154
1780751958499304000,28.894303955078126,-0.5729911923408508,0.36858054995536804,-1.1883610486984253
1780751958547820500,28.942820556640626,-0.9087377190589905,0.40057456493377686,-1.6934698820114136
1780751958596337200,28.991337158203127,-0.04825831577181816,-0.21670427918434143,-0.49273881316185
1780751958644853800,29.039853759765624,0.5878046154975891,0.37896522879600525,-0.4373791813850403
1780751958693370400,29.088370361328124,0.7609847784042358,1.098105788230896,-0.09980003535747528
1780751958741887000,29.136886962890625,0.4705185890197754,2.4065780639648438,-0.34147340059280396
1780751958838920200,29.233920166015626,0.41844236850738525,0.4631882309913635,-1.1260528564453125
1780751958887436800,29.282436767578126,-0.5007563829421997,1.4564543962478638,-0.726470947265625
1780751958935953700,29.33095361328125,0.2606101930141449,-0.5534434914588928,-0.14943279325962067
1780751958984470000,29.379469970703123,0.7232639193534851,-0.6223185062408447,0.6988292932510376
1780751959032986600,29.427986572265624,0.5041161775588989,0.753043532371521,2.4631595611572266
1780751959081503200,29.476503173828124,1.0918444395065308,-0.9045380353927612,3.1665701866149902
1780751959130019800,29.525019775390625,0.277332603931427,-1.201570987701416,2.2569925785064697
1780751959178536400,29.573536376953125,-0.9625701904296875,-1.8008294105529785,-0.8291725516319275
1780751959227053000,29.622052978515626,-1.2048543691635132,-1.7490586042404175,-0.8471167087554932
1780751959275569700,29.670569580078126,-0.49808385968208313,-1.5679371356964111,0.15347976982593536
1780751959324086300,29.719086181640623,0.39477136731147766,-1.3629920482635498,0.0746782198548317
1780751959372603000,29.767602783203124,0.60490882396698,-1.2398264408111572,-0.31925320625305176
1780751959421119500,29.816119384765624,-0.2502254843711853,0.4479929506778717,-0.1352301836013794
1780751959469636000,29.864635986328125,0.0922405794262886,0.009926552884280682,-0.656679630279541
1780751959518152700,29.913152587890625,-0.5770381689071655,0.6263654828071594,-0.9053016304969788
1780751959566669300,29.96166943359375,-0.6249146461486816,0.47059494256973267,-1.6119194030761719
1780751959615186000,30.01018603515625,-0.040775224566459656,0.049709122627973557,-0.48296496272087097
1780751959663702500,30.05870263671875,0.6233111619949341,0.7539598345756531,-0.6405680775642395
1780751959712219100,30.10721923828125,0.6346884965896606,1.7865504026412964,-0.24717116355895996
1780751959760735700,30.15573583984375,0.5000692009925842,2.4543020725250244,-0.6809614896774292
1780751959809252400,30.20425244140625,0.773202121257782,0.813060998916626,-0.6424770355224609
1780751959857769000,30.25276904296875,0.22036947309970856,1.1737003326416016,-0.7028762698173523
1780751959906285600,30.30128564453125,-0.3343721032142639,0.7216603755950928,-0.5306887626647949
1780751959954802200,30.34980224609375,0.6417897939682007,-1.197524070739746,0.05940660089254379
1780751960003318500,30.398318603515627,0.5404626131057739,0.21914774179458618,1.0612248182296753
1780751960051835400,30.44683544921875,0.6870701313018799,0.33681556582450867,2.9587998390197754
1780751960100352000,30.49535205078125,0.7321978211402893,-1.2241730690002441,3.1573309898376465
1780751960148868400,30.543868408203124,-0.08040507882833481,-1.1187224388122559,0.9624938368797302
1780751960197385000,30.592385009765625,-1.4592032432556152,-1.5460987091064453,-1.1042144298553467
1780751960245901800,30.64090185546875,-1.1199442148208618,-1.6638429164886475,-0.5198459029197693
1780751960294418400,30.68941845703125,-0.2864955961704254,-0.938746452331543,0.289168119430542
1780751960391451400,30.786451416015623,0.7715222239494324,-0.697760283946991,-0.07070759683847427
1780751960439968300,30.83496826171875,-0.6491202116012573,0.664391815662384,-0.2796233594417572
1780751960488484900,30.88348486328125,-0.006108647678047419,0.6739365458488464,-0.9543998837471008
1780751960537001200,30.932001220703125,-0.5845975875854492,0.2813795804977417,-1.6670500040054321
1780751960585517800,30.980517822265625,-0.2964221239089966,0.48181959986686707,-1.3679553270339966
1780751960634034400,31.029034423828126,-0.05543597787618637,0.23602287471294403,-0.2987128794193268
1780751960682551000,31.077551025390626,0.9216422438621521,0.8229875564575195,-0.20357069373130798
1780751960731067600,31.126067626953127,0.5027416944503784,1.6336051225662231,0.20937390625476837
1780751960779584300,31.174584228515624,0.31520622968673706,2.072816848754883,-0.5302306413650513
1780751960828100600,31.2231005859375,0.5090794563293457,1.0917680263519287,-1.1354448795318604
1780751960876617500,31.271617431640625,0.2067013680934906,1.3056471347808838,-1.1308634281158447
1780751960925134000,31.320134033203125,-0.17027856409549713,0.5231293439865112,-0.5138899683952332
1780751960973650700,31.368650634765626,0.6684387922286987,-0.9165262579917908,0.2857320010662079
1780751961022167300,31.417167236328126,0.4970912039279938,0.28176137804985046,0.8891900181770325
1780751961070683600,31.46568359375,0.586888313293457,-0.21685700118541718,2.8751113414764404
1780751961119200500,31.514200439453123,0.7506000995635986,-1.3258056640625,3.3006551265716553
1780751961167716900,31.562716796875,-0.08139773458242416,-1.1220059394836426,0.38301220536231995
1780751961216233500,31.6112333984375,-1.2801434993743896,-1.627725601196289,-1.2780818939208984
1780751961264750000,31.65975,-1.1335359811782837,-1.962937593460083,-0.4004982113838196
1780751961313266700,31.7082666015625,-0.29100072383880615,-1.217071771621704,0.535728394985199
1780751961361783300,31.756783203125,0.39072439074516296,-0.7774781584739685,0.36506807804107666
1780751961410300000,31.8052998046875,0.5280162692070007,-0.9734894037246704,-0.11827868968248367
1780751961458816500,31.85381640625,-0.6359102129936218,0.7334958910942078,-0.1989128440618515
1780751961507333000,31.9023330078125,0.07742711156606674,0.27809619903564453,-0.9969313144683838
1780751961555849700,31.950849609375,-0.86544269323349,0.1323285847902298,-1.7931171655654907
1780751961604366300,31.999366455078125,-0.6478984355926514,0.1101083755493164,-1.5255584716796875
1780751961652883000,32.04788305664062,-0.023823726922273636,-0.2698495090007782,-0.2977202236652374
1780751961701399300,32.0963994140625,0.7517454624176025,0.49220430850982666,-0.3572031855583191
1780751961749916200,32.14491625976562,0.6638572812080383,1.4644719362258911,-0.13072505593299866
1780751961798432800,32.19343286132813,0.708984911441803,1.8181626796722412,-0.6053670048713684
1780751961895465700,32.2904658203125,0.09101885557174683,0.9158390164375305,-0.9126319885253906
1780751961943982300,32.338982421875,-0.5005273222923279,0.6856193542480469,-0.49480047821998596
1780751961992499000,32.3874990234375,0.7176133990287781,-1.262810230255127,0.0576503649353981
1780751962041015600,32.436015625,0.34895649552345276,0.3127627670764923,0.9395100474357605
1780751962089532200,32.4845322265625,0.7357102632522583,-0.3526217043399811,2.651763916015625
1780751962138048500,32.533048583984375,0.7143300175666809,-1.7291290760040283,2.826853036880493
1780751962186565400,32.5815654296875,-0.27107125520706177,-1.0180824995040894,0.7799215912818909
1780751962235082000,32.63008203125,-1.247767686843872,-1.7289763689041138,-0.920115053653717
1780751962283598300,32.67859838867187,-1.162246584892273,-1.5941280126571655,-0.32009315490722656
1780751962332115000,32.72711499023438,-0.22036947309970856,-0.7547997832298279,0.754570722579956
1780751962380631600,32.77563159179687,0.5471057891845703,-0.861319363117218,0.42959064245224
1780751962429148200,32.82414819335938,0.471587598323822,-0.5056433081626892,-0.16959133744239807
1780751962477664800,32.872664794921874,-0.4802924394607544,0.2779434621334076,-0.32910341024398804
1780751962526181400,32.92118139648438,0.030390523374080658,0.47929978370666504,-0.6931788325309753
1780751962574698000,32.969697998046875,-0.8953750729560852,0.07376192510128021,-1.7553962469100952
1780751962623214600,33.01821459960937,-0.35269805788993835,0.2993237376213074,-1.2618175745010376
1780751962671731200,33.066731201171876,0.08368847519159317,0.3216966688632965,-0.6734020709991455
1780751962720247600,33.11524755859375,0.7463240623474121,0.9142354726791382,-0.4724275469779968
1780751962768764200,33.16376416015625,0.4408152997493744,2.237597703933716,0.046807512640953064
1780751962817280800,33.21228076171875,0.7900772094726562,2.1089344024658203,-0.6136900186538696
1780751962865797400,33.26079736328125,0.8513164520263672,0.820773184299469,-0.6299542784690857
1780751962914314000,33.30931396484375,0.009773836471140385,1.5257874727249146,-0.8365029692649841
1780751962962830600,33.35783056640625,-0.18669554591178894,0.5970439910888672,-0.58749920129776
1780751963011347000,33.406346923828124,0.8022181987762451,-1.5288418531417847,0.4702131748199463
1780751963059863800,33.45486376953125,0.4009563624858856,0.5581013560295105,1.5782455205917358
1780751963108380400,33.50338037109375,0.8906408548355103,-0.8022945523262024,2.7217843532562256
1780751963156896800,33.55189672851562,0.3819431960582733,-1.0228166580200195,1.985081434249878
1780751963205413400,33.600413330078126,-0.513584554195404,-0.7157807946205139,0.7648026943206787
1780751963253930000,33.64892993164062,-1.2286781072616577,-1.1830923557281494,-0.6165152788162231
1780751963302446600,33.69744653320313,-0.8045089244842529,-1.8070907592773438,-0.21830779314041138
1780751963350963200,33.745963134765624,-0.05474875494837761,-0.7228057384490967,0.2586248815059662
1780751963399479800,33.79447973632813,0.40401068329811096,-0.948520302772522,-0.11362084746360779
1780751963496513000,33.89151293945312,-0.3480401933193207,-0.04657844081521034,-0.763428270816803
1780751963545029400,33.940029296875,-0.3006981909275055,0.49968740344047546,-0.7359393239021301
1780751963593546000,33.9885458984375,-0.8818596601486206,0.34781113266944885,-1.9132285118103027
1780751963642062600,34.0370625,-0.19219332933425903,0.20257803797721863,-0.7876337766647339
1780751963690579000,34.08557885742187,0.3388008773326874,0.46654796600341797,-0.47357290983200073
1780751963739095800,34.134095703125,0.8197805285453796,0.9024763703346252,-0.27023130655288696
1780751963787612400,34.1826123046875,0.32910341024398804,1.9714133739471436,-0.3422369956970215
1780751963836128800,34.23112866210938,0.5690969228744507,1.2382229566574097,-0.7191405892372131
1780751963884645400,34.279645263671874,0.546953022480011,0.2903898358345032,-1.0034980773925781
1780751963933162000,34.32816186523438,-0.4240928590297699,1.3424516916275024,-0.6424006819725037
1780751963981678600,34.3766787109375,0.3375791609287262,-0.3993528485298157,-0.29275694489479065
1780751964030195200,34.4251953125,0.7318159937858582,-0.750141978263855,0.647516667842865
1780751964078711600,34.473711669921876,0.4787652790546417,0.5673406720161438,2.565173864364624
1780751964127228200,34.52222827148437,0.9405790567398071,-1.0526727437973022,3.338146924972534
1780751964175745000,34.5707451171875,0.1677587330341339,-1.1745402812957764,1.8290818929672241
1780751964224261400,34.619261474609374,-0.953559935092926,-2.2495858669281006,-1.1950042247772217
1780751964272778000,34.66777807617188,-1.3375648260116577,-1.8847469091415405,-0.6488910913467407
1780751964321294600,34.716294677734375,-0.5137372612953186,-1.1480439901351929,0.6411789655685425
1780751964369811200,34.76481127929687,0.47357290983200073,-1.2960259914398193,0.1547778695821762
1780751964418327800,34.813327880859376,0.4961749315261841,-0.927521824836731,-0.25938844680786133
1780751964466844400,34.86184448242187,-0.29443681240081787,0.41233372688293457,-0.001832594396546483
1780751964515360800,34.91036083984375,0.08040507882833481,-0.1357647031545639,-0.9107993841171265
1780751964563877400,34.95887744140625,-0.7104357481002808,0.29703301191329956,-0.9450078010559082
1780751964612394000,35.00739404296875,-0.6708822250366211,0.09552398324012756,-1.628794550895691
1780751964660910600,35.05591064453125,-0.15577052533626556,-0.2136499583721161,-0.5893318057060242
1780751964709427200,35.10442724609375,0.8884264826774597,0.8538362383842468,-0.10713040828704834
1780751964757943600,35.152943603515624,0.7175370454788208,1.6311616897583008,0.05352702736854553
1780751964806460200,35.20146020507813,0.5037343502044678,2.4329216480255127,-0.6051379442214966
1780751964854976800,35.249976806640625,0.7657953500747681,0.7002801299095154,-0.871933102607727
1780751964903493400,35.29849340820312,0.23625195026397705,0.8116865754127502,-1.0348049402236938
1780751964952010000,35.347010009765626,-0.5569559335708618,1.2176826000213623,-0.5490147471427917
1780751965000526300,35.3955263671875,0.7029526233673096,-0.9558506608009338,0.09208786487579346
1780751965097559600,35.4925595703125,0.6479747891426086,0.11873684078454971,2.691699266433716
1780751965146076200,35.541076171875,0.9608902931213379,-1.1256710290908813,2.8576254844665527
1780751965194592800,35.5895927734375,0.07819069176912308,-0.9523382186889648,1.1556034088134766
1780751965243109400,35.638109375,-1.2592214345932007,-1.5937461853027344,-1.3096940517425537
1780751965291626000,35.6866259765625,-1.268766164779663,-1.4175881147384644,-0.6235402226448059
1780751965340142300,35.73514233398438,-0.4399753510951996,-1.0003674030303955,0.44616037607192993
1780751965388659000,35.783658935546875,0.31177011132240295,-1.093677043914795,0.07589995115995407
1780751965437175600,35.83217553710937,0.6117047071456909,-0.8006146550178528,0.25243985652923584
1780751965485692200,35.880692138671876,-0.4978547990322113,0.46288278698921204,-0.15920662879943848
1780751965534208800,35.92920874023437,0.13683371245861053,-0.043982263654470444,-0.9861648082733154
1780751965582725000,35.97772509765625,-0.606436014175415,0.09300415962934494,-1.342298984527588
1780751965631241700,36.02624169921875,-0.5571087002754211,0.367511510848999,-1.4314852952957153
1780751965679758300,36.07475830078125,-0.07391463965177536,0.23625195026397705,-0.1997527778148651
1780751965728275000,36.12327490234375,0.8437569737434387,0.8439860343933105,-0.06635518372058868
1780751965776791300,36.17179125976563,0.5635991096496582,1.6124539375305176,0.01626427471637726
1780751965825308000,36.22030786132812,0.39599308371543884,2.4375030994415283,-0.9476803541183472
1780751965873824500,36.26882446289063,0.6898953914642334,0.6450732350349426,-1.1010074615478516
1780751965922341000,36.317341064453124,0.09666935354471207,0.9976949095726013,-0.8100066781044006
1780751965970857700,36.36585766601563,-0.2997818887233734,0.3016144931316376,-0.3630063831806183
1780751966019374300,36.414374267578125,0.880256175994873,-1.2820523977279663,0.492127925157547
1780751966067890700,36.462890625,0.3950004279613495,0.8400917649269104,0.9572250843048096
1780751966116407300,36.5114072265625,0.8042798638343811,-0.33399030566215515,2.380540132522583
1780751966164924000,36.559923828125,0.4874700903892517,-1.3797907829284668,2.7740895748138428
1780751966213440500,36.6084404296875,-0.6933315396308899,-0.316809743642807,0.8594867587089539
1780751966261956900,36.65695678710937,-1.3137410879135132,-1.6770528554916382,-1.3237439393997192
1780751966310473500,36.70547338867188,-0.8818596601486206,-1.5438843965530396,-0.16875138878822327
1780751966358990300,36.753990234375,0.046883873641490936,-0.6388118267059326,0.4790706932544708
1780751966407506700,36.80250659179688,0.547563910484314,-1.2496002912521362,-0.1559995859861374
1780751966456023300,36.851023193359374,0.049709122627973557,0.351705402135849,0.5694786906242371
1780751966504539600,36.89953955078125,-0.37545275688171387,-0.26427537202835083,-0.8792635202407837
1780751966553056300,36.94805615234375,-0.31497713923454285,0.4004982113838196,-1.0498474836349487
1780751966650089500,37.04508935546875,-0.19387321174144745,-0.007788525894284248,-0.812221109867096
1780751966698605800,37.09360571289063,0.39194610714912415,0.5309942364692688,-0.39018988609313965
1780751966747122400,37.142122314453125,0.9165262579917908,0.7570141553878784,-0.01206457894295454
1780751966795639000,37.19063916015625,0.4091266989707947,2.0853395462036133,-0.3199404180049896
1780751966844155600,37.23915576171875,0.7039452791213989,0.7872520089149475,-0.6886736750602722
1780751966892672000,37.28767211914062,0.40782859921455383,0.5915461778640747,-1.078558087348938
1780751966941188600,37.33618872070313,-0.605519711971283,1.2824342250823975,-0.640415370464325
1780751966989705500,37.38470556640625,0.41760244965553284,-0.5981893539428711,-0.1844811588525772
1780751967038221800,37.43322192382813,0.667064368724823,-0.17837251722812653,0.8472694754600525
1780751967086738400,37.481738525390625,0.6615665555000305,0.43165233731269836,2.776838541030884
1780751967135254800,37.5302548828125,0.9585995674133301,-1.2136355638504028,3.1962735652923584
1780751967183771400,37.578771484375,-0.12301289290189743,-0.9804379940032959,1.2360085248947144
1780751967232288000,37.6272880859375,-1.1549925804138184,-1.624442219734192,-1.1604903936386108
1780751967280804600,37.6758046875,-1.2663227319717407,-1.6125303506851196,-0.6507236957550049
1780751967329321200,37.7243212890625,-0.31520622968673706,-1.0118211507797241,0.4399753510951996
1780751967377837600,37.772837646484376,0.40149086713790894,-1.011210322380066,0.11438442766666412
1780751967426354200,37.82135424804687,0.4433351159095764,-0.6823359727859497,0.31932955980300903
1780751967474870800,37.86987084960938,-0.5420661568641663,0.41271552443504333,-0.006948587018996477
1780751967523387400,37.918387451171874,0.15370884537696838,0.05887209251523018,-1.1745402812957764
1780751967571903700,37.96690380859375,-0.747469425201416,0.10430516302585602,-1.6240603923797607
1780751967620420400,38.01542041015625,-0.5628355145454407,0.2966512143611908,-1.461188554763794
1780751967668937000,38.06393701171875,0.12018764764070511,-0.05658135190606117,-0.09819651395082474
1780751967717453600,38.11245361328125,0.6884446144104004,0.7619010806083679,-0.17486004531383514
1780751967765970000,38.16096997070313,0.7112756967544556,1.3359612226486206,-0.04108065739274025
1780751967814486500,38.209486572265625,0.5459604263305664,1.966831922531128,-0.6189587116241455
1780751967863003100,38.25800317382812,0.7389936447143555,0.40339982509613037,-0.6766854524612427
1780751967911519700,38.306519775390626,0.0631481483578682,0.8384882807731628,-0.9582177400588989
1780751967960036000,38.3550361328125,-0.597273051738739,0.7348703145980835,-0.5929206013679504
1780751968008552700,38.403552734375,0.7177661061286926,-1.1627047061920166,0.10239620506763458
1780751968057069300,38.4520693359375,0.4984656572341919,0.3975202441215515,0.7753401398658752
1780751968154102300,38.54910229492187,0.8381064534187317,-1.5261693000793457,2.7563745975494385
1780751968202619000,38.59761889648438,-0.2860374450683594,-0.5109120011329651,1.6674318313598633
1780751968251135200,38.64613525390625,-1.2178353071212769,-1.4408773183822632,-1.260443091392517
1780751968299652000,38.69465209960938,-1.1608721017837524,-1.530979871749878,-0.4384481906890869
1780751968348168700,38.743168701171875,-0.3050506114959717,-0.586048424243927,0.33315038681030273
1780751968396685000,38.79168505859375,0.5379427671432495,-0.9331722855567932,0.07284562289714813
1780751968445201700,38.84020166015625,0.42394015192985535,-0.7105884552001953,0.38850998878479004
1780751968493718300,38.88871826171875,-0.5043452382087708,0.4864010810852051,-0.033139415085315704
1780751968542234600,38.937234619140625,0.16019928455352783,0.3903425931930542,-1.3084723949432373
1780751968590751200,38.98575122070312,-0.7961859107017517,0.12446369975805283,-1.739361047744751
1780751968639267600,39.034267578125,-0.41065385937690735,0.4416552484035492,-1.26426100730896
1780751968687784200,39.0827841796875,0.03588830679655075,0.12476912885904312,-0.3280344009399414
1780751968736300800,39.13130078125,0.8378773927688599,0.6381246447563171,-0.011377356946468353
1780751968784817400,39.1798173828125,0.6110938787460327,1.7285182476043701,0.010384701192378998
1780751968833333800,39.228333740234376,0.6527853608131409,2.0520474910736084,-0.6847794055938721
1780751968881850400,39.27685034179687,0.7364738583564758,0.3436878025531769,-0.7602975964546204
1780751968930367000,39.32536694335938,-0.24572035670280457,1.1655299663543701,-0.9470694661140442
1780751968978883600,39.373883544921874,-0.22884522378444672,0.24594943225383759,-0.541378915309906
1780751969027400000,39.42239990234375,0.7035635113716125,-1.2677735090255737,0.15111267566680908
1780751969075916500,39.47091650390625,0.38301220536231995,0.7230347990989685,0.8969022035598755
1780751969124433200,39.51943310546875,0.6189587116241455,-0.5027416944503784,2.675205945968628
1780751969172949800,39.56794970703125,0.5204567909240723,-1.1861467361450195,2.82234787940979
1780751969221466000,39.61646606445313,-0.289168119430542,-0.9279035925865173,0.7441860437393188
1780751969269982700,39.664982666015625,-1.385823130607605,-1.4404191970825195,-1.092226266860962
1780751969318499300,39.71349926757812,-1.1024582386016846,-1.1292599439620972,-0.2228129357099533
1780751969367015700,39.762015625,-0.12499820441007614,-0.6560688018798828,0.33452481031417847
1780751969415532300,39.8105322265625,0.49747300148010254,-1.1255947351455688,-0.0013744457392022014
1780751969464049000,39.859048828125,0.06559160351753235,0.1089630052447319,0.6940951347351074
1780751969512565200,39.90756518554687,-0.39828383922576904,0.06146826967597008,-0.7554870247840881
1780751969561081900,39.956081787109376,0.2003636509180069,0.3231474757194519,-1.1853067874908447
1780751969609598500,40.00459838867187,-0.7771727442741394,0.11682789027690887,-1.528612732887268
1780751969658115000,40.05311499023438,-0.3678933084011078,0.12385283410549164,-0.9893718957901001
1780751969755148000,40.15014794921875,0.7935133576393127,0.5392408967018127,0.06368265300989151
1780751969803664400,40.19866430664062,0.268169641494751,1.6187916994094849,0.18753549456596375
1780751969852181200,40.24718115234375,0.37858346104621887,1.5224277973175049,-0.8164971470832825
1780751969900697600,40.295697509765624,0.44119709730148315,0.3787361681461334,-1.1824815273284912
1780751969949214200,40.34421411132813,-0.2643517255783081,0.9330195784568787,-1.030987024307251
1780751969997730600,40.39273046875,-0.15859577059745789,0.02871064469218254,-0.44577857851982117
1780751970046247200,40.4412470703125,0.8403972387313843,-1.2512037754058838,0.24327689409255981
1780751970094763800,40.489763671875,0.2997818887233734,0.7270817756652832,1.1738530397415161
1780751970143280000,40.53828002929688,0.7417425513267517,-0.5193877816200256,2.688568592071533
1780751970191796700,40.586796630859375,0.567951500415802,-1.7606650590896606,2.9439101219177246
1780751970240313300,40.63531323242187,-0.4276053309440613,-1.0748928785324097,0.4082103967666626
1780751970288830000,40.683829833984376,-1.3475676774978638,-1.6717841625213623,-1.0819942951202393
1780751970337346300,40.73234619140625,-0.9634864926338196,-1.3498584032058716,-0.1766926348209381
1780751970385863000,40.78086279296875,0.07979421317577362,-0.8669698238372803,0.5597811937332153
1780751970434379500,40.829379638671874,0.4598284661769867,-0.9592103958129883,0.06192641705274582
1780751970482896000,40.877895751953126,0.2716057598590851,-0.0642935186624527,0.5110647678375244
1780751970531412500,40.92641259765625,-0.2993237376213074,0.2542724609375,-0.7511346340179443
1780751970579928800,40.9749287109375,-0.263435423374176,0.7743474841117859,-1.0671807527542114
1780751970628445400,41.023445556640624,-0.8093958497047424,0.3324631452560425,-1.5782455205917358
1780751970676962000,41.07196215820313,-0.19104796648025513,0.18776455521583557,-0.8543707728385925
1780751970725478700,41.120478759765625,0.12400554865598679,0.08552107214927673,-0.43753188848495483
1780751970773995000,41.1689951171875,0.9214131832122803,0.9010255336761475,-0.1450040340423584
1780751970822511600,41.21751171875,0.5161807537078857,2.0722060203552246,-0.09972367435693741
1780751970871028200,41.2660283203125,0.6731730103492737,1.3626866340637207,-0.45249807834625244
1780751970919544600,41.314544677734375,0.540768027305603,0.5554288029670715,-0.910952091217041
1780751970968061200,41.36306127929687,-0.29153522849082947,0.9427170753479004,-1.0370956659317017
1780751971016577800,41.411577880859376,-0.2744309902191162,0.23503021895885468,-0.4805215001106262
1780751971065094100,41.46009423828125,0.7919098138809204,-1.1895828247070312,0.1677587330341339
1780751971113610800,41.50861083984375,0.43715012073516846,0.379347026348114,1.2467750310897827
1780751971162127000,41.55712719726562,0.6212494969367981,-0.5059487819671631,2.5810563564300537
1780751971210643700,41.605643798828126,0.5047270059585571,-1.3901755809783936,2.6198463439941406
1780751971259160300,41.65416040039062,-0.3139844834804535,-1.3080905675888062,1.0764964818954468
1780751971356193300,41.751193359375,-1.0301470756530762,-1.2932007312774658,-0.25816673040390015
1780751971404710000,41.7997099609375,-0.03581194952130318,-0.6956222653388977,0.388051837682724
1780751971453226500,41.8482265625,0.5538252592086792,-0.9787580966949463,-0.0009926552884280682
1780751971501742800,41.89674291992188,0.3510945439338684,-0.16882775723934174,0.3107011020183563
1780751971550259200,41.94525927734375,-0.40057456493377686,0.07735075056552887,-0.25091269612312317
1780751971598776000,41.99377612304688,0.05177079141139984,0.5236638188362122,-1.0289254188537598
1780751971647292400,42.04229248046875,-0.8597158193588257,0.28588470816612244,-1.7921245098114014
1780751971695809000,42.09080908203125,-0.2877173125743866,0.31848961114883423,-1.1512510776519775
1780751971744325400,42.139325439453124,0.2848156988620758,0.23663374781608582,-0.5033525824546814
1780751971792842000,42.18784204101563,0.7835104465484619,1.0526727437973022,-0.040088001638650894
1780751971841358600,42.236358642578125,0.4269944727420807,2.0118067264556885,0.04780016839504242
1780751971889875000,42.284875,0.6626355648040771,1.772576928138733,-0.6911171674728394
1780751971938391600,42.3333916015625,0.6365211009979248,0.5312232971191406,-0.88285231590271
1780751971986908200,42.381908203125,-0.3500255048274994,1.2751039266586304,-0.8709404468536377
1780751972035424500,42.430424560546875,-0.14943279325962067,0.3174206018447876,-0.5561160445213318
1780751972083941000,42.47894116210937,0.8804852366447449,-1.2930480241775513,0.01511890348047018
1780751972132457500,42.52745751953125,0.40515607595443726,0.37400195002555847,0.6574432253837585
1780751972180974000,42.57597412109375,0.5251910090446472,-0.38530296087265015,2.493168354034424
1780751972229490700,42.62449072265625,0.6155989766120911,-1.1940115690231323,2.669020891189575
1780751972278007000,42.67300708007812,-0.08536835014820099,-1.3199260234832764,1.1814124584197998
1780751972326523600,42.721523681640626,-1.318627953529358,-1.3194679021835327,-1.1842377185821533
1780751972375040300,42.77004028320312,-1.313130259513855,-1.1189515590667725,-0.22395829856395721
1780751972423556600,42.818556640625,-0.28237223625183105,-0.7711403965950012,0.4675406217575073
1780751972472073200,42.8670732421875,0.38812822103500366,-0.9065233469009399,0.05780307948589325
1780751972520589600,42.915589599609376,0.30711227655410767,-0.5548179149627686,0.3313177824020386
1780751972569106200,42.96410620117187,-0.49663305282592773,0.2663370370864868,-0.08750637620687485
1780751972617622800,43.01262280273438,0.29588761925697327,0.15210533142089844,-1.109101414680481
1780751972666139100,43.06113916015625,-0.8140536546707153,-0.04718930274248123,-1.5977932214736938
1780751972714655700,43.10965576171875,-0.5106829404830933,0.5490147471427917,-1.134146809577942
1780751972763172400,43.15817236328125,0.28321218490600586,0.08720094710588455,-0.1879936307668686
1780751972860205300,43.255205322265624,0.5048033595085144,1.6145156621932983,0.17638720571994781
1780751972957238500,43.352238525390625,0.4817432463169098,0.792062520980835,-0.9886083006858826
1780751973005755000,43.4007548828125,0.0295505840331316,0.7747292518615723,-1.1946223974227905
1780751973054271200,43.449271240234374,-0.5722275972366333,0.7562506198883057,-0.5701659321784973
1780751973102787800,43.49778784179688,0.6501128673553467,-1.0851249694824219,-0.05352702736854553
1780751973151304400,43.546304443359375,0.5225184559822083,0.2078467458486557,0.5705476999282837
1780751973199821000,43.59482104492187,0.504421591758728,-0.03802633285522461,2.5224897861480713
1780751973248337400,43.64333740234375,0.8770490884780884,-1.299462080001831,2.8299074172973633
1780751973296853800,43.69185375976563,-0.10308343172073364,-1.1293362379074097,1.4763075113296509
1780751973345370400,43.740370361328125,-1.1517091989517212,-1.5762602090835571,-1.1017709970474243
1780751973393887000,43.78888696289062,-1.2771655321121216,-1.542586326599121,-0.4728093445301056
1780751973442403600,43.837403564453126,-0.3013090491294861,-0.9482911825180054,0.4021017551422119
1780751973490920000,43.885919921875,0.5542070865631104,-0.9454659819602966,0.09491311758756638
1780751973539436500,43.9344365234375,0.6177369952201843,-0.7137191295623779,0.20547963678836823
1780751973587953200,43.982953125,-0.40515607595443726,0.6351466774940491,0.1649334877729416
1780751973636469500,44.031469482421876,0.05787943676114082,0.3605629503726959,-0.9818124175071716
1780751973684986000,44.07998608398437,-0.7441860437393188,0.07719803601503372,-1.5839723348617554
1780751973733502700,44.12850268554688,-0.4180605709552765,0.6424006819725037,-1.1898118257522583
1780751973782019000,44.17701904296875,0.09208786487579346,0.21059563755989075,-0.3685041666030884
1780751973830535700,44.22553564453125,0.7646499872207642,0.7744238376617432,-0.43020153045654297
1780751973879052000,44.27405200195312,0.5204567909240723,1.569082498550415,-0.06001746281981468
1780751973927568600,44.32256860351563,0.5865828990936279,1.7234022617340088,-0.56298828125
1780751973976085000,44.3710849609375,0.5764272809028625,0.48243045806884766,-0.60490882396698
1780751974024601600,44.4196015625,-0.2945895493030548,1.114675521850586,-0.9793689846992493
1780751974073118200,44.4681181640625,-0.4549415409564972,0.5429060459136963,-0.6508000493049622
1780751974121634800,44.516634765625,0.8480330109596252,-1.3333650827407837,0.15187625586986542
1780751974170151200,44.565151123046874,0.5109120011329651,0.35735589265823364,1.1210895776748657
1780751974218667500,44.61366748046875,0.6446150541305542,-0.28237223625183105,2.7437756061553955
1780751974267184000,44.66218408203125,0.5485565662384033,-0.9292780160903931,2.643364667892456
1780751974315700700,44.71070068359375,-0.3072649836540222,-1.0010546445846558,0.7570141553878784
1780751974364217000,44.759217041015624,-1.2984694242477417,-1.7383683919906616,-0.856279730796814
1780751974461250000,44.85625,-0.08781181275844574,-0.9012545943260193,0.48075059056282043
1780751974509767000,44.90476684570312,0.5699368119239807,-1.0863466262817383,0.07452550530433655
1780751974558283300,44.953283203125,0.48563748598098755,-0.40744680166244507,0.34834563732147217
1780751974606799600,45.00179956054688,-0.4589121639728546,0.17883066833019257,-0.3888917863368988
1780751974655316200,45.050316162109375,0.0962875634431839,0.27572908997535706,-0.9215658903121948
1780751974703832800,45.09883276367187,-0.7672461867332458,0.050090912729501724,-1.6229150295257568
1780751974752349200,45.14734912109375,-0.20425790548324585,0.3205513060092926,-0.9574542045593262
1780751974800865800,45.19586572265625,0.10827577859163284,0.03871355578303337,-0.25755587220191956
1780751974849382100,45.244382080078125,0.780303418636322,0.6857720613479614,-0.14431680738925934
1780751974897898800,45.29289868164062,0.4993056058883667,1.8495458364486694,-0.17088942229747772
1780751974946415400,45.341415283203126,0.559399425983429,1.733481526374817,-0.7276926636695862
1780751974994931700,45.389931640625,0.38812822103500366,0.4689914286136627,-0.7759509682655334
1780751975043448300,45.4384482421875,-0.44700029492378235,1.3056471347808838,-0.8484911918640137
1780751975091964700,45.48696459960937,0.011377356946468353,0.08674279600381851,-0.5312996506690979
1780751975140481000,45.53548095703125,0.8287907838821411,-0.9643264412879944,0.36018115282058716
1780751975188998000,45.58399780273437,0.4247037470340729,0.6949350237846375,1.6519310474395752
1780751975237514200,45.63251416015625,0.8853721618652344,-0.9140064120292664,3.2869107723236084
1780751975334547200,45.729547119140626,-0.5872701406478882,-1.2005020380020142,-0.30711227655410767
1780751975383063800,45.77806372070312,-1.3398555517196655,-1.6129120588302612,-0.6713404059410095
1780751975431580400,45.82658032226563,-0.8016073107719421,-1.2932007312774658,-0.31902414560317993
1780751975480096800,45.8750966796875,0.10606139898300171,-0.8529199361801147,0.23518294095993042
1780751975528613400,45.92361328125,0.5994874238967896,-0.9805907011032104,-0.14882193505764008
1780751975577129700,45.97212963867187,0.268627792596817,-0.0062613640911877155,0.41699156165122986
1780751975625646300,46.02064624023438,-0.4277580678462982,0.4333322048187256,-0.6703477501869202
1780751975674163000,46.069162841796874,-0.14172062277793884,0.9103412628173828,-1.2887719869613647
1780751975722679300,46.11767919921875,-0.7725148797035217,0.47754353284835815,-1.6365067958831787
1780751975771195600,46.16619555664062,-0.2759581506252289,0.5273290276527405,-0.939662754535675
1780751975819712500,46.21471240234375,-0.004428769461810589,0.4433351159095764,-0.21051926910877228
1780751975868228900,46.263228759765624,0.9498947262763977,0.8077159523963928,-0.314748078584671
1780751975916745500,46.31174536132813,0.43776097893714905,2.2650866508483887,-0.24701844155788422
1780751975965261800,46.36026171875,0.7686969637870789,1.4269801378250122,-0.5615374445915222
1780751976013778200,46.40877807617188,0.45158177614212036,0.6165916323661804,-0.7034871578216553
1780751976062295000,46.457294921875,-0.28267768025398254,1.3436734676361084,-0.9211840629577637
1780751976110811400,46.50581127929688,-0.09361502528190613,-0.14278964698314667,-0.7076104879379272
1780751976159328000,46.554327880859375,0.8010727763175964,-1.299462080001831,0.09407317638397217
1780751976207844400,46.60284423828125,0.49136435985565186,0.3416261374950409,1.0093777179718018
1780751976256361000,46.65136083984375,0.5970439910888672,-0.34697118401527405,2.761337995529175
1780751976304877600,46.69987768554687,0.5664243698120117,-1.0731366872787476,2.4738495349884033
1780751976353394000,46.748393798828126,-0.12240202724933624,-1.1133774518966675,1.021518588066101
1780751976401910300,46.79691015625,-1.373376727104187,-1.2996912002563477,-1.1081087589263916
1780751976450427000,46.84542700195313,-1.1291072368621826,-1.3374121189117432,-0.32009315490722656
1780751976498943500,46.89394360351562,-0.14798198640346527,-0.756632387638092,0.3972148299217224
1780751976547460000,46.94246020507813,0.46135562658309937,-1.0234276056289673,-0.04932733252644539
1780751976595976400,46.9909765625,0.3153589367866516,-0.49800750613212585,0.24457497894763947
1780751976644492800,47.03949291992188,-0.5175551772117615,0.3748418986797333,-0.04558578506112099
1780751976693009400,47.08800952148437,0.03825540840625763,0.3950004279613495,-0.9122501611709595
1780751976741526000,47.13652612304688,-0.7139481902122498,0.22036947309970856,-1.649793028831482
1780751976790042400,47.18504248046875,-0.5821541547775269,0.38033968210220337,-1.1253656148910522
1780751976838559000,47.23355908203125,-0.01282816007733345,0.08200860023498535,-0.37812530994415283
1780751976887075300,47.28207543945312,0.9938769936561584,0.8012255430221558,-0.16600249707698822
1780751976935592200,47.33059228515625,0.49884745478630066,1.7482949495315552,-0.0539088174700737
1780751976984108500,47.379108642578124,0.47609272599220276,1.8642065525054932,-0.8584941029548645
1780751977032625000,47.427625,0.4823541045188904,0.7460185885429382,-0.8491020202636719
1780751977081141500,47.4761416015625,-0.2701549530029297,1.187673807144165,-0.827874481678009
1780751977129657900,47.52465795898438,-0.14828743040561676,0.20830489695072174,-0.42394015192985535
1780751977178174500,47.573174560546875,0.9832631945610046,-1.3428335189819336,0.06490438431501389
1780751977226691000,47.62169116210937,0.4457022249698639,0.32215481996536255,0.8145118355751038
1780751977275207400,47.67020751953125,0.2790125012397766,-0.32902705669403076,2.658254384994507
1780751977323724000,47.71872412109375,0.758694052696228,-1.4214823246002197,2.443230152130127
1780751977372240600,47.76724072265625,-0.2225838601589203,-1.4149155616760254,1.253036379814148
1780751977420757000,47.81575708007812,-1.2918262481689453,-1.8290818929672241,-1.1381938457489014
1780751977469273600,47.864273681640626,-1.1977530717849731,-1.6479604244232178,-0.3981311321258545
1780751977517790000,47.9127900390625,-0.12812888622283936,-1.2637264728546143,0.41149377822875977
1780751977566306300,47.961306396484375,0.49273881316185,-1.2863285541534424,-0.12438733875751495
1780751977614823200,48.0098232421875,0.4376082420349121,-0.3507890999317169,0.2404516488313675
1780751977663339500,48.058339599609376,-0.37545275688171387,-0.15515965223312378,-0.3424660563468933
1780751977711856000,48.10685620117187,-0.04802924394607544,0.7947350740432739,-0.3874409794807434
1780751977760372500,48.15537255859375,-0.8558215498924255,0.37346744537353516,-2.1376450061798096
1780751977808889000,48.20388916015625,-0.13904809951782227,0.35880669951438904,-1.1600322723388672
1780751977857405700,48.25240576171875,0.27282747626304626,0.042913250625133514,0.020769402384757996
1780751977905922000,48.30092211914062,1.0606902837753296,0.6849321126937866,0.11018473654985428
1780751977954438400,48.3494384765625,0.5222893953323364,2.002872943878174,-0.27366742491722107
1780751978002955000,48.397955078125,0.5084685683250427,1.4672971963882446,-0.7922916412353516
1780751978051471600,48.4464716796875,0.20280711352825165,0.30604326725006104,-0.6659952998161316
1780751978099988200,48.49498828125,-0.3782780170440674,1.522733211517334,-0.7365502119064331
1780751978148504600,48.54350463867188,0.14698933064937592,-0.043829549103975296,-0.4231765866279602
1780751978197021000,48.59202099609375,0.9240856766700745,-0.9534072279930115,0.7094430923461914
1780751978294054100,48.68905419921875,0.6910407543182373,-0.6607266068458557,3.11686110496521
1780751978342570500,48.73757055664063,0.1055268943309784,-0.5836049318313599,2.008676052093506
1780751978391087000,48.786087158203124,-0.7319687008857727,-1.4455351829528809,-0.8350521326065063
1780751978439603500,48.834603515625,-1.2637264728546143,-1.7551672458648682,-0.7094430923461914
1780751978488120300,48.883120361328125,-0.6562978625297546,-1.0015891790390015,-0.18547381460666656
1780751978536636700,48.93163671875,0.3591884970664978,-1.0162498950958252,0.3040579557418823
1780751978585153000,48.980153076171874,0.7027235627174377,-0.8969785571098328,0.1891390085220337
1780751978633669600,49.02866967773438,0.025274530053138733,0.5273290276527405,0.1931859850883484
1780751978682186000,49.07718603515625,-0.13439024984836578,0.005039634648710489,-1.067638874053955
1780751978730702600,49.12570263671875,-0.2643517255783081,0.6599630117416382,-0.9088140726089478
1780751978779219200,49.17421923828125,-0.5517635941505432,0.699287474155426,-1.7295109033584595
1780751978827735600,49.22273559570313,-0.20364704728126526,0.1268308013677597,-0.6185769438743591
1780751978876252200,49.271252197265625,0.4699077308177948,1.033583164215088,-0.05520690605044365
1780751978924768800,49.31976879882812,0.9395100474357605,1.1958441734313965,-0.27282747626304626
1780751978973285000,49.36828515625,0.32849252223968506,2.488892078399658,-0.6232348084449768
1780751979021801700,49.4168017578125,0.5911644101142883,1.1087195873260498,-0.9712749719619751
1780751979070318000,49.465318115234375,0.11484257876873016,0.9912044405937195,-0.9604321718215942
1780751979118834400,49.51383447265625,-0.4353175163269043,0.588110089302063,-0.43493571877479553
1780751979167351300,49.562351318359376,0.7821359634399414,-1.2121084928512573,0.277332603931427
1780751979215867600,49.61086767578125,0.32070401310920715,0.5432878732681274,0.6322450637817383
1780751979264384000,49.659384033203125,0.12438733875751495,0.4324922561645508,2.2841761112213135
1780751979312900600,49.70790063476562,0.7835104465484619,-1.0569487810134888,2.7918810844421387
1780751979361417000,49.7564169921875,-0.4376082420349121,-0.48097965121269226,2.0164647102355957
1780751979409933800,49.80493383789062,-1.197447657585144,-1.6365067958831787,-1.6312379837036133
1780751979458450200,49.8534501953125,-1.1690424680709839,-1.9016220569610596,-0.6074286699295044
1780751979506966500,49.90196655273437,-0.20387612283229828,-0.9653190970420837,0.3529271185398102
1780751979555483100,49.950483154296876,0.5845975875854492,-1.1754565238952637,-0.0054977829568088055
1780751979603999700,49.99899975585937,0.48914995789527893,-0.6607266068458557,0.44982555508613586
1780751979652516000,50.04751611328125,-0.45791950821876526,0.3426951467990875,0.09178243577480316
1780751979701032700,50.09603271484375,0.11507165431976318,0.2237292230129242,-1.0068578720092773
1780751979749549000,50.144549072265626,-0.7756455540657043,-0.046425722539424896,-1.7986149787902832
1780751979798065400,50.1930654296875,-0.5165625214576721,0.3655261993408203,-1.2371538877487183
1780751979846582300,50.24158227539063,-0.02588539570569992,0.42615455389022827,-0.02458730712532997
1780751979895098600,50.2900986328125,0.9732602834701538,0.8142827749252319,-0.12377647310495377
1780751979943615200,50.338615234375,0.5743656158447266,1.9536982774734497,-0.31291547417640686
1780751979992131600,50.38713159179687,0.6338485479354858,1.8786382675170898,-0.8804088830947876
1780751980040648200,50.43564819335938,0.5907062292098999,0.8248201608657837,-0.8024472594261169
1780751980089164800,50.484164794921874,-0.16409355401992798,1.0523673295974731,-0.7599157691001892
1780751980137681200,50.53268115234375,-0.3324631452560425,0.20624321699142456,-0.4978547990322113
1780751980186197500,50.58119750976562,0.7448732256889343,-1.2928189039230347,-0.06536252796649933
1780751980234714000,50.62971411132813,0.3381900191307068,-0.013286309316754341,0.8211549520492554
1780751980283230700,50.678230712890624,0.4251618981361389,-0.1450040340423584,2.5316526889801025
1780751980331747000,50.7267470703125,0.6473639607429504,-1.7499748468399048,3.093419313430786
1780751980380263700,50.775263671875,0.043829549103975296,-1.791208267211914,1.6222277879714966
1780751980428780000,50.82378002929688,-1.1523200273513794,-2.289292097091675,-1.708436131477356
1780751980477296600,50.872296630859374,-1.0663408041000366,-1.5935934782028198,-0.42187848687171936
1780751980525813200,50.92081323242188,-0.24457497894763947,-1.3546689748764038,0.26878049969673157
1780751980574329600,50.96932958984375,0.46776971220970154,-1.1827869415283203,0.0553596206009388
1780751980622846000,51.01784594726563,0.5017490386962891,-0.38301220536231995,0.24350596964359283
1780751980671362600,51.066362548828124,-0.4387536346912384,0.667064368724823,0.24373504519462585
1780751980719879200,51.11487915039063,0.33192864060401917,0.6829468011856079,-1.0111339092254639
1780751980768395800,51.163395751953125,-0.4857902228832245,0.49686214327812195,-1.2416590452194214
1780751980816912100,51.211912109375,-0.5545125007629395,0.846505880355835,-1.569082498550415
1780751980865428500,51.260428466796874,-0.13049599528312683,0.18066325783729553,-0.013286309316754341
1780751980913945000,51.30894506835938,0.6730202436447144,0.7275399565696716,0.01954767294228077
1780751980962461700,51.357461669921875,0.6137663722038269,1.2538763284683228,-0.19013166427612305
1780751981010978000,51.40597802734375,0.3721693754196167,2.2043819427490234,-0.9169080257415771
1780751981059494700,51.45449462890625,0.6462949514389038,0.8979712128639221,-0.9187406301498413
1780751981108011000,51.50301098632813,0.27259841561317444,0.8014546036720276,-0.9384410381317139
1780751981156527600,51.551527587890625,-0.5581013560295105,0.6350703239440918,-0.5551233887672424
1780751981205044200,51.60004418945312,0.6434696912765503,-1.2355504035949707,0.015729768201708794
1780751981253560600,51.648560546875,0.5725330114364624,-0.23113596439361572,0.5583304166793823
1780751981302077000,51.69707690429688,0.22930335998535156,0.3105483949184418,2.307847023010254
1780751981350593500,51.745593505859375,0.8395572900772095,-0.8476512432098389,2.523329734802246
1780751981399110100,51.79411010742187,0.057268574833869934,-1.2780818939208984,2.140928268432617
1780751981447626500,51.84262646484375,-1.0538945198059082,-0.8348230719566345,-0.9250019788742065
1780751981496143000,51.89114306640625,-1.362228512763977,-1.2625048160552979,-0.7832813858985901
1780751981544659500,51.939659423828125,-0.5198459029197693,-0.616744339466095,0.20540328323841095
1780751981593176000,51.98817602539062,0.3966039717197418,-0.7908408045768738,0.036880962550640106
1780751981641692700,52.036692626953126,0.43753188848495483,-0.7357102632522583,0.2716057598590851
1780751981690209000,52.085208984375,-0.4815141558647156,0.6852375864982605,0.19120067358016968
1780751981738725400,52.133725341796875,0.08628465235233307,0.041157014667987823,-1.2105048894882202
1780751981787242000,52.18224194335937,-0.45158177614212036,-0.2067013680934906,-1.3270273208618164
1780751981835758600,52.230758544921876,-0.8113811612129211,0.31780239939689636,-1.3881138563156128
1780751981884275000,52.27927490234375,-0.28809911012649536,-0.47868892550468445,-0.21601705253124237
1780751981932791600,52.32779150390625,0.6422479748725891,0.46891507506370544,-0.1781434416770935
1780751981981308000,52.37630786132812,0.7601448893547058,1.1201733350753784,-0.056810423731803894
1780751982029824300,52.42482421875,0.5697077512741089,1.9201771020889282,-0.7619010806083679
1780751982078341000,52.47334106445312,0.7163916826248169,0.8069523572921753,-0.6220894455909729
1780751982126857500,52.521857421875,0.11866047978401184,0.811610221862793,-1.057865023612976
1780751982175373800,52.57037377929687,-0.5959749221801758,1.000596523284912,-0.5556578636169434
1780751982223890400,52.618890380859376,0.5316814184188843,-1.0784053802490234,-0.03138317912817001
1780751982272407000,52.66740698242187,0.5452731847763062,-0.4243219494819641,0.7209731340408325
1780751982320923400,52.71592333984375,0.2078467458486557,0.3646862804889679,2.1815507411956787
1780751982369439700,52.76443969726562,0.6763800382614136,-1.2777763605117798,2.2799763679504395
1780751982417956400,52.81295629882813,-0.07559451460838318,-1.352454662322998,2.2579853534698486
1780751982466472700,52.86147265625,-1.0230457782745361,-1.4737876653671265,-0.8410080671310425
1780751982514989300,52.9099892578125,-1.242040753364563,-1.8067853450775146,-0.6228529810905457
1780751982563506000,52.958505859375,-0.3589594066143036,-1.0604612827301025,0.06940951198339462
1780751982612022300,53.00702221679688,0.502894401550293,-0.892626166343689,0.2954294681549072
1780751982660538600,53.05553857421875,0.5045742988586426,-0.5888736248016357,0.203799769282341
1780751982709055500,53.10405541992188,-0.29672756791114807,0.6422479748725891,-0.000839939049910754
1780751982757571800,53.15257177734375,0.21517711877822876,0.16019928455352783,-1.042288064956665
1780751982806088200,53.20108813476563,-0.39400777220726013,0.05154171586036682,-0.9421061873435974
1780751982854604800,53.24960473632812,-0.584826648235321,0.6669116020202637,-1.559079647064209
1780751982903121200,53.29812109375,0.004657844081521034,0.15531237423419952,-0.402407169342041
1780751982951637800,53.3466376953125,0.7535780668258667,0.6727911829948425,-0.2744309902191162
1780751983000154400,53.395154296875,0.5969675779342651,0.8955277800559998,-0.01359174121171236
1780751983048670700,53.443670654296874,0.3526217043399811,2.1503968238830566,-0.649578332901001
1780751983097187000,53.49218701171875,0.5103011727333069,0.46135562658309937,-0.633008599281311
1780751983145703400,53.54070336914062,-0.22357651591300964,0.8049670457839966,-0.792062520980835
1780751983194220300,53.58922021484375,-0.5164098143577576,0.6406444311141968,-0.7230347990989685
1780751983291253000,53.6862529296875,0.5745946764945984,0.19219332933425903,1.0199915170669556
1780751983339769600,53.73476953125,0.49861836433410645,0.10361793637275696,2.6702425479888916
1780751983388286200,53.7832861328125,0.3966039717197418,-1.0850485563278198,2.5833470821380615
1780751983436802600,53.831802490234374,-0.24663665890693665,-1.0346522331237793,1.3679553270339966
1780751983485319200,53.88031909179688,-1.2019528150558472,-1.3785691261291504,-1.089935541152954
1780751983533835500,53.92883544921875,-0.9645555019378662,-1.6604832410812378,-0.6534726023674011
1780751983582352000,53.97735180664063,-0.1308777779340744,-0.8058833479881287,0.25549420714378357
1780751983630868700,54.02586865234375,0.5864301919937134,-0.8273400068283081,0.4615846872329712
1780751983679385000,54.07438500976563,0.49945831298828125,-0.7234166264533997,0.37407833337783813
1780751983727901400,54.1229013671875,-0.4445568323135376,0.29856017231941223,0.0665842592716217
1780751983776417800,54.17141772460938,0.23617559671401978,0.36544984579086304,-1.2239439487457275
1780751983824934700,54.2199345703125,-0.6746237874031067,-0.06963858753442764,-1.5589269399642944
1780751983873451000,54.26845092773438,-0.5088503360748291,0.5490147471427917,-1.28083074092865
1780751983921967400,54.31696728515625,-0.0025961752980947495,0.2283107042312622,-0.2185368686914444
1780751983970484000,54.36548388671875,0.8138245940208435,0.8684206604957581,-0.14523309469223022
1780751984019000300,54.414000244140624,0.7016545534133911,1.4646246433258057,0.15966477990150452
1780751984067517000,54.46251684570313,0.5174024701118469,2.1089344024658203,-0.7000510096549988
1780751984116033300,54.511033203125,0.5495492219924927,0.6868410706520081,-0.9120211005210876
1780751984164550000,54.5595498046875,0.025809036567807198,0.7540361881256104,-1.2705987691879272
1780751984213066200,54.608066162109374,-0.5286270976066589,1.1659117937088013,-0.6168206930160522
1780751984261582600,54.65658251953125,0.711046576499939,-1.2066869735717773,0.03375028073787689
1780751984310099500,54.705099365234375,0.4595230221748352,0.010537417605519295,0.7518218159675598
1780751984358615800,54.75361572265625,0.13217586278915405,0.17249293625354767,2.364886522293091
1780751984407132200,54.802132080078124,0.6794343590736389,-1.0991748571395874,2.4100141525268555
1780751984455648500,54.8506484375,-0.037262752652168274,-1.740964651107788,1.8829143047332764
1780751984504165400,54.899165283203125,-1.0963495969772339,-1.2168426513671875,-0.9330195784568787
1780751984552681700,54.947681640625,-1.1718677282333374,-1.8417572975158691,-0.7621301412582397
1780751984601198000,54.996197998046874,-0.2300669401884079,-0.8468112945556641,0.32360562682151794
1780751984649714700,55.04471459960938,0.5672643184661865,-0.7760273218154907,0.397825688123703
1780751984698231000,55.09323095703125,0.492127925157547,-0.34895649552345276,0.2675587832927704
1780751984746747600,55.14174755859375,-0.3526217043399811,0.5196168422698975,-0.15126539766788483
1780751984795264300,55.19026416015625,0.16676609218120575,0.44119709730148315,-0.9722676277160645
1780751984843780600,55.23878051757813,-0.6892845630645752,-0.012446369975805283,-1.2905281782150269
1780751984892297000,55.287296875,-0.4725802540779114,0.4111120104789734,-1.3029745817184448
1780751984940813600,55.3358134765625,-0.12278381735086441,-0.14110976457595825,-0.1651625633239746
1780751984989330200,55.384330078125,0.7185297012329102,0.5166388750076294,-0.3943895697593689
1780751985037846500,55.43284643554688,0.7057015299797058,1.6322306394577026,-0.1461493968963623
1780751985086363000,55.48136279296875,0.6421716213226318,2.077932834625244,-0.6298015713691711
1780751985134879200,55.52987915039063,0.596662163734436,0.32536184787750244,-0.47326749563217163
1780751985183396000,55.57839599609375,-0.19792018830776215,1.1982876062393188,-0.8755983114242554
1780751985231912400,55.62691235351563,-0.367511510848999,0.5464949011802673,-0.7625883221626282
1780751985280428800,55.6754287109375,0.7496837973594666,-0.8957568407058716,0.2404516488313675
1780751985328945400,55.7239453125,0.6010909676551819,0.3926333487033844,1.363908290863037
1780751985377461800,55.772461669921874,0.7780889868736267,-0.44669488072395325,3.3180646896362305
1780751985425978400,55.82097827148438,0.41928231716156006,-0.7199804782867432,2.549520492553711
1780751985474494700,55.86949462890625,-0.43837183713912964,-0.7303652167320251,-0.0360410213470459
1780751985523011300,55.91801123046875,-1.3111449480056763,-1.7040836811065674,-0.7998510599136353
1780751985571527700,55.966527587890624,-0.9665408134460449,-1.3029745817184448,-0.4064541459083557
1780751985620044300,56.01504418945313,-0.07536543905735016,-0.6483566164970398,0.2989419400691986
1780751985668561000,56.063560791015625,0.5593230724334717,-0.7148644924163818,0.18532110750675201
1780751985717077200,56.1120771484375,0.4416552484035492,-0.2571740746498108,0.26450446248054504
1780751985765593600,56.160593505859374,-0.523052990436554,0.14370593428611755,-0.5633700489997864
1780751985814110000,56.20910986328125,0.13965895771980286,0.42088583111763,-0.94439697265625
1780751985862626800,56.257626708984375,-0.6228529810905457,0.11972949653863907,-1.8069380521774292
1780751985911143200,56.30614306640625,-0.2940550446510315,0.5120574235916138,-1.1101703643798828
1780751985959659500,56.354659423828124,0.13209950923919678,0.5033525824546814,-0.41615164279937744
1780751986008175900,56.40317578125,0.9127846956253052,0.7360920310020447,-0.32940882444381714
1780751986056692500,56.4516923828125,0.3072649836540222,1.8608468770980835,-0.1104138121008873
1780751986105209000,56.500208984375,0.43432486057281494,1.8768056631088257,-0.8538362383842468
1780751986153725400,56.548725341796874,0.40637779235839844,0.546953022480011,-0.8804852366447449
1780751986202242000,56.59724194335938,-0.3042106628417969,1.172402262687683,-0.6389645338058472
1780751986250758400,56.64575830078125,0.019394956529140472,-0.12660172581672668,-0.3494146466255188
1780751986299275000,56.69427490234375,0.7582359313964844,-1.0645846128463745,0.33307403326034546
1780751986347791400,56.742791259765625,0.32681265473365784,0.4497492015361786,1.6703333854675293
1780751986396308000,56.79130786132812,0.7816778421401978,-0.31352636218070984,3.0266823768615723
1780751986444824300,56.83982421875,0.27145302295684814,-1.1766782999038696,2.6690971851348877
1780751986493340700,56.88834057617188,-0.6548470258712769,-1.0965023040771484,-0.5964331030845642
1780751986541857300,56.936857177734375,-1.493411660194397,-1.3839905261993408,-0.8455895781517029
1780751986590374000,56.98537377929687,-0.743880569934845,-0.9708932042121887,-0.152487114071846
1780751986638890200,57.03389013671875,0.2447277009487152,-0.8077923059463501,0.4604393243789673
1780751986687406600,57.08240649414063,0.5332849621772766,-0.7595340013504028,0.4066832363605499
1780751986735923200,57.130923095703125,0.17852523922920227,0.389120876789093,0.2599993348121643
1780751986784439800,57.17943969726562,-0.15745039284229279,0.12217295914888382,-1.0627520084381104
1780751986832956200,57.2279560546875,-0.09544762223958969,0.49480047821998596,-0.9014073610305786
1780751986881472500,57.27647241210938,-0.5996401309967041,0.28870996832847595,-1.5630502700805664
1780751986929989000,57.324989013671875,-0.18409937620162964,0.030772313475608826,-0.7114284038543701
1780751986978505700,57.37350561523437,0.17837251722812653,0.3019199073314667,-0.3698022663593292
1780751987027022000,57.42202197265625,0.7590758204460144,0.7711403965950012,-0.017486004158854485
1780751987075538400,57.47053833007813,0.21930044889450073,1.8658101558685303,-0.26473352313041687
1780751987124055000,57.519054931640625,0.5839866995811462,1.2944225072860718,-0.7670934200286865
1780751987172571400,57.5675712890625,0.5738310813903809,0.37064221501350403,-1.0095304250717163
1780751987221088000,57.616087890625,-0.31177011132240295,0.9963204264640808,-0.7967203855514526
1780751987269604400,57.66460424804688,0.01511890348047018,0.23373213410377502,-0.3468184769153595
1780751987318121000,57.713120849609375,0.7786998748779297,-1.029459834098816,0.5784889459609985
1780751987366637300,57.76163720703125,0.4195113778114319,0.29848378896713257,1.82014799118042
1780751987415154000,57.81015380859375,0.7605266571044922,-0.7302125096321106,2.8202099800109863
1780751987463670300,57.85867016601563,0.13484840095043182,-1.2099703550338745,2.2821907997131348
1780751987512187000,57.907186767578125,-0.6834049820899963,-1.3994911909103394,-0.49663305282592773
1780751987560703200,57.955703125,-1.36367928981781,-1.7678426504135132,-0.7747292518615723
1780751987609219600,58.004219482421874,-0.753043532371521,-0.9732602834701538,0.10285435616970062
1780751987657736200,58.05273608398438,0.208152174949646,-0.9380592107772827,0.3229183852672577
1780751987706252800,58.101252685546875,0.4986947476863861,-1.15132737159729,0.07773254066705704
1780751987754769200,58.14976904296875,-0.14401137828826904,0.4130973219871521,0.35384342074394226
1780751987803285500,58.198285400390624,-0.1378263682126999,-0.08491020649671555,-0.9167553186416626
1780751987851801900,58.2468017578125,-0.24579671025276184,0.1565341055393219,-1.0460295677185059
1780751987900318700,58.295318603515625,-0.6806560754776001,0.2569449841976166,-1.6202424764633179
1780751987948835000,58.3438349609375,-0.12499820441007614,0.02611446939408779,-0.827874481678009
1780751987997351400,58.392351318359374,0.45875945687294006,0.6289616227149963,-0.7004328370094299
1780751988045867800,58.44086767578125,0.7599157691001892,0.9362266063690186,0.09575305134057999
1780751988094384600,58.489384521484375,0.4070650041103363,2.1558945178985596,-0.21517711877822876
1780751988142901000,58.53790087890625,0.695164144039154,0.870482325553894,-0.5914698243141174
1780751988191417300,58.586417236328124,0.4736492931842804,0.42416924238204956,-1.1144464015960693
1780751988239933700,58.63493359375,-0.5303833484649658,1.1152863502502441,-0.7733548283576965
1780751988288450300,58.6834501953125,0.27511823177337646,-0.4084394574165344,-0.28725916147232056
1780751988336967000,58.731966796875,0.7218130826950073,-0.6361393332481384,0.6601157784461975
1780751988385483300,58.780483154296874,0.3099375069141388,0.729983389377594,2.268141031265259
1780751988433999600,58.82899951171875,0.7815251350402832,-0.8501710295677185,2.749960422515869
1780751988482516200,58.87751611328125,0.018784092739224434,-1.2244020700454712,1.975383996963501
1780751988531032800,58.92603271484375,-0.9130901098251343,-0.8449786901473999,-0.5731438994407654
1780751988579549200,58.974549072265624,-1.2806016206741333,-1.752112865447998,-0.6588940024375916
1780751988628065500,59.0230654296875,-0.5031998753547668,-0.7087558507919312,0.06536252796649933
1780751988676582100,59.07158203125,0.45937031507492065,-0.8724676370620728,0.28405213356018066
1780751988725098500,59.12009838867188,0.5062541961669922,-0.902400016784668,0.14110976457595825
1780751988773615000,59.168614990234374,-0.3508654534816742,0.595211386680603,0.38873907923698425
1780751988822131500,59.21713134765625,0.10239620506763458,0.17371466755867004,-1.134146809577942
1780751988870648000,59.26564794921875,-0.47525280714035034,0.03581194952130318,-1.4689006805419922
1780751988919164400,59.31416430664063,-0.4845684766769409,0.8691078424453735,-1.3616175651550293
1780751988967680800,59.3626806640625,-0.0077121676877141,-0.0022143847309052944,-0.7270817756652832
1780751989016197400,59.411197265625,0.5810851454734802,0.6395754218101501,-0.4444804787635803
1780751989064713700,59.45971362304687,0.6703477501869202,1.2306634187698364,0.10545053333044052
1780751989113230300,59.50823022460938,0.45593419671058655,2.3426663875579834,-0.7330377101898193
1780751989161746700,59.55674658203125,0.6714931130409241,0.6613374948501587,-0.6682860851287842
1780751989210263300,59.60526318359375,0.10323614627122879,0.5694786906242371,-0.9435570240020752
1780751989258779600,59.65377954101562,-0.6361393332481384,0.7065414786338806,-0.5442805290222168
1780751989307296300,59.70229614257813,0.6577486395835876,-1.1964550018310547,0.04787652567028999
1780751989355812600,59.7508125,0.3367392122745514,0.3258199989795685,0.7631992101669312
1780751989404329000,59.79932885742188,0.4756345748901367,0.09636391699314117,2.627711296081543
1780751989452845600,59.847845458984374,0.6595812439918518,-1.5601485967636108,2.9193227291107178
1780751989501362200,59.89636206054688,-0.2735147178173065,-1.065806269645691,0.7686969637870789
1780751989549878500,59.94487841796875,-1.2918262481689453,-1.517388105392456,-0.8847612738609314
1780751989598395000,59.99339477539063,-1.1237621307373047,-1.6864449977874756,-0.3828594982624054
1780751989646911200,60.0419111328125,-0.16638429462909698,-0.7391464114189148,0.38705918192863464
1780751989695427800,60.090427734375,0.5432878732681274,-0.9628756046295166,0.2864955961704254
1780751989743944400,60.1389443359375,0.3771326541900635,-0.6806560754776001,0.36919140815734863
1780751989792460800,60.18746069335938,-0.4257727563381195,0.35323256254196167,-0.2995528280735016
1780751989840977400,60.235977294921874,0.17547090351581573,0.20746494829654694,-0.8902590870857239
1780751989889493800,60.28449365234375,-0.6465240120887756,-0.1461493968963623,-1.601305603981018
1780751989938010000,60.33301000976562,-0.3361283540725708,0.04199695214629173,-1.0912336111068726
1780751989986526700,60.38152661132813,0.08857539296150208,0.06879864633083344,-0.4779253304004669
1780751990035043000,60.43004296875,0.9891427755355835,0.6912698745727539,-0.1623373180627823
1780751990083559700,60.4785595703125,0.45769044756889343,1.4898991584777832,0.48884454369544983
1780751990132076000,60.52707592773437,0.3846157491207123,1.8559598922729492,-0.6666825413703918
1780751990180592400,60.57559228515625,0.4601338803768158,0.3761399984359741,-1.0529018640518188
1780751990229109000,60.62410888671875,-0.2756527364253998,1.0286962985992432,-0.9926552772521973
1780751990277625300,60.672625244140626,-0.20807582139968872,0.42539095878601074,-0.4634936451911926
1780751990326142000,60.72114184570312,0.8413898944854736,-0.9921970963478088,0.31230461597442627
1780751990374658300,60.769658203125,0.40698865056037903,0.4740310609340668,1.283808708190918
1780751990423174700,60.81817456054687,0.6550761461257935,-0.38728827238082886,2.625267744064331
1780751990471691300,60.866691162109376,0.38560840487480164,-1.2270746231079102,2.8461716175079346
1780751990520208000,60.91520776367187,-0.30604326725006104,-1.0967313051223755,0.34429866075515747
1780751990568724200,60.96372412109375,-1.247767686843872,-1.6739221811294556,-1.0480912923812866
1780751990617240600,61.01224047851562,-0.9259182810783386,-1.0293071269989014,-0.35323256254196167
1780751990665757200,61.060757080078126,0.0383317656815052,-0.6442332863807678,0.356286883354187
1780751990714273500,61.1092734375,0.541989803314209,-0.9124792814254761,0.19524765014648438
1780751990762790100,61.1577900390625,0.13828451931476593,0.23472478985786438,0.4999164640903473
1780751990811306500,61.20630639648437,-0.35384342074394226,-0.05558869615197182,-0.6621774435043335
1780751990859822800,61.25482275390625,0.11117739230394363,0.45364347100257874,-1.0056360960006714
1780751990908339500,61.30333935546875,-0.73204505443573,0.3407098352909088,-1.7804417610168457
1780751990956856000,61.35185595703125,-0.23594652116298676,0.4094321131706238,-0.7680860757827759
1780751991005372400,61.40037231445312,0.10361793637275696,0.4249328076839447,-0.10483966767787933
1780751991053888800,61.448888671875,0.728532612323761,0.6725621223449707,-0.16355904936790466
1780751991102405000,61.49740502929688,0.2835939824581146,1.932165265083313,-0.23800818622112274
