time,seconds_elapsed,z,y,x
1780751929813852700,0.208852783203125,-0.9583254456520081,-9.949356079101562,1.2215359210968018
1780751929910763300,0.30576318359375,-0.8530412912368774,-9.852447509765625,1.2191431522369385
1780751929968983600,0.363983642578125,-0.9272187948226929,-9.850054740905762,1.207179069519043
1780751930066017000,0.46101708984375,-0.8662018179893494,-9.834501266479492,1.2394821643829346
1780751930163051000,0.558051025390625,-0.8566305041313171,-9.835697174072266,1.200000524520874
1780751930260084700,0.655084716796875,-0.898504912853241,-9.863214492797852,1.195214867591858
1780751930357118500,0.752118408203125,-0.8805587291717529,-9.836894035339355,1.1880364418029785
1780751930454152200,0.849152099609375,-0.8039883971214294,-9.80817985534668,1.2095718383789062
1780751930551186200,0.946186279296875,-0.8219345808029175,-9.77826976776123,1.293320655822754
1780751930648220000,1.043219970703125,-0.8506484627723694,-9.848857879638672,1.1892328262329102
1780751930745253600,1.140253662109375,-0.7250252366065979,-9.730413436889648,1.1174482107162476
1780751930803474000,1.198473876953125,-0.8147560954093933,-9.875179290771484,1.2741780281066895
1780751930900507600,1.295507568359375,-0.8769695162773132,-9.708877563476562,1.435693621635437
1780751930997541600,1.392541748046875,-1.0396814346313477,-9.913464546203613,1.26699960231781
1780751931094575400,1.489575439453125,-0.865005373954773,-9.80219841003418,1.482353687286377
1780751931152795600,1.547795654296875,-0.9786644577980042,-9.731609344482422,1.3004990816116333
1780751931249829600,1.64482958984375,-1.0528420209884644,-10.119247436523438,1.0875378847122192
1780751931346863400,1.74186328125,-1.2083754539489746,-9.687342643737793,0.8530412912368774
1780751931405083600,1.800083740234375,-1.0516455173492432,-9.464810371398926,0.6065805554389954
1780751931502117400,1.897117431640625,-1.5158531665802002,-10.40638542175293,0.6592226624488831
1780751931599151000,1.994151123046875,-0.8781659007072449,-9.835697174072266,1.1904292106628418
1780751931696184800,2.091184814453125,-0.9104689955711365,-9.761520385742188,1.0360921621322632
1780751931754405000,2.149405029296875,-1.0289137363433838,-9.833304405212402,1.0193424224853516
1780751931851439000,2.246439208984375,-1.054038405418396,-9.828518867492676,1.2335001230239868
1780751931948472800,2.343472900390625,-1.074377417564392,-9.742377281188965,1.1174482107162476
1780751932045506800,2.4405068359375,-1.1162517070770264,-9.774680137634277,1.1784651279449463
1780751932103727000,2.49872705078125,-1.1808580160140991,-9.844072341918945,1.140179991722107
1780751932200760800,2.5957607421875,-1.0947163105010986,-9.81535816192627,1.077966570854187
1780751932297794800,2.692794921875,-1.171286702156067,-9.873982429504395,1.153340458869934
1780751932394828500,2.78982861328125,-1.160519003868103,-9.743574142456055,1.2454642057418823
1780751932453048800,2.848048828125,-1.26699960231781,-9.76391315460205,1.1306086778640747
1780751932550082300,2.945082275390625,-1.2610175609588623,-9.839286804199219,1.124626636505127
1780751932647116300,3.0421162109375,-1.2215359210968018,-9.77826976776123,1.085145115852356
1780751932744150000,3.13914990234375,-1.26699960231781,-9.865608215332031,1.1341979503631592
1780751932802370300,3.197370361328125,-1.2263215780258179,-9.760323524475098,1.1330015659332275
1780751932899404300,3.294404296875,-1.2813565731048584,-9.81655502319336,1.1365907192230225
1780751932996438000,3.39143798828125,-1.26699960231781,-9.817750930786133,1.1330015659332275
1780751933054658300,3.449658203125,-1.2658032178878784,-9.748359680175781,1.179661512374878
1780751933151692300,3.5466923828125,-1.2610175609588623,-9.797411918640137,1.1676974296569824
1780751933248725800,3.643725830078125,-1.2323036193847656,-9.732806205749512,1.2382856607437134
1780751933345759500,3.740759521484375,-1.2538390159606934,-9.772287368774414,1.3351950645446777
1780751933403980000,3.79897998046875,-1.3950155973434448,-9.783055305480957,1.176072359085083
1780751933501013800,3.896013671875,-1.3543375730514526,-9.805787086486816,1.1437692642211914
1780751933598047700,3.9930478515625,-1.2023934125900269,-9.713663101196289,1.1784651279449463
1780751933695081500,4.09008154296875,-1.3411771059036255,-9.822537422180176,1.2418749332427979
1780751933753301800,4.1483017578125,-1.2263215780258179,-9.781859397888184,1.2023934125900269
1780751933850335200,4.245335205078125,-1.2215359210968018,-9.757930755615234,1.2861422300338745
1780751933947369200,4.342369140625,-1.2538390159606934,-9.787840843200684,1.1940184831619263
1780751934044403000,4.43940283203125,-1.2574282884597778,-9.795019149780273,1.1928220987319946
1780751934102623200,4.497623291015625,-1.2610175609588623,-9.796216011047363,1.1868400573730469
1780751934199657200,4.5946572265625,-1.2681959867477417,-9.736394882202148,1.2263215780258179
1780751934296690700,4.691690673828125,-1.3148560523986816,-9.787840843200684,1.1880364418029785
1780751934354911000,4.749910888671875,-1.2634103298187256,-9.822537422180176,1.2059825658798218
1780751934451945000,4.846945068359375,-1.2789636850357056,-9.76989459991455,1.1856436729431152
1780751934548978700,4.943978759765625,-1.2059825658798218,-9.745966911315918,1.196411371231079
1780751934646012400,5.041012451171875,-1.246660590171814,-9.830911636352539,1.191625714302063
1780751934704232700,5.099232666015625,-1.2681959867477417,-9.787840843200684,1.176072359085083
1780751934801266400,5.196266357421875,-1.2921242713928223,-9.828518867492676,1.1078768968582153
1780751934898300200,5.293300048828125,-1.2454642057418823,-9.791430473327637,1.1629117727279663
1780751934995334100,5.390334228515625,-1.2789636850357056,-9.812965393066406,1.1186445951461792
1780751935053554400,5.448554443359375,-1.2335001230239868,-9.77826976776123,1.1437692642211914
1780751935150588000,5.545587890625,-1.2478569746017456,-9.762716293334961,1.1437692642211914
1780751935247622000,5.642621826171875,-1.2574282884597778,-9.820143699645996,1.1473584175109863
1780751935344655600,5.739655517578125,-1.2251251935958862,-9.757930755615234,1.1748759746551514
1780751935402876000,5.7978759765625,-1.2729816436767578,-9.842875480651855,1.164108157157898
1780751935499909600,5.89490966796875,-1.2059825658798218,-9.820143699645996,1.1126625537872314
1780751935596943400,5.991943359375,-1.200000524520874,-9.77826976776123,1.200000524520874
1780751935693977000,6.08897705078125,-1.2705888748168945,-9.784252166748047,1.1784651279449463
1780751935752197400,6.147197265625,-1.2526426315307617,-9.80817985534668,1.1102696657180786
1780751935849231000,6.244231201171875,-1.2502498626708984,-9.789037704467773,1.1389836072921753
1780751935946265000,6.34126513671875,-1.2263215780258179,-9.787840843200684,1.1521440744400024
1780751936004485000,6.399485107421875,-1.2203395366668701,-9.803394317626953,1.1593226194381714
1780751936101518800,6.496518798828125,-1.2011969089508057,-9.77826976776123,1.1389836072921753
1780751936198552600,6.593552490234375,-1.2394821643829346,-9.828518867492676,1.1162517070770264
1780751936295586600,6.690586669921875,-1.2011969089508057,-9.77109146118164,1.1461620330810547
1780751936353806600,6.748806640625,-1.2729816436767578,-9.829715728759766,1.0839486122131348
1780751936450840300,6.84584033203125,-1.26699960231781,-9.7998046875,1.0875378847122192
1780751936547874300,6.942874267578125,-1.2430713176727295,-9.797411918640137,1.1174482107162476
1780751936644907800,7.03990771484375,-1.2478569746017456,-9.798608779907227,1.1306086778640747
1780751936703128000,7.098128173828125,-1.168893814086914,-9.77826976776123,1.0863415002822876
1780751936800162000,7.195162109375,-1.2059825658798218,-9.772287368774414,1.1461620330810547
1780751936897195500,7.292195556640625,-1.2335001230239868,-9.804591178894043,1.085145115852356
1780751936994229200,7.389229248046875,-1.2634103298187256,-9.80817985534668,1.089930772781372
1780751937052449500,7.447449462890625,-1.2550355195999146,-9.811769485473633,1.0492527484893799
1780751937149483300,7.544483154296875,-1.2765709161758423,-9.811769485473633,1.0959128141403198
1780751937246517000,7.64151708984375,-1.306481122970581,-9.780662536621094,1.109073281288147
1780751937304737300,7.6997373046875,-1.2526426315307617,-9.787840843200684,1.0660024881362915
1780751937401771000,7.79677099609375,-1.246660590171814,-9.817750930786133,1.0396814346313477
1780751937498804700,7.8938046875,-1.1928220987319946,-9.779465675354004,1.0755738019943237
1780751937595838500,7.99083837890625,-1.1808580160140991,-9.748359680175781,1.1258230209350586
1780751937654058800,8.049058837890625,-1.1676974296569824,-9.796216011047363,1.0875378847122192
1780751937751092500,8.146092529296874,-1.2011969089508057,-9.762716293334961,0.9463613629341125
1780751937848126200,8.243126220703125,-1.26699960231781,-9.781859397888184,0.8470591902732849
1780751937945160000,8.340159912109375,-1.2478569746017456,-9.879964828491211,1.057627558708191
1780751938003380000,8.3983798828125,-1.7156537771224976,-9.868000984191895,0.8877372145652771
1780751938100414000,8.4954140625,-1.0265209674835205,-10.051051139831543,1.0875378847122192
1780751938197447400,8.592447509765625,-0.9559326171875,-10.262816429138184,0.8027920126914978
1780751938294481200,8.689481201171875,-0.9248259663581848,-10.031908988952637,0.7824530005455017
1780751938352701400,8.747701416015625,-0.9272187948226929,-9.598808288574219,1.3519448041915894
1780751938449735200,8.844735107421876,-0.13519448041915894,-9.814162254333496,1.3818551301956177
1780751938546768600,8.9417685546875,1.140179991722107,-9.739984512329102,1.3722838163375854
1780751938604989000,8.999989013671875,1.2095718383789062,-10.353743553161621,1.3962119817733765
1780751938702022700,9.097022705078125,-0.7310073375701904,-11.315658569335938,1.6366907358169556
1780751938799056400,9.194056396484376,-3.1453654766082764,-7.17368221282959,-3.689732551574707
1780751938896090000,9.291090087890625,-4.778466701507568,-13.299307823181152,4.758127689361572
1780751938954310400,9.349310302734375,3.3332018852233887,-7.45364236831665,-0.9559326171875
1780751939051344100,9.44634423828125,0.1579262912273407,-9.438488960266113,0.17946170270442963
1780751939148377900,9.5433779296875,2.8582265377044678,-6.172286033630371,1.628315806388855
1780751939245411300,9.640411376953125,4.735395908355713,-13.441680908203125,3.9218363761901855
1780751939303631600,9.698631591796875,-5.588437080383301,-14.648859977722168,-0.015553346835076809
1780751939400665000,9.7956650390625,-2.0817556381225586,-9.772287368774414,1.2478569746017456
1780751939497698800,9.89269873046875,-1.3459627628326416,-6.555137634277344,0.16749759018421173
1780751939594732500,9.989732666015625,-0.05383851006627083,-8.054241180419922,2.9180471897125244
1780751939652952800,10.047952880859375,-0.7621139883995056,-8.616554260253906,3.8057844638824463
1780751939749986600,10.144986572265625,1.805384635925293,-11.874382019042969,1.6259230375289917
1780751939847020000,10.24202001953125,-2.998206853866577,-7.952546119689941,-2.045863389968872
1780751939905240300,10.300240234375,-2.1822543144226074,-13.000205039978027,0.3577269911766052
1780751940002274000,10.397274169921875,0.037088751792907715,-8.894122123718262,9.153742790222168
1780751940099307800,10.494307861328124,2.304288148880005,-7.3914289474487305,-3.59043025970459
1780751940196341500,10.591341552734375,2.7433712482452393,-5.358726501464844,1.4428720474243164
1780751940254561500,10.6495615234375,-0.13519448041915894,-17.68415641784668,2.3150558471679688
1780751940351595300,10.74659521484375,-4.777270317077637,-14.443077087402344,-2.4646072387695312
1780751940448628700,10.843628662109374,-2.5663022994995117,-11.69013500213623,0.19142581522464752
1780751940545662500,10.940662353515625,-1.0839486122131348,-7.277770042419434,0.4833501875400543
1780751940603882800,10.9988828125,-1.2346965074539185,-10.24487018585205,0.7561319470405579
1780751940700916200,11.095916259765625,1.8699909448623657,-5.602794170379639,3.253042459487915
1780751940797950000,11.192949951171874,-1.0001999139785767,-15.651453018188477,4.883750915527344
1780751940894983700,11.289983642578125,-3.7124643325805664,-6.419943332672119,-0.23808585107326508
1780751940953203700,11.34820361328125,-3.589233875274658,-23.761924743652344,1.4679967164993286
1780751941050237400,11.445237548828125,2.9838497638702393,-4.011567115783691,3.184846878051758
1780751941147271200,11.542271240234374,1.4213366508483887,-6.427121639251709,-0.3242274820804596
1780751941244304600,11.6393046875,-4.833501815795898,-15.708880424499512,1.8340985774993896
1780751941302525000,11.69752490234375,4.194618225097656,-10.514062881469727,5.769095420837402
1780751941399558400,11.794558349609375,1.5696916580200195,-6.376872539520264,-0.9559326171875
1780751941496592100,11.891592041015626,-0.5874379873275757,-9.220742225646973,-3.8919260501861572
1780751941554812400,11.9498125,-2.062613010406494,-7.500302791595459,1.5290136337280273
1780751941651846000,12.046845947265625,0.4175475537776947,-6.928418159484863,1.4033905267715454
1780751941748879600,12.143879638671875,3.372683525085449,-8.85224723815918,0.5144568681716919
1780751941845913300,12.240913330078126,-2.9551360607147217,-10.348958015441895,0.2787638306617737
1780751941904133400,12.29913330078125,-3.372683525085449,-7.83410120010376,-2.2851455211639404
1780751942001167000,12.3961669921875,-3.071187973022461,-10.996216773986816,7.6151580810546875
1780751942098200600,12.49320068359375,2.342573404312134,-6.999006271362305,-1.2993026971817017
1780751942195234300,12.590234375,3.524627685546875,-3.94815731048584,1.1389836072921753
1780751942253454300,12.648454345703126,-1.7060825824737549,-18.017953872680664,1.5314065217971802
1780751942350488000,12.745488037109375,-5.319244861602783,-12.285947799682617,-1.7443677186965942
1780751942447521500,12.842521484375,-2.045863389968872,-13.665410041809082,-1.1102696657180786
1780751942544555300,12.93955517578125,-0.9487541913986206,-6.099305152893066,2.2983062267303467
1780751942602775300,12.997775390625,-0.4414757788181305,-9.639486312866211,0.04426721855998039
1780751942699809000,13.09480908203125,1.8472590446472168,-5.715256690979004,4.36091947555542
1780751942796842500,13.191842529296874,-1.7515461444854736,-16.39322853088379,3.8213376998901367
1780751942855062800,13.250062744140624,-2.9958138465881348,-5.9437713623046875,-1.8005990982055664
1780751942952096300,13.34709619140625,-4.786841869354248,-20.857038497924805,3.755535125732422
1780751943010316300,13.40531640625,0.363709032535553,-6.387639999389648,7.110272407531738
1780751943107350000,13.50235009765625,2.076970100402832,-6.343372821807861,-1.7395820617675781
1780751943204383500,13.599383544921874,-0.5443671345710754,-8.579465866088867,1.8687944412231445
1780751943301417200,13.696417236328125,-4.660022258758545,-14.812768936157227,5.911468505859375
1780751943359637500,13.754637451171876,0.5096712112426758,-9.58325481414795,0.4307080805301666
1780751943456671000,13.8516708984375,-0.5970092415809631,-10.985448837280273,-4.9435715675354
1780751943553704400,13.948704345703124,-3.8500516414642334,-9.014959335327148,2.8390841484069824
1780751943650738200,14.04573828125,0.592223584651947,-6.911668300628662,2.3820550441741943
1780751943708958200,14.103958251953125,3.2171499729156494,-6.313462734222412,4.0797624588012695
1780751943805991700,14.20099169921875,-2.1990039348602295,-12.723834037780762,-1.3710874319076538
1780751943903025400,14.298025390625,-1.9573289155960083,-18.26561164855957,0.380458801984787
1780751943961245400,14.356245361328124,-3.4337005615234375,-13.350753784179688,5.229514122009277
1780751944058279200,14.453279052734375,2.245664119720459,-6.38165807723999,-1.7611174583435059
1780751944155312600,14.550312744140625,2.5938198566436768,-4.42193603515625,1.588834285736084
1780751944252346000,14.64734619140625,8.665607452392578,-14.017154693603516,2.5256242752075195
1780751944310566400,14.70556640625,-7.332805156707764,-14.638092994689941,0.5228317379951477
1780751944407599900,14.802599853515625,-0.4498506486415863,-11.578868865966797,1.215553879737854
1780751944504633600,14.899633544921874,-0.27397820353507996,-6.145965099334717,0.21774685382843018
1780751944601667000,14.9966669921875,0.9080761671066284,-7.903493404388428,1.5469598770141602
1780751944659887000,15.05488720703125,1.2861422300338745,-7.472784996032715,4.715056896209717
1780751944756920800,15.1519208984375,-0.6484549641609192,-13.2358980178833,5.458028316497803
1780751944853954300,15.248954345703124,-2.5148565769195557,-5.854040622711182,-3.1381869316101074
1780751944950987800,15.34598779296875,-3.473181962966919,-13.032508850097656,6.534798622131348
1780751945009207800,15.404207763671875,3.5581271648406982,-6.0741801261901855,1.970489501953125
1780751945106241500,15.501241455078125,2.4777679443359375,-6.457031726837158,-0.22013968229293823
1780751945203275000,15.59827490234375,-2.4646072387695312,-16.57388687133789,-0.32183465361595154
1780751945261495000,15.6564951171875,1.9908283948898315,-11.722437858581543,5.412564754486084
1780751945358528800,15.75352880859375,-0.4007977843284607,-6.879364967346191,0.7980063557624817
1780751945455562200,15.850562255859375,-0.275174617767334,-7.987242221832275,-5.37069034576416
1780751945552595700,15.947595703125,-2.149951219558716,-9.026923179626465,-1.4069796800613403
1780751945610815700,16.005815673828124,0.33499518036842346,-6.80877685546875,0.6867401003837585
1780751945707849500,16.102849365234373,2.3772692680358887,-12.697513580322266,2.148754835128784
1780751945804883000,16.199883056640626,-2.4335005283355713,-8.952746391296387,-3.9146578311920166
1780751945901916400,16.29691650390625,-2.142772674560547,-17.826528549194336,-0.6891329288482666
1780751945960136400,16.355136474609374,-1.6055840253829956,-9.615557670593262,11.229516983032227
1780751946057170000,16.452169921875,1.573280930519104,-8.616554260253906,-4.774877548217773
1780751946154203600,16.54920361328125,2.5710878372192383,-4.694717884063721,0.6197410821914673
1780751946212423700,16.607423583984374,2.6488547325134277,-18.253646850585938,0.48454657196998596
1780751946309457200,16.70445703125,-5.100301265716553,-14.548361778259277,-4.344169616699219
1780751946406491000,16.801490966796877,-2.4526431560516357,-12.728620529174805,-0.5240281820297241
1780751946503524000,16.898524169921874,-1.8963119983673096,-7.643871784210205,0.6364908218383789
1780751946561744400,16.956744384765624,-0.8279166221618652,-10.855039596557617,-0.5659025311470032
1780751946658777900,17.05377783203125,1.3160524368286133,-4.351347923278809,3.001796007156372
1780751946755811300,17.150811279296875,-1.3914263248443604,-14.809179306030273,7.149754047393799
1780751946852844500,17.247844482421876,-2.5459632873535156,-9.452845573425293,-1.9202401638031006
1780751946911064800,17.30606494140625,-4.716253280639648,-21.463619232177734,0.6065805554389954
1780751947008098300,17.403098388671875,2.155933141708374,-5.566901683807373,1.439282774925232
1780751947105131800,17.5001318359375,1.8221344947814941,-6.165107727050781,-1.1868400573730469
1780751947163351800,17.558351806640626,0.9224331378936768,-5.814558982849121,1.1497513055801392
1780751947260385300,17.65538525390625,3.893122434616089,-9.610772132873535,6.616154670715332
1780751947357419000,17.7524189453125,-1.5565310716629028,-13.795819282531738,-1.6271194219589233
1780751947454452500,17.849452392578126,0.15912270545959473,-9.80219841003418,-3.8979079723358154
1780751947512672500,17.907672607421876,0.2991028428077698,-7.203592777252197,-0.18424734473228455
1780751947609706000,18.0047060546875,2.861815929412842,-5.029713153839111,2.472982168197632
1780751947706739500,18.101739501953126,1.1868400573730469,-10.238887786865234,3.2518460750579834
1780751947764959500,18.15995947265625,-0.7668996453285217,-14.273186683654785,4.693521499633789
1780751947861993000,18.256992919921874,-3.851248025894165,-12.45105266571045,-6.296712875366211
1780751947959026400,18.3540263671875,-4.240081787109375,-10.638489723205566,7.039684295654297
1780751948056060000,18.451059814453124,0.3002992272377014,-7.341179847717285,-2.746960401535034
1780751948114280000,18.509280029296875,2.0231316089630127,-5.0117669105529785,-1.0444670915603638
1780751948211313400,18.6063134765625,-3.510270833969116,-16.006786346435547,2.812762975692749
1780751948308347000,18.703346923828125,-7.793423175811768,-16.338193893432617,1.4608181715011597
1780751948405380400,18.80038037109375,-2.455035924911499,-9.694520950317383,-2.045863389968872
1780751948463600400,18.858600341796876,-1.2406785488128662,-11.089536666870117,-3.812962770462036
1780751948560633900,18.9556337890625,1.1868400573730469,-7.618747234344482,-2.39401912689209
1780751948657667300,19.052667236328126,-0.7513462901115417,-7.470392227172852,1.934597134590149
1780751948715887400,19.110887451171877,2.819941520690918,-8.189435958862305,5.320441246032715
1780751948812920800,19.2079208984375,-1.7790635824203491,-13.919049263000488,2.0003998279571533
1780751948909954300,19.304954345703123,-3.2709884643554688,-10.029516220092773,-4.638486862182617
1780751949006987800,19.40198779296875,-3.249453067779541,-10.247262954711914,2.6081767082214355
1780751949065207800,19.460207763671875,3.926621913909912,-8.017151832580566,-1.5397813320159912
1780751949162241300,19.5572412109375,0.259621262550354,-5.20678186416626,2.2241287231445312
1780751949259274800,19.654274658203125,-1.9657038450241089,-11.157732009887695,4.470989227294922
1780751949356308000,19.751307861328126,-1.9645073413848877,-15.716058731079102,1.8867406845092773
1780751949414528300,19.8095283203125,-1.3351950645446777,-9.212367057800293,-0.698704183101654
1780751949511561500,19.9065615234375,-1.4452649354934692,-14.151153564453125,-5.179264545440674
1780751949608595000,20.003594970703126,1.6857435703277588,-8.782855987548828,0.23808585107326508
1780751949666815000,20.06181494140625,1.4632110595703125,-8.462217330932617,0.8937192559242249
1780751949763848400,20.158848388671874,2.2169501781463623,-6.873383045196533,2.8773691654205322
1780751949860882000,20.2558818359375,0.349352091550827,-14.94556999206543,4.030709743499756
1780751949957915100,20.3529150390625,-4.177868366241455,-6.853044033050537,-0.8745766878128052
1780751950016135400,20.411135498046875,-1.195214867591858,-14.913267135620117,-4.348955154418945
1780751950113169000,20.5081689453125,-0.7668996453285217,-7.043273448944092,4.810770034790039
1780751950210202000,20.6052021484375,0.9391828775405884,-6.244070529937744,-0.7585247755050659
1780751950268422100,20.663422119140623,1.25144624710083,-6.013163089752197,0.3768695592880249
1780751950365455600,20.76045556640625,5.706881999969482,-18.063417434692383,0.16271193325519562
1780751950462489000,20.857489013671874,-2.7972097396850586,-11.321640014648438,-1.1377872228622437
1780751950559522300,20.954522216796875,-1.6390835046768188,-12.821940422058105,-2.5423741340637207
1780751950617742300,21.012742431640625,-0.33499518036842346,-6.897311210632324,-3.029313564300537
1780751950714776000,21.109776123046874,-1.2299108505249023,-8.800801277160645,-0.4366901218891144
1780751950811809300,21.206809326171875,1.770688772201538,-8.079365730285645,4.232903480529785
1780751950908842800,21.3038427734375,-0.18783657252788544,-15.656238555908203,4.71027135848999
1780751950967062500,21.3620625,-2.56510591506958,-9.384650230407715,-2.5292134284973145
1780751951064096000,21.459095947265624,-2.60339093208313,-18.6436767578125,-1.1569297313690186
1780751951161129500,21.55612939453125,2.967100143432617,-5.826523303985596,3.9948174953460693
1780751951258163000,21.653162841796874,2.348555326461792,-6.221338748931885,-1.1365907192230225
1780751951316383000,21.711383056640624,2.913261651992798,-4.876572608947754,2.500499725341797
1780751951413416200,21.808416259765625,5.794219970703125,-11.496315956115723,2.537588357925415
1780751951510449700,21.90544970703125,0.40797626972198486,-7.550551891326904,0.2919243574142456
1780751951568669400,21.96366943359375,-2.36291241645813,-11.770294189453125,-1.4344971179962158
1780751951665703200,22.060703125,-1.3232308626174927,-6.941578388214111,-0.24167509377002716
1780751951762736400,22.157736328125,0.20817556977272034,-7.2921271324157715,2.2995026111602783
1780751951859769900,22.254769775390624,2.389233350753784,-9.80817985534668,1.7084753513336182
1780751951917990000,22.312989990234374,-0.6269195079803467,-14.36172103881836,4.707878589630127
1780751952015023000,22.410023193359375,-3.7160534858703613,-6.379265308380127,-2.4562325477600098
1780751952112056600,22.507056640625,-4.180261135101318,-12.8087797164917,7.395018577575684
1780751952209089800,22.60408984375,3.046063184738159,-7.47637414932251,-3.8117663860321045
1780751952267309800,22.662309814453124,1.6809579133987427,-6.393621921539307,-1.0815558433532715
1780751952364343000,22.759343017578125,-3.146561861038208,-15.086747169494629,2.4837498664855957
1780751952461376500,22.85637646484375,-6.4666032791137695,-16.51406478881836,-1.191625714302063
1780751952519596800,22.9145966796875,-1.0360921621322632,-7.617550849914551,-0.48574298620224
1780751952616630000,23.011630126953126,0.33020952343940735,-6.4666032791137695,-4.5391845703125
1780751952713663500,23.10866357421875,-2.6907291412353516,-10.310672760009766,-0.09092725813388824
1780751952810696700,23.20569677734375,1.633101463317871,-5.647061347961426,2.7768707275390625
1780751952868916700,23.263916748046874,4.2245283126831055,-10.419546127319336,0.5479564070701599
1780751952965950000,23.360949951171875,-2.944368362426758,-9.473184585571289,-3.1968109607696533
1780751953062983400,23.4579833984375,-2.1619153022766113,-21.28774642944336,-1.2717852592468262
1780751953121203500,23.516203369140626,-2.772084951400757,-10.18026351928711,8.639286041259766
1780751953218236700,23.613236572265624,3.975674867630005,-7.823333740234375,-5.834897994995117
1780751953315270100,23.710270263671877,1.5756736993789673,-5.02133846282959,1.755135416984558
1780751953412303400,23.807303466796874,5.889933109283447,-13.585250854492188,2.977867841720581
1780751953470523400,23.8655234375,-5.335994720458984,-14.974284172058105,-3.7639100551605225
1780751953567556900,23.962556884765625,-1.6917256116867065,-12.90329647064209,-0.9475577473640442
1780751953664590000,24.059590087890626,-2.139183521270752,-5.6925249099731445,1.1485549211502075
1780751953761623300,24.156623291015624,1.2239288091659546,-8.498109817504883,3.108276605606079
1780751953819843300,24.21484326171875,-0.9343972206115723,-8.904889106750488,3.3547372817993164
1780751953916876800,24.311876708984375,-0.031106693670153618,-13.036097526550293,5.257031440734863
1780751954013910000,24.408909912109376,-3.1764719486236572,-5.148158073425293,-3.122633457183838
1780751954072130000,24.467130126953126,-4.23649263381958,-20.20020866394043,-1.5014961957931519
1780751954169163300,24.564163330078124,3.5605201721191406,-4.938786029815674,5.994020938873291
1780751954266196500,24.661196533203125,1.4524433612823486,-6.145965099334717,-3.0580272674560547
1780751954363229700,24.758229736328126,-4.502095699310303,-13.088739395141602,3.6023945808410645
1780751954421449700,24.81644970703125,5.436492919921875,-13.031311988830566,3.314059257507324
1780751954518483200,24.913483154296873,0.020338991656899452,-7.539783954620361,-0.22372891008853912
1780751954615516400,25.010516357421874,0.4534398913383484,-8.569893836975098,-5.842076301574707
1780751954712550000,25.1075498046875,-2.9479575157165527,-9.408578872680664,-0.02153540402650833
1780751954770770000,25.16577001953125,0.2021935135126114,-8.519644737243652,2.7876384258270264
1780751954867803100,25.26280322265625,3.9589250087738037,-8.025527000427246,1.6809579133987427
1780751954964836400,25.35983642578125,-1.6378871202468872,-14.21695613861084,-0.26440688967704773
1780751955023056100,25.41805615234375,-3.2506494522094727,-4.679164886474609,-2.1571295261383057
1780751955120089600,25.515089599609375,-5.674578666687012,-17.950956344604492,4.089334011077881
1780751955217122800,25.612122802734376,3.1334011554718018,-7.138986587524414,-1.5517455339431763
1780751955314156300,25.70915625,2.187039852142334,-5.13739013671875,0.19262222945690155
1780751955372376300,25.767376220703124,-2.5088746547698975,-11.076375961303711,2.407179594039917
1780751955469410000,25.86441015625,-2.830709218978882,-14.997015953063965,0.6711867451667786
1780751955566443000,25.961443115234374,-1.6151553392410278,-9.384650230407715,0.672383189201355
1780751955663476500,26.0584765625,0.06939185410737991,-5.504688262939453,-3.968496322631836
1780751955721696500,26.116696533203125,-3.290131092071533,-8.105687141418457,-0.46061834692955017
1780751955818729700,26.213729736328126,0.05742774158716202,-6.9344000816345215,5.185246467590332
1780751955915763200,26.31076318359375,1.0325030088424683,-14.446666717529297,4.77248477935791
1780751955973983000,26.36898291015625,-1.6654045581817627,-12.161520957946777,-0.7250252366065979
1780751956071016200,26.46601611328125,-1.3423734903335571,-14.148759841918945,-3.8153557777404785
1780751956168049400,26.56304931640625,-0.2667997181415558,-6.833901405334473,8.715856552124023
1780751956265083000,26.660082763671873,2.434697151184082,-7.661818027496338,-4.3752760887146
1780751956323303000,26.718302978515624,3.025724172592163,-4.029513359069824,0.6807580590248108
1780751956420335900,26.8153359375,6.775277137756348,-15.53779411315918,2.5842485427856445
1780751956517369300,26.912369384765626,0.08015955984592438,-9.030512809753418,-1.1976077556610107
1780751956575589400,26.97058935546875,-1.9046868085861206,-12.068201065063477,-0.5682953596115112
1780751956672622600,27.06762255859375,0.3158525824546814,-6.047859191894531,-0.23688943684101105
1780751956769655800,27.16465576171875,0.6173482537269592,-9.30449104309082,0.7154539823532104
1780751956866689000,27.26168896484375,2.9802606105804443,-7.077969551086426,1.475175142288208
1780751956924909000,27.319908935546874,0.8470591902732849,-13.596017837524414,4.376472473144531
1780751957021942300,27.4169423828125,-1.0061819553375244,-3.783052682876587,-3.321237802505493
1780751957118975500,27.5139755859375,-5.874379634857178,-20.891735076904297,2.444268226623535
1780751957177195500,27.572195556640626,1.6606189012527466,-5.050052165985107,7.661818027496338
1780751957274228700,27.669228759765623,2.447857618331909,-5.717649936676025,-3.1692936420440674
1780751957371262000,27.766261962890624,-2.4562325477600098,-9.80219841003418,2.169093608856201
1780751957468295200,27.863295166015625,-3.460021495819092,-15.86441421508789,1.688136339187622
1780751957526515200,27.92151513671875,0.35892340540885925,-8.96231746673584,-0.349352091550827
1780751957623548200,28.018548095703125,-1.1808580160140991,-9.267401695251465,-5.30129861831665
1780751957720581600,28.11558154296875,-4.110869407653809,-8.999405860900879,1.2023934125900269
1780751957817614800,28.21261474609375,-0.03469592705368996,-5.685346603393555,3.497110366821289
1780751957875834600,28.270834716796877,3.759124279022217,-7.616354465484619,1.5900306701660156
1780751957972868000,28.3678681640625,-1.0408778190612793,-13.103096961975098,-1.0492527484893799
1780751958069901300,28.4649013671875,-2.2600209712982178,-16.007984161376953,-0.33379876613616943
1780751958166934300,28.561934326171876,0.4953143000602722,-6.134000778198242,9.125029563903809
1780751958225154300,28.620154296875,2.7553353309631348,-7.0408806800842285,-3.084348440170288
1780751958322187500,28.7171875,2.9383862018585205,-4.95074987411499,0.29790642857551575
1780751958419220700,28.814220703125,7.124629497528076,-16.92323875427246,0.7094719409942627
1780751958477440800,28.872440673828127,-6.175875186920166,-16.75454330444336,0.5443671345710754
1780751958574474000,28.969473876953124,-0.9906286001205444,-8.806783676147461,0.656829833984375
1780751958671507200,29.066507080078125,0.5611169338226318,-6.4510498046875,-3.219542980194092
1780751958768540400,29.16354052734375,0.3409772217273712,-9.409774780273438,0.1543370634317398
1780751958826760200,29.22176025390625,-0.6664010882377625,-6.649653911590576,3.091526746749878
1780751958923793700,29.318793701171874,2.9730820655822754,-12.918848991394043,2.748156785964966
1780751959020826600,29.41582666015625,-2.472982168197632,-7.130611419677734,-3.9074792861938477
1780751959117860000,29.512860107421876,-3.751945972442627,-22.663619995117188,0.08614161610603333
1780751959176080000,29.571079833984374,-0.7166503667831421,-8.863015174865723,10.17428207397461
1780751959273113000,29.668113037109375,2.541177749633789,-7.067201614379883,-3.8321053981781006
1780751959370146300,29.765146240234376,0.21655045449733734,-5.322834014892578,0.760917603969574
1780751959428366000,29.823365966796874,6.99541711807251,-17.94497299194336,-1.719243049621582
1780751959525399600,29.920399658203124,-3.641875982284546,-12.30269718170166,-2.774477958679199
1780751959622432500,30.0174326171875,-1.8472590446472168,-15.044872283935547,-4.474578380584717
1780751959719466000,30.114466064453126,-1.9908283948898315,-7.137789726257324,1.643869161605835
1780751959777685800,30.172685791015624,0.8614161610603333,-9.513862609863281,-0.7585247755050659
1780751959874719000,30.269718994140625,3.183650493621826,-7.296912670135498,4.171886444091797
1780751959971752200,30.366752197265626,-1.4488540887832642,-14.545969009399414,3.219542980194092
1780751960068785400,30.463785400390623,-1.730010747909546,-8.739784240722656,-4.455435752868652
1780751960127005200,30.522005126953125,-4.89691162109375,-22.18385887145996,2.0027925968170166
1780751960224038400,30.619038330078126,3.452843189239502,-6.585047721862793,0.641276478767395
1780751960321071600,30.716071533203124,1.9872392416000366,-4.613361835479736,-1.0528420209884644
1780751960379291400,30.77429150390625,0.1495514214038849,-7.066005229949951,0.6376872062683105
1780751960476324900,30.871324951171875,1.1473584175109863,-13.440485000610352,5.047659397125244
1780751960573357800,30.96835791015625,-1.089930772781372,-6.398407936096191,0.42711883783340454
1780751960670391300,31.065391357421873,0.22492532432079315,-6.989434719085693,-4.851448059082031
1780751960728611000,31.123611083984375,-1.5134602785110474,-7.574480056762695,2.495713949203491
1780751960825644300,31.220644287109376,-0.6137589812278748,-7.362715244293213,1.3148560523986816
1780751960922677500,31.317677490234374,4.219742774963379,-9.418149948120117,1.2538390159606934
1780751961019710700,31.414710693359375,-2.094916343688965,-10.49372386932373,-2.2229323387145996
1780751961077930500,31.472930419921877,-1.887937068939209,-5.990431308746338,-2.768495798110962
1780751961174963700,31.569963623046874,-3.487539052963257,-13.152149200439453,6.953542709350586
1780751961271997000,31.666996826171875,2.3569302558898926,-7.077969551086426,-4.813162803649902
1780751961330216700,31.725216796875,1.5984054803848267,-4.882554531097412,-1.7431713342666626
1780751961427250000,31.82225,-3.9589250087738037,-17.87917137145996,3.487539052963257
1780751961524283100,31.919283203125,-6.4510498046875,-16.864614486694336,-0.914058268070221
1780751961621316400,32.01631640625,-0.8279166221618652,-9.103493690490723,0.6628118753433228
1780751961679536000,32.0745361328125,-1.3627125024795532,-8.678768157958984,-5.85284423828125
1780751961776569300,32.1715693359375,-3.0903303623199463,-9.652647018432617,-0.5491527915000916
1780751961873602600,32.2686025390625,-0.1495514214038849,-7.485945701599121,4.584648132324219
1780751961931822600,32.32682250976563,3.2865419387817383,-7.824530124664307,1.2705888748168945
1780751962028855600,32.42385546875,-2.513660192489624,-14.184652328491211,-1.1521440744400024
1780751962125888800,32.520888671875,-2.400001049041748,-14.0985107421875,-2.181057929992676
1780751962222922000,32.617921875,0.5276173949241638,-6.556334018707275,7.81974458694458
1780751962281141800,32.67614184570313,1.8616160154342651,-6.5527448654174805,-2.9180471897125244
1780751962378175000,32.77317504882812,2.1822543144226074,-6.095715522766113,0.2021935135126114
1780751962475208200,32.87020825195312,7.013363361358643,-15.443277359008789,2.0685951709747314
1780751962533428200,32.92842822265625,-5.148158073425293,-16.04148292541504,0.009571290574967861
1780751962630461200,33.02546118164062,-1.628315806388855,-10.74855899810791,0.010767702013254166
1780751962727494400,33.12249438476562,0.6652047038078308,-5.6207404136657715,-2.0961127281188965
1780751962824527600,33.219527587890624,0.8961120843887329,-10.219745635986328,-0.18903298676013947
1780751962882747400,33.27774731445312,-0.13160525262355804,-6.93320369720459,4.681557655334473
1780751962979780600,33.374780517578124,1.073180913925171,-14.416756629943848,3.1645078659057617
1780751963076813800,33.471813720703125,-3.6849467754364014,-5.726024627685547,-2.3533411026000977
1780751963135033600,33.53003369140625,-1.6630117893218994,-13.74078369140625,-2.076970100402832
1780751963232066800,33.62706689453125,-1.3555340766906738,-7.447660446166992,7.334001541137695
1780751963329099800,33.724099853515625,1.6977076530456543,-6.64486837387085,-3.486342668533325
1780751963426133200,33.82113330078125,0.364905446767807,-8.555537223815918,2.469393014907837
1780751963484353000,33.87935302734375,6.410371780395508,-15.366706848144531,1.423729419708252
1780751963581386000,33.976385986328125,-1.3663017749786377,-9.77707290649414,-2.3748764991760254
1780751963678419200,34.073419189453126,-1.9896320104599,-11.307283401489258,-4.346562385559082
1780751963775452400,34.17045239257813,-3.19441819190979,-7.684549808502197,1.3818551301956177
1780751963833672400,34.22867236328125,0.21415762603282928,-9.556933403015137,-0.01196411345154047
1780751963930705400,34.32570532226563,3.9086756706237793,-7.269395351409912,2.53399920463562
1780751964027738600,34.42273852539063,-1.2837493419647217,-14.535201072692871,1.057627558708191
1780751964124771600,34.519771484375,-2.530410051345825,-12.721441268920898,-2.3748764991760254
1780751964182991600,34.57799169921875,-5.763113498687744,-19.99681854248047,4.42193603515625
1780751964280024800,34.67502490234375,3.047259569168091,-6.577869415283203,-1.8687944412231445
1780751964377057800,34.77205786132812,1.0169496536254883,-5.842076301574707,-0.32183465361595154
1780751964435277800,34.83027783203125,-2.5878376960754395,-11.73559856414795,2.249253273010254
1780751964532310800,34.92731079101563,-2.6285157203674316,-14.79123306274414,1.7024933099746704
1780751964629344000,35.02434399414062,-1.3507484197616577,-7.9621171951293945,0.15314064919948578
1780751964726377200,35.12137719726562,0.5790630578994751,-5.441278457641602,-3.019742250442505
1780751964784597000,35.17959692382812,-2.8773691654205322,-9.473184585571289,1.0564311742782593
1780751964881630200,35.27663012695312,-0.10887342691421509,-5.986842155456543,3.135794162750244
1780751964978663400,35.373663330078124,2.8450660705566406,-13.320843696594238,2.4299113750457764
1780751965075696400,35.4706962890625,-2.5734808444976807,-6.358926296234131,-1.734796404838562
1780751965133916200,35.52891625976562,-1.9980069398880005,-12.190235137939453,-2.906083106994629
1780751965230949400,35.625949462890624,0.4893322288990021,-8.445467948913574,8.286344528198242
1780751965327982600,35.722982666015625,2.7984061241149902,-4.9435715675354,-4.011567115783691
1780751965386202400,35.78120239257812,2.021935224533081,-5.06799840927124,-0.061016976833343506
1780751965483235600,35.878235595703124,4.479363918304443,-19.862821578979492,0.503689169883728
1780751965580268800,35.975268798828125,-4.453042984008789,-12.815958023071289,-4.709074974060059
1780751965677301800,36.0723017578125,-2.4466612339019775,-12.111271858215332,-3.500699520111084
1780751965735521500,36.130521484375,0.7824530005455017,-5.911468505859375,-3.218346357345581
1780751965832554800,36.2275546875,-0.7094719409942627,-10.8969144821167,0.21415762603282928
1780751965929588000,36.324587890625,3.7710886001586914,-7.085147857666016,3.8356947898864746
1780751965987807700,36.382807861328125,0.6089733839035034,-15.023337364196777,2.3700907230377197
1780751966084841000,36.479841064453126,-3.153740167617798,-4.981856822967529,-2.8390841484069824
1780751966181874000,36.5768740234375,-5.72841739654541,-21.28176498413086,0.05024927482008934
1780751966278907000,36.673906982421876,4.195814609527588,-5.732006549835205,-0.4498506486415863
1780751966337127000,36.732126953125,2.1367905139923096,-5.642275810241699,-3.937389612197876
1780751966434160000,36.82916015625,0.3026920557022095,-9.336793899536133,3.2685956954956055
1780751966531193000,36.926193115234376,-2.5076780319213867,-14.469398498535156,2.744567632675171
1780751966628226300,37.02322631835938,-1.872383713722229,-9.33440113067627,-0.7968099117279053
1780751966686446000,37.081446044921876,-1.7766708135604858,-10.137192726135254,-4.644468784332275
1780751966783479300,37.17847924804688,-4.037888050079346,-8.660821914672852,0.2584248483181
1780751966880512300,37.27551220703125,-0.6329016089439392,-6.157928943634033,3.8117663860321045
1780751966938732000,37.33373193359375,3.9146578311920166,-7.897511005401611,1.470389485359192
1780751967035765200,37.43076513671875,-2.6943182945251465,-14.078171730041504,-0.882951557636261
1780751967132798500,37.52779858398438,-2.6979074478149414,-14.512469291687012,-2.6811578273773193
1780751967191018200,37.586018310546876,-5.706881999969482,-17.35753631591797,5.424529075622559
1780751967288051200,37.68305126953125,2.7014968395233154,-6.0370917320251465,-3.2554352283477783
1780751967385084400,37.78008447265625,2.1308085918426514,-4.7365922927856445,0.3397808074951172
1780751967482117400,37.87711743164063,6.177071571350098,-16.725830078125,3.2350962162017822
1780751967540337400,37.93533740234375,-5.109872817993164,-15.109478950500488,-0.8386843204498291
1780751967637370400,38.03237036132813,-0.48574298620224,-8.659625053405762,0.7812566161155701
1780751967734403600,38.12940356445313,0.46061834692955017,-5.698507308959961,-2.3952155113220215
1780751967831436500,38.2264365234375,0.7489534616470337,-9.314062118530273,0.24047867953777313
1780751967889656300,38.28465625,-0.4331009089946747,-7.080362319946289,4.096512317657471
1780751967986689500,38.381689453125,0.9020941257476807,-13.919049263000488,3.601198196411133
1780751968083722800,38.47872265625,-2.688336133956909,-5.8683977127075195,-2.9359934329986572
1780751968141942500,38.53694262695313,-0.7513462901115417,-10.924431800842285,-2.5914268493652344
1780751968238975500,38.6339755859375,0.576670229434967,-8.116454124450684,7.636693477630615
1780751968336008700,38.7310087890625,2.3186452388763428,-5.661418437957764,-4.497310161590576
1780751968433041700,38.82804174804688,2.091326951980591,-7.149754047393799,2.9276185035705566
1780751968491261700,38.88626171875,4.275974273681641,-19.978872299194336,1.3495519161224365
1780751968588294700,38.98329467773438,-1.2059825658798218,-10.63370418548584,-2.4777679443359375
1780751968685327600,39.08032763671875,-1.6941183805465698,-12.923635482788086,-3.4480574131011963
1780751968782360800,39.17736083984375,-4.402793884277344,-8.172685623168945,1.4009976387023926
1780751968840580600,39.23558056640625,1.0432707071304321,-9.717252731323242,-0.6496513485908508
1780751968937613800,39.33261376953125,2.1032910346984863,-6.612565517425537,4.3070807456970215
1780751969034646800,39.42964672851563,-0.7561319470405579,-15.019747734069824,2.9419753551483154
1780751969131680000,39.52667993164062,-1.8795621395111084,-6.988238334655762,-3.2781670093536377
1780751969189899800,39.58489965820313,-4.693521499633789,-21.22553253173828,-2.337787628173828
1780751969286932700,39.6819326171875,4.225724697113037,-5.399404525756836,0.8925228714942932
1780751969383966000,39.77896606445312,2.541177749633789,-4.840680122375488,-0.6508477330207825
1780751969442185700,39.83718579101563,1.2550355195999146,-8.159524917602539,3.7184464931488037
1780751969539218700,39.93421875,-0.02273181453347206,-12.673584938049316,3.726821184158325
1780751969636251600,40.03125170898438,-1.2406785488128662,-9.743574142456055,-1.353141188621521
1780751969733284900,40.12828491210937,0.7657032608985901,-6.819544315338135,-3.5844483375549316
1780751969791504600,40.18650463867188,-3.0029923915863037,-6.833901405334473,1.054038405418396
1780751969888537900,40.28353784179688,-0.05503492057323456,-6.942774772644043,2.7457640171051025
1780751969985570800,40.38057080078125,3.5054850578308105,-11.443674087524414,0.7034898400306702
1780751970082604000,40.47760400390625,-2.6321048736572266,-10.631311416625977,-2.7397818565368652
1780751970140823600,40.53582348632813,-1.0241280794143677,-5.062016487121582,-3.2853455543518066
1780751970237856800,40.63285668945313,-5.953342914581299,-13.978869438171387,5.341976642608643
1780751970334889700,40.7298896484375,1.482353687286377,-6.87816858291626,-3.779463291168213
1780751970393109800,40.78810986328125,2.062613010406494,-5.016552448272705,-1.5625132322311401
1780751970490142700,40.88514282226563,-3.4959139823913574,-18.842281341552734,1.2993026971817017
1780751970587175700,40.98217578125,-3.7902309894561768,-13.923834800720215,-3.0269205570220947
1780751970684208600,41.07920874023438,-1.475175142288208,-10.301101684570312,0.09690931439399719
1780751970742428700,41.1374287109375,-0.8410771489143372,-7.95134973526001,-5.631507873535156
1780751970839461600,41.23446166992188,-1.2442678213119507,-9.42891788482666,-0.6939185857772827
1780751970936494600,41.33149462890625,0.45104706287384033,-6.49770975112915,4.3417768478393555
1780751971033527800,41.42852783203125,0.19980068504810333,-14.429917335510254,3.201596736907959
1780751971091747600,41.48674755859375,-1.92741858959198,-13.272987365722656,-0.6065805554389954
1780751971188780500,41.58378051757813,-1.2969099283218384,-11.904293060302734,-4.001996040344238
1780751971285813500,41.6808134765625,-0.1579262912273407,-8.374878883361816,6.613761901855469
1780751971344033500,41.739033447265626,2.093719720840454,-6.9068827629089355,-2.6273193359375
1780751971441066500,41.83606640625,2.4155545234680176,-5.162514686584473,0.18065811693668365
1780751971538099500,41.933099365234376,4.467400074005127,-18.988245010375977,1.5206388235092163
1780751971635132700,42.03013256835938,-2.8354947566986084,-11.647064208984375,-3.5533416271209717
1780751971693352400,42.0883525390625,-1.098305583000183,-8.834300994873047,-0.3696911036968231
1780751971790385400,42.18538549804688,1.6929219961166382,-5.770291805267334,-3.1070802211761475
1780751971887418400,42.28241845703125,0.7896314859390259,-10.336994171142578,0.33020952343940735
1780751971945638400,42.340638427734376,0.7381857633590698,-6.68435001373291,4.145565032958984
1780751972042671400,42.43767138671875,0.9128618240356445,-14.397613525390625,0.4977070987224579
1780751972139704300,42.534704345703126,-2.4299113750457764,-8.549555778503418,-1.8424733877182007
1780751972236737500,42.63173754882813,-1.7838492393493652,-17.333606719970703,-4.541577339172363
1780751972294957000,42.68995703125,-4.6169514656066895,-11.700902938842773,6.9822564125061035
1780751972391990300,42.786990234375,2.0853450298309326,-6.399604320526123,-3.85483717918396
1780751972489023200,42.884023193359376,2.7912275791168213,-5.464010715484619,2.029113531112671
1780751972547243000,42.942242919921874,-1.8460626602172852,-19.88555335998535,1.3196417093276978
1780751972644276200,43.039276123046875,-5.1876397132873535,-15.854843139648438,-4.711467742919922
1780751972741309200,43.13630908203125,-2.097309112548828,-11.138589859008789,-0.5168496966362
1780751972838342400,43.23334228515625,0.16031911969184875,-6.275177478790283,-0.48454657196998596
1780751972935375000,43.330375,1.184447169303894,-7.846065521240234,2.410768747329712
1780751972993595100,43.38859521484375,1.0755738019943237,-5.647061347961426,2.82951283454895
1780751973090628000,43.485628173828125,-1.2646067142486572,-16.426727294921875,5.170889854431152
1780751973187661000,43.5826611328125,-2.4287149906158447,-3.242274761199951,-1.4799607992172241
1780751973245880800,43.640880859375,-0.8769695162773132,-14.129617691040039,-3.142972469329834
1780751973342913800,43.737913818359374,3.1788649559020996,-6.032305717468262,7.47637414932251
1780751973439947000,43.834947021484375,2.8689942359924316,-5.517848968505859,-4.6995038986206055
1780751973498166800,43.89316674804687,1.9441684484481812,-4.864608287811279,0.27038896083831787
1780751973595199700,43.99019970703125,5.178068161010742,-16.813167572021484,2.214557409286499
1780751973692232700,44.08723266601562,-0.7381857633590698,-9.373882293701172,-1.2406785488128662
1780751973789266000,44.184265869140624,-1.7934205532073975,-12.888938903808594,-4.135993957519531
1780751973847485700,44.24248559570312,0.727418065071106,-5.970092296600342,-0.5359922647476196
1780751973944518700,44.3395185546875,0.6747759580612183,-9.227920532226562,-0.12442677468061447
1780751974041551600,44.43655151367187,2.5567309856414795,-7.390232563018799,1.6546368598937988
1780751974138584800,44.533584716796874,-1.5337992906570435,-14.871393203735352,1.195214867591858
1780751974196804600,44.5918046875,-2.6297121047973633,-5.61116886138916,-2.1750757694244385
1780751974293837600,44.68883764648437,-4.985445976257324,-20.40120506286621,2.245664119720459
1780751974390870500,44.78587060546875,2.4095723628997803,-6.067001819610596,0.5754738450050354
1780751974449090300,44.84409033203125,2.644068956375122,-6.083751678466797,-5.416153907775879
1780751974541403600,44.93640356445312,0.8327022790908813,-8.22114086151123,2.7550361156463623
1780751974589920000,44.984919921875,1.4165509939193726,-18.398412704467773,1.415055513381958
1780751974638436600,45.0334365234375,0.9897312521934509,-13.911273002624512,2.237887382507324
1780751974686953200,45.081953125,-3.8653059005737305,-12.299108505249023,-2.41375994682312
1780751974735469600,45.13046948242187,-0.16839489340782166,-7.814061641693115,-0.49202415347099304
1780751974783986200,45.17898608398438,-1.7132610082626343,-12.185748100280762,-0.992124080657959
1780751974832502500,45.22750244140625,0.2560320198535919,-7.292426109313965,-4.197908401489258
1780751974881019100,45.27601904296875,-2.20947265625,-6.413661956787109,0.3412763178348541
1780751974929535700,45.32453564453125,-1.3462618589401245,-9.399904251098633,-1.9184455871582031
1780751974978052000,45.37305200195313,0.9684949517250061,-7.560422420501709,2.7550361156463623
1780751975026568700,45.421568603515624,1.1380863189697266,-7.3522467613220215,3.8898322582244873
1780751975075085000,45.4700849609375,2.871387243270874,-10.19192886352539,0.4411766827106476
1780751975123601700,45.5186015625,-0.0526420995593071,-14.726028442382812,3.545564889907837
1780751975172118000,45.56711791992188,-2.08713960647583,-11.278270721435547,-1.9962122440338135
1780751975220634600,45.615634521484374,-2.352742910385132,-5.583950519561768,-1.9468603134155273
1780751975317667800,45.712667724609375,-4.428516387939453,-17.096118927001953,3.990330934524536
1780751975366184200,45.76118408203125,2.1807587146759033,-6.141777515411377,5.876772403717041
1780751975414700800,45.80970068359375,1.8391833305358887,-6.52462911605835,-1.4781662225723267
1780751975463217200,45.85821704101563,2.664108991622925,-5.913262844085693,-3.7495529651641846
1780751975511733800,45.906733642578125,2.444866418838501,-4.702793598175049,0.25274190306663513
1780751975560250400,45.95525048828125,-1.059422254562378,-10.611570358276367,2.4640090465545654
1780751975608766700,46.0037666015625,1.9040886163711548,-18.492332458496094,1.3286148309707642
1780751975657283300,46.05228344726562,-0.5727819204330444,-14.187045097351074,1.7428722381591797
1780751975705799700,46.100799560546875,-1.6238292455673218,-10.130313873291016,-2.602792739868164
1780751975754316000,46.14931591796875,-1.093519926071167,-7.456633567810059,0.851844847202301
1780751975802832600,46.19783251953125,-1.2185449600219727,-12.131610870361328,-1.9770697355270386
1780751975851349200,46.24634936523437,0.37148571014404297,-7.621738433837891,-3.312563896179199
1780751975899865900,46.29486596679688,-2.5357937812805176,-7.192226886749268,1.3184453248977661
1780751975948382200,46.34338232421875,-0.28175488114356995,-9.708279609680176,-2.7182464599609375
1780751975996898800,46.39189892578125,0.8273184299468994,-8.014161109924316,3.704089403152466
1780751976045415200,46.44041528320312,0.37477585673332214,-7.419544696807861,4.606781959533691
1780751976093931800,46.48893188476563,2.618645191192627,-9.740283966064453,0.03409772366285324
1780751976142448400,46.537448486328124,-0.6125625967979431,-14.390435218811035,3.8949170112609863
1780751976190964700,46.58596484375,-1.7341982126235962,-11.899506568908691,-0.5877370834350586
1780751976239481300,46.6344814453125,-2.7798616886138916,-6.018846035003662,-2.1230318546295166
1780751976287997700,46.68299780273438,-2.2893331050872803,-12.534502029418945,-4.7850470542907715
1780751976336514300,46.731514404296874,-4.467998027801514,-17.711074829101562,2.925823926925659
1780751976385030700,46.78003076171875,-0.45224347710609436,-9.330513000488281,7.220043182373047
1780751976433547300,46.82854736328125,2.9551360607147217,-6.504589080810547,-1.5137593746185303
1780751976482064000,46.87706396484375,1.7826528549194336,-6.7040910720825195,-3.559921979904175
1780751976530580500,46.92558056640625,2.014756679534912,-5.0943193435668945,0.04307080805301666
1780751976579096800,46.97409692382813,0.953240692615509,-7.832605838775635,2.347957134246826
1780751976627613200,47.02261328125,1.1623135805130005,-17.391633987426758,1.4015958309173584
1780751976676129800,47.0711298828125,0.9756734371185303,-13.949258804321289,2.274078845977783
1780751976724646400,47.119646484375,-3.578765392303467,-12.37657642364502,-1.8098711967468262
1780751976773162800,47.16816284179688,-0.35473597049713135,-8.9581298828125,-0.24885354936122894
1780751976821679400,47.216679443359375,-1.6917256116867065,-10.52363395690918,-1.8472590446472168
1780751976870195700,47.26519580078125,0.7671987414360046,-7.997710704803467,-4.677370071411133
1780751976918712300,47.31371240234375,-1.2783654928207397,-7.3277201652526855,0.7896314859390259
1780751976967229000,47.36222900390625,-2.0338993072509766,-10.14317512512207,-0.86470627784729
1780751977015745300,47.410745361328125,0.5488536953926086,-7.284350395202637,2.0338993072509766
1780751977064262000,47.45926196289062,1.352842092514038,-5.829813480377197,3.6945180892944336
1780751977112778500,47.507778564453126,2.967698335647583,-10.235597610473633,1.1509476900100708
1780751977161294800,47.556294921875,-0.8341978192329407,-15.90569019317627,4.411467552185059
1780751977209811500,47.6048115234375,-0.9188438653945923,-12.466606140136719,0.02063809521496296
1780751977258327800,47.65332788085937,-2.724527597427368,-5.158327579498291,-2.0027925968170166
1780751977306844400,47.701844482421876,-2.052443504333496,-11.619546890258789,-4.074079513549805
1780751977355361000,47.75036108398437,-4.605286121368408,-19.846071243286133,1.8559330701828003
1780751977403877400,47.79887744140625,-0.1785643845796585,-8.745168685913086,7.146762847900391
1780751977452394000,47.84739404296875,2.9536404609680176,-5.9566330909729,-0.26889345049858093
1780751977500910300,47.895910400390626,2.5908286571502686,-6.226722717285156,-3.939483404159546
1780751977549427000,47.94442700195312,1.5951154232025146,-5.662315845489502,-0.26081767678260803
1780751977597943300,47.992943359375,0.01824527233839035,-7.898109436035156,1.2170493602752686
1780751977646460000,48.0414599609375,3.2288150787353516,-16.861623764038086,0.06849455088376999
1780751977694976500,48.0899765625,-0.024825535714626312,-15.63948917388916,3.186342477798462
1780751977743492900,48.13849291992187,-4.799104690551758,-12.556635856628418,-2.5609183311462402
1780751977792009500,48.18700952148438,0.905982494354248,-6.7555365562438965,-0.41874396800994873
1780751977840525800,48.23552587890625,-0.9442676305770874,-11.606685638427734,-1.205085277557373
1780751977889042400,48.28404248046875,0.2554338276386261,-7.132106781005859,-3.814159393310547
1780751977937558800,48.33255883789062,-3.4618160724639893,-7.197610378265381,1.2305090427398682
1780751977986075400,48.38107543945313,-0.37477585673332214,-9.67657470703125,-2.187039852142334
1780751978034592000,48.429592041015624,1.6121642589569092,-7.591827869415283,3.94097900390625
1780751978083108600,48.47810864257813,0.1746760457754135,-7.203891754150391,2.7900311946868896
1780751978131625000,48.526625,3.2934212684631348,-11.974581718444824,-0.3756731450557709
1780751978180141300,48.57514135742188,-0.2153540402650833,-14.34736442565918,2.7702903747558594
1780751978277174500,48.67217456054688,-2.5645077228546143,-7.948059558868408,-2.5525436401367188
1780751978325691000,48.72069091796875,-2.7762725353240967,-19.227825164794922,-1.210170030593872
1780751978374207500,48.76920751953125,-3.8754754066467285,-13.653446197509766,6.908079147338867
1780751978422723800,48.817723876953124,2.865704298019409,-5.292923450469971,3.987339735031128
1780751978471240400,48.86624047851563,2.155933141708374,-6.402595043182373,-3.552743434906006
1780751978519757000,48.914757080078125,2.7726831436157227,-5.535496234893799,-2.734398126602173
1780751978568273400,48.9632734375,2.5211377143859863,-4.910969257354736,1.413260817527771
1780751978616790000,49.0117900390625,-2.83878493309021,-14.80379581451416,2.2995026111602783
1780751978665306600,49.060306640625,5.54596471786499,-16.37946891784668,1.6190435886383057
1780751978713823000,49.108822998046875,-3.4010982513427734,-13.608580589294434,0.2470589429140091
1780751978762339600,49.15733959960937,-1.3423734903335571,-8.931509971618652,-1.6911274194717407
1780751978810856000,49.20585595703125,-0.23359930515289307,-9.300004005432129,0.4776672124862671
1780751978859372500,49.25437255859375,-0.6753742098808289,-11.015059471130371,-4.49043083190918
1780751978907889200,49.30288916015625,-0.08374879509210587,-6.424130439758301,-1.572981834411621
1780751978956405500,49.35140551757812,-2.6718854904174805,-8.57767105102539,0.9819545745849609
1780751979004922000,49.399922119140626,0.14656038582324982,-9.319147109985352,0.029312077909708023
1780751979053438500,49.4484384765625,0.89581298828125,-7.061219692230225,3.9774694442749023
1780751979101955000,49.496955078125,2.909074068069458,-8.18973445892334,2.5842485427856445
1780751979150471400,49.54547143554687,0.35892340540885925,-14.411971092224121,2.74546480178833
1780751979198988000,49.593988037109376,-2.0482561588287354,-12.894323348999023,1.1279168128967285
1780751979247504400,49.64250439453125,-2.420041084289551,-4.4620161056518555,-3.4881372451782227
1780751979296021000,49.69102099609375,0.12921242415905,-10.02173900604248,-3.8291144371032715
1780751979344537600,49.73953759765625,-4.671388149261475,-24.050859451293945,2.168794631958008
1780751979393054000,49.78805395507813,-1.8529419898986816,-9.098408699035645,7.848458290100098
1780751979441570600,49.83657055664062,3.5958142280578613,-4.948955535888672,1.4817553758621216
1780751979490087000,49.8850869140625,2.245065927505493,-6.208776473999023,-4.740779876708984
1780751979538603500,49.933603515625,1.8098711967468262,-5.027918815612793,-2.1337995529174805
1780751979587120000,49.9821201171875,1.8789639472961426,-7.561917781829834,1.5927225351333618
1780751979635636500,50.03063647460937,0.3032902777194977,-18.183656692504883,2.103889226913452
1780751979684153000,50.07915307617188,0.7408776879310608,-13.502099990844727,4.0456647872924805
1780751979732669400,50.12766943359375,-4.083651065826416,-12.907782554626465,-2.4191436767578125
1780751979781186000,50.17618603515625,-0.014955141581594944,-8.204390525817871,-0.6604190468788147
1780751979829702400,50.22470239257812,-0.9050851464271545,-12.090932846069336,-2.093719720840454
1780751979878219000,50.27321899414063,-0.247358039021492,-7.372286796569824,-4.681856632232666
1780751979926735600,50.321735595703124,-1.7027924060821533,-7.786244869232178,0.7519445419311523
1780751979975252000,50.370251953125,-1.3764712810516357,-9.8240327835083,-1.1045867204666138
1780751980023768600,50.4187685546875,0.4369892477989197,-6.889833927154541,2.0042879581451416
1780751980072285000,50.46728491210938,1.7258232831954956,-6.096911907196045,4.17009162902832
1780751980120801500,50.515801513671875,2.6775684356689453,-11.106585502624512,2.0865414142608643
1780751980169318000,50.56431787109375,-0.6909275650978088,-15.388840675354004,4.178765773773193
1780751980217834500,50.61283447265625,-1.0878369808197021,-11.273185729980469,-0.03200400248169899
1780751980266351000,50.66135107421875,-2.0563318729400635,-5.074279308319092,-3.060420274734497
1780751980314867500,50.709867431640625,-0.7235297560691833,-10.778768539428711,-4.598107814788818
1780751980363384000,50.75838403320312,-6.093921184539795,-21.772891998291016,3.2461631298065186
1780751980411900400,50.806900390625,-0.3655036687850952,-9.634101867675781,7.172784805297852
1780751980460417000,50.8554169921875,4.042374610900879,-6.953542709350586,-0.6317051649093628
1780751980508933400,50.903933349609375,2.0027925968170166,-6.556334018707275,-4.122235298156738
1780751980557450000,50.95244995117187,1.9351953268051147,-4.082155227661133,-1.3558331727981567
1780751980605966300,51.00096630859375,1.3615161180496216,-6.6122660636901855,0.4013960063457489
1780751980654483000,51.04948291015625,0.15613168478012085,-17.817853927612305,-0.08763712644577026
1780751980702999600,51.09799951171875,3.138485908508301,-13.167702674865723,4.6402812004089355
1780751980751516200,51.14651611328125,-3.941876173019409,-13.611870765686035,-1.5840486288070679
1780751980800032500,51.195032470703126,-0.4995017349720001,-7.864609718322754,-0.49591249227523804
1780751980848548900,51.243548828125,-0.38285163044929504,-10.196714401245117,0.23210379481315613
1780751980897065500,51.2920654296875,-0.5757729411125183,-10.130313873291016,-4.693820953369141
1780751980945582000,51.34058203125,-0.9245268702507019,-7.189534664154053,0.24257239699363708
1780751980994098400,51.389098388671876,-2.2917258739471436,-9.68913745880127,-0.32691940665245056
1780751981042615000,51.43761499023437,0.20338992774486542,-8.02074146270752,0.7259225845336914
1780751981091131400,51.48613134765625,0.8653044700622559,-5.971588134765625,2.727219581604004
1780751981139648000,51.53464794921875,3.0254251956939697,-9.156435012817383,2.9557342529296875
1780751981188164600,51.58316455078125,-0.7600203156471252,-15.211771965026855,3.6807594299316406
1780751981236681000,51.63168090820312,-0.618245542049408,-13.122239112854004,0.7905287742614746
1780751981285197300,51.680197265625,-2.8609185218811035,-6.655935287475586,-2.2707886695861816
1780751981333714000,51.7287138671875,-1.9716858863830566,-8.237590789794922,-5.395814895629883
1780751981382230500,51.77723046875,-3.4677982330322266,-19.016658782958984,0.26500511169433594
1780751981430747000,51.82574682617187,-2.965604543685913,-12.26231861114502,6.724429607391357
1780751981479263500,51.87426342773438,3.1758737564086914,-6.372086524963379,1.2170493602752686
1780751981527779800,51.92277978515625,1.8951154947280884,-6.294918060302734,-3.185744285583496
1780751981576296400,51.97129638671875,2.1948165893554688,-4.703691005706787,-0.620638370513916
1780751981624812800,52.01981274414062,2.5211377143859863,-5.679962635040283,2.1693928241729736
1780751981673329400,52.06832934570313,-1.2427722215652466,-18.36012840270996,1.4644074440002441
1780751981721845800,52.116845703125,3.067598581314087,-14.023735046386719,3.933800458908081
1780751981770362400,52.1653623046875,-3.5916268825531006,-12.769597053527832,-1.2786645889282227
1780751981818879000,52.21387890625,-0.48484569787979126,-8.467302322387695,-1.1102696657180786
1780751981867395300,52.26239526367188,-0.23300109803676605,-10.349555969238281,0.09152546525001526
1780751981915912000,52.310911865234374,-1.2696914672851562,-10.150951385498047,-4.583152770996094
1780751981964428300,52.35942822265625,-0.6059823632240295,-6.637091636657715,-0.9490532875061035
1780751982012945000,52.40794482421875,-2.784348249435425,-9.512067794799805,-1.3654043674468994
1780751982061461200,52.45646118164063,0.4058825373649597,-8.545666694641113,0.39900317788124084
1780751982109977900,52.504977783203124,0.4459623098373413,-6.56829833984375,4.0334014892578125
1780751982158494200,52.553494140625,2.6703901290893555,-7.342077255249023,2.3946173191070557
1780751982207010800,52.6020107421875,0.6406782865524292,-14.215161323547363,2.7957141399383545
1780751982255527400,52.65052734375,-1.8496519327163696,-14.165510177612305,1.7602201700210571
1780751982304043800,52.699043701171874,-2.0985054969787598,-7.968996524810791,-2.3808584213256836
1780751982352560000,52.74756005859375,-0.9038887619972229,-8.7538423538208,-3.6161532402038574
1780751982401076700,52.79607666015625,-2.940778970718384,-18.413667678833008,-0.08554340898990631
1780751982449593300,52.84459326171875,-3.2742786407470703,-11.756834983825684,6.558128833770752
1780751982498109700,52.893109619140624,3.2844481468200684,-5.970092296600342,1.6477575302124023
1780751982546626300,52.94162622070313,1.958226203918457,-6.578467845916748,-3.892524242401123
1780751982595142700,52.990142578125,2.347957134246826,-4.8367919921875,-1.2418749332427979
1780751982643659000,53.03865893554688,1.9052850008010864,-6.82014274597168,1.3381860256195068
1780751982692175600,53.087175537109374,-1.5284154415130615,-17.42124366760254,1.1333006620407104
1780751982740692200,53.13569213867188,3.7725839614868164,-13.232309341430664,3.956233024597168
1780751982789208600,53.18420849609375,-3.813561201095581,-12.933206558227539,-1.4673985242843628
1780751982837725200,53.23272509765625,-1.1222338676452637,-9.928718566894531,-1.1237293481826782
1780751982886241800,53.28124169921875,-0.6445665955543518,-10.226325988769531,-0.5757729411125183
1780751982934758100,53.32975805664063,0.006580262444913387,-9.65085220336914,-3.5979080200195312
1780751982983274800,53.378274658203125,-0.763310432434082,-5.968596935272217,0.4298107624053955
1780751983031791000,53.426791015625,-3.539881944656372,-8.58604621887207,-1.312164068222046
1780751983080307500,53.475307373046874,1.4709876775741577,-8.486743927001953,0.7010970115661621
1780751983128824000,53.52382397460938,0.39062830805778503,-6.794120788574219,4.867898464202881
1780751983177340400,53.57234033203125,1.7907286882400513,-9.51775074005127,0.8129615187644958
1780751983274373400,53.669373291015624,-1.38933265209198,-12.722040176391602,0.3188436031341553
1780751983322890000,53.71788989257813,-2.6273193359375,-6.389733791351318,-2.0330018997192383
1780751983371406600,53.766406494140625,-1.4691931009292603,-10.9573335647583,-3.2997024059295654
1780751983419923000,53.8149228515625,-4.384249210357666,-19.360925674438477,3.2470602989196777
1780751983468439600,53.863439453125,-1.090229868888855,-9.438788414001465,6.818647384643555
1780751983516956000,53.91195581054688,2.688934564590454,-5.804987907409668,-0.11874382197856903
1780751983565472500,53.960472412109375,2.4604198932647705,-6.041278839111328,-3.7872400283813477
1780751983613988900,54.00898876953125,2.730210542678833,-4.278367042541504,-0.719641387462616
1780751983662505500,54.05750537109375,0.661914587020874,-7.334898948669434,2.1266210079193115
1780751983711021800,54.10602172851563,0.32243284583091736,-19.033109664916992,2.1056840419769287
1780751983759538200,54.1545380859375,1.5601203441619873,-13.453046798706055,4.596612453460693
1780751983808054800,54.2030546875,-3.1498517990112305,-13.484153747558594,-3.1507492065429688
1780751983856571400,54.2515712890625,-0.5042873620986938,-7.493722438812256,-0.7034898400306702
1780751983905087700,54.30008764648438,-1.3815559148788452,-10.306485176086426,-0.7139584422111511
1780751983953604400,54.348604248046875,0.03738785535097122,-9.600004196166992,-5.124827861785889
1780751984002121000,54.39712084960937,-0.3690928816795349,-6.930212497711182,-0.4163511395454407
1780751984050637300,54.44563720703125,-1.9884356260299683,-9.82822036743164,0.04486542567610741
1780751984099153700,54.49415356445313,0.12771691381931305,-9.269794464111328,2.0859432220458984
1780751984147670300,54.542670166015625,0.37896329164505005,-6.719644069671631,3.446561813354492
1780751984196186600,54.5911865234375,2.9679973125457764,-7.8164544105529785,1.2601202726364136
1780751984244703200,54.639703125,1.3537393808364868,-13.910375595092773,3.0801608562469482
1780751984293219600,54.68821948242187,-2.1433708667755127,-14.081761360168457,1.6719847917556763
1780751984341736200,54.736736083984376,-3.1034910678863525,-7.081259727478027,-2.1708884239196777
1780751984390252500,54.78525244140625,-2.0338993072509766,-9.699007034301758,-5.007280349731445
1780751984438769000,54.833768798828125,-3.231207847595215,-19.191036224365234,0.5273182988166809
1780751984487285500,54.88228540039062,-2.808276414871216,-10.125826835632324,8.005785942077637
1780751984535802000,54.930802001953126,3.087339401245117,-5.450251579284668,1.3597214221954346
1780751984584318500,54.979318359375,2.4750759601593018,-6.341877460479736,-4.796113967895508
1780751984632835000,55.0278349609375,2.077867269515991,-4.840082168579102,-1.4590235948562622
1780751984681351700,55.0763515625,0.9529415965080261,-7.530212879180908,1.334297776222229
1780751984729868000,55.124867919921876,0.28624141216278076,-18.029319763183594,1.705484390258789
1780751984778384600,55.17338452148437,2.706880569458008,-13.466207504272461,4.295116424560547
1780751984826901000,55.22190087890625,-4.050450325012207,-13.554741859436035,-2.292922258377075
1780751984875417300,55.27041723632812,-0.27696922421455383,-7.692027568817139,-0.09391828626394272
1780751984923934000,55.318933837890626,-0.9771689176559448,-11.489437103271484,0.3595215976238251
1780751984972450300,55.3674501953125,-0.22582264244556427,-8.778668403625488,-4.840082168579102
1780751985020967000,55.415966796875,-1.6525431871414185,-5.988337993621826,-0.35892340540885925
1780751985069483300,55.46448315429687,-2.1903300285339355,-8.933303833007812,-3.168994426727295
1780751985117999600,55.51299951171875,2.2866411209106445,-8.562417030334473,3.036491870880127
1780751985166516200,55.56151611328125,-0.4325026869773865,-7.8388872146606445,5.262714385986328
1780751985215032800,55.61003271484375,2.863311290740967,-8.895915985107422,-0.09481559693813324
1780751985263549200,55.65854907226562,0.9556335210800171,-14.649757385253906,3.420240879058838
1780751985312065800,55.707065673828126,-1.0639088153839111,-12.08614730834961,-1.953440546989441
1780751985360582400,55.75558251953125,-2.459223508834839,-5.7394843101501465,-2.2809581756591797
1780751985409098800,55.8040986328125,-2.861815929412842,-15.924234390258789,-1.3145569562911987
1780751985457615000,55.85261499023437,-4.545764923095703,-18.175283432006836,2.3650059700012207
1780751985506131700,55.901131591796876,1.1805589199066162,-6.5042901039123535,6.279664039611816
1780751985554648000,55.94964794921875,2.1113669872283936,-6.787839412689209,-0.9723833203315735
1780751985603164700,55.99816455078125,2.6210381984710693,-5.958726406097412,-4.171586990356445
1780751985651681000,56.04668090820312,2.6297121047973633,-4.544867515563965,0.664606511592865
1780751985700197600,56.09519775390625,-0.23210379481315613,-9.647860527038574,2.682354211807251
1780751985748714000,56.1437138671875,3.1274192333221436,-18.0903377532959,1.9280169010162354
1780751985797230600,56.19223071289063,-0.5422734022140503,-13.720444679260254,1.8837496042251587
1780751985845747000,56.24074682617187,-2.5573291778564453,-11.96889877319336,-2.342573404312134
1780751985894263600,56.289263671875,-1.0510473251342773,-8.544171333312988,-0.7911269664764404
1780751985942780000,56.33777978515625,-1.5999010801315308,-11.021341323852539,-2.54536509513855
1780751985991296300,56.386296142578125,0.384347140789032,-7.087540626525879,-3.4830524921417236
1780751986039812900,56.43481274414062,-1.7682958841323853,-6.995716094970703,1.3887344598770142
1780751986088329500,56.48332958984375,-1.963610053062439,-9.751649856567383,-1.2906286716461182
1780751986136845800,56.531845703125,0.26141586899757385,-7.098607540130615,1.7754744291305542
1780751986185362400,56.58036254882813,1.76051926612854,-7.043871879577637,3.7974095344543457
1780751986233878800,56.62887866210937,2.2989044189453125,-11.227124214172363,1.3504493236541748
1780751986282395400,56.6773955078125,-1.2245270013809204,-15.367304801940918,3.4178481101989746
1780751986330911700,56.72591186523437,-2.5980072021484375,-10.04985523223877,-1.1240284442901611
1780751986379428400,56.77442846679688,-1.9701902866363525,-6.320042610168457,-3.9194436073303223
1780751986427944700,56.82294482421875,-2.4771697521209717,-17.2731876373291,-3.3466615676879883
1780751986476461300,56.87146142578125,-5.545665740966797,-16.245769500732422,7.503293514251709
1780751986524977700,56.91997778320312,2.5022943019866943,-5.517251014709473,4.8176493644714355
1780751986573494300,56.96849438476563,2.3458635807037354,-6.081657886505127,-3.61017107963562
1780751986622010600,57.0170107421875,2.6862425804138184,-5.4418768882751465,-2.8313074111938477
1780751986670527000,57.06552685546875,2.8085756301879883,-5.019543647766113,1.1685947179794312
1780751986719043600,57.11404370117187,-2.7747769355773926,-13.724333763122559,2.160120725631714
1780751986767560000,57.162559814453125,4.605286121368408,-17.091333389282227,1.8337994813919067
1780751986816076500,57.21107666015625,-1.5690934658050537,-14.101800918579102,0.9675976634025574
1780751986864593000,57.259593017578126,-1.5858432054519653,-9.356833457946777,-0.8045865893363953
1780751986913109500,57.30810961914062,-1.2562319040298462,-7.560721397399902,0.19292132556438446
1780751986961626000,57.35662622070313,-1.475474238395691,-12.261720657348633,-3.2838499546051025
1780751987010142500,57.405142578125,0.794417142868042,-6.597909450531006,-2.549851655960083
1780751987058658800,57.453658935546876,-2.510071039199829,-8.220841407775879,0.7872386574745178
1780751987107175400,57.50217553710937,-0.5584250092506409,-9.961320877075195,-0.5216353535652161
1780751987155692000,57.55069213867188,-0.3320041298866272,-6.989434719085693,2.037189483642578
1780751987204208400,57.59920849609375,1.866999864578247,-7.004390239715576,2.5612175464630127
1780751987252724700,57.647724853515626,3.171985626220703,-10.75274658203125,0.9681958556175232
1780751987301241300,57.69624145507812,-0.8656035661697388,-15.476179122924805,3.6242289543151855
1780751987349757700,57.7447578125,-2.35872483253479,-10.484451293945312,-1.2317054271697998
1780751987398274300,57.7932744140625,-2.2618155479431152,-7.315756320953369,-3.0969107151031494
1780751987446790700,57.841790771484376,-2.785843849182129,-17.30429458618164,-3.0269205570220947
1780751987495307300,57.89030737304687,-4.965705394744873,-14.204692840576172,6.091528415679932
1780751987543823600,57.93882373046875,2.8241288661956787,-5.628517150878906,4.4273200035095215
1780751987592340200,57.98734033203125,2.478964328765869,-6.449255466461182,-3.384049415588379
1780751987640856600,58.03585668945313,2.331207513809204,-5.934798240661621,-2.8002007007598877
1780751987689373200,58.08437329101562,2.8420751094818115,-5.26600456237793,1.0992028713226318
1780751987737889500,58.1328896484375,-2.6865415573120117,-14.661422729492188,2.80767822265625
1780751987786406000,58.18140600585937,4.330111503601074,-15.065211296081543,2.9512476921081543
1780751987834922500,58.22992260742188,-2.954537868499756,-14.14547061920166,-0.2353939265012741
1780751987883438800,58.27843896484375,-1.1216355562210083,-9.860223770141602,-1.4937195777893066
1780751987931955500,58.32695556640625,-1.1261221170425415,-9.806385040283203,-0.9667003750801086
1780751987980471800,58.37547192382812,-1.296311616897583,-10.580463409423828,-4.217648983001709
1780751988028988200,58.42398828125,1.4763715267181396,-5.931209087371826,-1.6669000387191772
1780751988077504800,58.4725048828125,-2.9958138465881348,-7.853842258453369,0.3287140130996704
1780751988126021400,58.521021484375,0.07417750358581543,-10.022636413574219,0.511465847492218
1780751988174537700,58.56953784179687,-0.4492524564266205,-7.739883899688721,3.3251261711120605
1780751988223054000,58.61805419921875,1.9112670421600342,-7.252645492553711,2.9638099670410156
1780751988271570700,58.66657080078125,2.070389747619629,-11.993425369262695,1.6031911373138428
1780751988320087300,58.71508740234375,-1.5951154232025146,-15.166308403015137,2.432603359222412
1780751988368603600,58.76360375976562,-3.039483070373535,-8.975478172302246,-2.957528829574585
1780751988417120000,58.8121201171875,-1.5595221519470215,-8.002495765686035,-3.578765392303467
1780751988465636600,58.86063671875,-3.0131618976593018,-18.14806365966797,-1.059422254562378
1780751988514153200,58.9091533203125,-3.5183465480804443,-12.280862808227539,6.636194705963135
1780751988562669600,58.95766967773437,2.466402053833008,-5.102395057678223,2.8435707092285156
1780751988611186000,59.00618603515625,2.006680965423584,-6.249155521392822,-3.681058645248413
1780751988659702500,59.05470263671875,2.558525562286377,-5.633601665496826,-2.2085752487182617
1780751988708219100,59.10321923828125,2.0093727111816406,-6.109474182128906,2.053640127182007
1780751988756735500,59.15173559570312,-1.200299620628357,-17.090137481689453,2.089831590652466
1780751988805251800,59.200251953125,2.3793630599975586,-13.885549545288086,4.515256404876709
1780751988853768400,59.2487685546875,-3.0179476737976074,-15.09003734588623,-3.4127633571624756
1780751988902284800,59.297284912109376,-0.7576274871826172,-7.8287177085876465,-0.9634101986885071
1780751988950801400,59.34580151367187,-1.6013965606689453,-10.009177207946777,0.12861421704292297
1780751988999317800,59.39431787109375,-0.0008973084622994065,-10.237093925476074,-3.860520124435425
1780751989047834000,59.44283422851562,-0.32931220531463623,-6.1103715896606445,-1.3130614757537842
1780751989096350700,59.491350830078126,-2.9216363430023193,-8.708378791809082,-0.5096712112426758
1780751989144867000,59.5398671875,0.9170492887496948,-8.414958953857422,0.8192426562309265
1780751989193383700,59.5883837890625,0.7881359457969666,-7.269395351409912,4.405186653137207
1780751989241900000,59.63690014648437,2.3488545417785645,-8.962018013000488,2.678166627883911
1780751989290416600,59.685416748046876,0.44745782017707825,-13.730016708374023,2.4939193725585938
1780751989338933000,59.73393310546875,-2.1062822341918945,-13.52722454071045,0.09661021083593369
1780751989387449600,59.78244970703125,-1.8400806188583374,-6.078666687011719,-3.475275754928589
1780751989435966000,59.83096606445312,-1.9749759435653687,-12.184252738952637,-2.7044878005981445
1780751989484482600,59.879482666015626,-5.567500114440918,-19.66242218017578,1.1222338676452637
1780751989532999000,59.9279990234375,0.28953152894973755,-7.975277900695801,6.912266254425049
1780751989581515300,59.976515380859375,2.155334949493408,-5.554339408874512,0.7863413691520691
1780751989630032000,60.02503198242187,2.477468729019165,-5.916553020477295,-4.770689964294434
1780751989678548200,60.07354833984375,2.1577277183532715,-5.3940205574035645,-0.86470627784729
1780751989727064800,60.12206494140625,0.6119644045829773,-8.749056816101074,2.5292134284973145
1780751989775581200,60.170581298828125,0.7603194117546082,-18.446269989013672,1.409970760345459
1780751989824097800,60.21909790039062,0.99481600522995,-13.209278106689453,3.476173162460327
1780751989872614100,60.2676142578125,-3.556332588195801,-12.22403335571289,-2.2857437133789062
1780751989921130500,60.31613061523438,-0.5679962635040283,-9.24018383026123,-0.4737788736820221
1780751989969647000,60.364647216796875,-1.6031911373138428,-11.13440227508545,-2.5836503505706787
1780751990018163700,60.41316381835937,0.7546364665031433,-7.007680416107178,-4.884648323059082
1780751990066680000,60.46168017578125,-0.49232324957847595,-6.509973049163818,0.33409786224365234
1780751990115196400,60.51019653320313,-2.6479573249816895,-10.30917739868164,0.4977070987224579
1780751990163712800,60.55871264648437,0.129810631275177,-8.486743927001953,2.2654049396514893
1780751990212229400,60.6072294921875,1.2448660135269165,-7.0857462882995605,2.534597396850586
1780751990260746000,60.65574609375,3.5380873680114746,-9.500103950500488,0.6741777658462524
1780751990309262300,60.70426245117188,-0.6628118753433228,-15.900306701660156,3.6792638301849365
1780751990357778700,60.75277880859375,-2.367398977279663,-11.538788795471191,-1.038485050201416
1780751990406295000,60.801294921875,-2.228316068649292,-4.617549419403076,-1.7491533756256104
1780751990454811600,60.849811767578124,-0.9442676305770874,-14.838491439819336,-3.327518939971924
1780751990503328300,60.89832836914063,-6.023332595825195,-18.146568298339844,3.7031922340393066
1780751990551844600,60.9468447265625,1.3824533224105835,-6.883552551269531,5.6153564453125
1780751990600361000,60.99536083984375,1.994118571281433,-6.3499531745910645,-1.6863417625427246
1780751990648877600,61.043877685546875,2.7580273151397705,-5.694020748138428,-3.617349624633789
1780751990697394200,61.09239428710937,2.7182464599609375,-4.4512481689453125,0.3197409212589264
1780751990745910500,61.14091064453125,-1.4557334184646606,-11.491829872131348,2.783750057220459
1780751990794427000,61.18942700195313,3.6113674640655518,-17.586349487304688,2.6551358699798584
1780751990842943200,61.23794311523437,-1.4898312091827393,-13.800305366516113,1.6085749864578247
1780751990891459800,61.2864599609375,-1.8792630434036255,-10.916655540466309,-3.171387195587158
1780751990939976400,61.3349765625,-0.26500511169433594,-7.105187892913818,-0.23688943684101105
1780751990988492800,61.38349291992188,-1.378864049911499,-12.4513521194458,-1.7353945970535278
1780751991037009200,61.43200903320312,0.6251249313354492,-7.825427532196045,-3.3092737197875977
1780751991085525500,61.480525390625,-2.367997169494629,-8.36710262298584,0.735194742679596
1780751991134042000,61.5290419921875,-0.48006004095077515,-8.7176513671875,-0.4169493317604065
1780751991182558700,61.57755883789063,-0.3930211067199707,-7.46710205078125,1.789831280708313
1780751991231075000,61.62607495117187,1.2690932750701904,-7.16022253036499,3.1977083683013916
1780751991279591400,61.67459130859375,3.1663026809692383,-10.558928489685059,1.6854444742202759
1780751991328107800,61.72310766601562,-0.5709872841835022,-15.268003463745117,3.625126361846924
1780751991376624400,61.771624267578126,-1.811964988708496,-10.919048309326172,-1.0959128141403198
1780751991425141000,61.82014111328125,-1.9674984216690063,-4.910071849822998,-2.5109682083129883
1780751991473657300,61.8686572265625,-1.609771490097046,-15.088242530822754,-3.6762728691101074
1780751991522173700,61.91717358398437,-5.847161293029785,-18.576976776123047,4.314259052276611
1780751991570690300,61.965690185546876,2.1209380626678467,-7.341179847717285,5.872584819793701
1780751991619207000,62.01420703125,2.0404794216156006,-6.342475414276123,-1.6558332443237305
1780751991667723300,62.06272314453125,2.1382861137390137,-5.5005011558532715,-3.4250264167785645
1780751991716239600,62.11123950195312,2.6703901290893555,-4.06540584564209,-0.3071786165237427
1780751991764756000,62.159755859375,-0.6777670383453369,-10.595418930053711,1.929213285446167
1780751991813272600,62.2082724609375,2.6479573249816895,-18.213268280029297,2.867199659347534
1780751991861789200,62.2567890625,-1.2595219612121582,-14.447863578796387,1.8975083827972412
1780751991910305500,62.30530541992187,-1.960319995880127,-10.787442207336426,-1.649253010749817
1780751991958822000,62.35382177734375,-0.6308078765869141,-8.011170387268066,-0.6263213157653809
1780751992007338200,62.40233813476563,-1.450947880744934,-12.28953742980957,-3.901796340942383
1780751992055854800,62.450854736328125,1.0767701864242554,-6.879364967346191,-3.3388848304748535
1780751992104371500,62.49937133789062,-1.9013967514038086,-8.134699821472168,1.1485549211502075
1780751992152887800,62.5478876953125,-0.7902296781539917,-9.588937759399414,0.5377869009971619
1780751992201404200,62.59640405273438,-0.4211367964744568,-7.681559085845947,2.305783748626709
1780751992249920800,62.644920654296875,1.8272192478179932,-6.646663188934326,3.1360931396484375
1780751992298437400,62.69343725585937,3.0637102127075195,-10.521241188049316,1.2448660135269165
1780751992346953700,62.74195361328125,-0.9954141974449158,-15.326028823852539,3.006880760192871
1780751992395470000,62.79046997070313,-2.1598215103149414,-10.940882682800293,-1.6151553392410278
1780751992443986400,62.838986328125,-2.6608188152313232,-5.820840358734131,-2.5076780319213867
1780751992492503000,62.8875029296875,-2.3336002826690674,-15.389738082885742,-3.1671998500823975
1780751992541019600,62.93601953125,-4.517050743103027,-16.663616180419922,4.617250442504883
1780751992589536000,62.98453588867188,1.4635101556777954,-7.2559356689453125,5.7062835693359375
1780751992638052400,63.03305224609375,2.6398816108703613,-6.279664039611816,-2.526820659637451
1780751992686568700,63.08156860351563,2.274078845977783,-5.782854080200195,-2.9772696495056152
1780751992735085300,63.130085205078124,1.9555343389511108,-5.161318302154541,0.30538398027420044
1780751992783602000,63.17860180664063,-0.043968115001916885,-10.618748664855957,2.392822742462158
1780751992832118300,63.2271181640625,1.9268203973770142,-17.10868263244629,2.370389938354492
1780751992880634600,63.27563452148438,0.22971096634864807,-12.852747917175293,2.2881367206573486
1780751992929151200,63.324151123046875,-3.099602699279785,-12.27697467803955,-2.2325034141540527
1780751992977667800,63.37266772460937,-0.5335994362831116,-8.210372924804688,-0.06520441919565201
1780751993026184200,63.42118408203125,-1.6396816968917847,-11.583056449890137,-2.1664018630981445
1780751993074700500,63.46970043945313,0.9146564602851868,-7.308577537536621,-4.6076788902282715
1780751993123217200,63.518217041015625,-1.2616157531738281,-8.154739379882812,0.35413774847984314
1780751993171733800,63.56673364257812,-1.4518451690673828,-9.902098655700684,-0.07088737189769745
1780751993220250000,63.61525,-0.33798620104789734,-7.34895658493042,2.268994092941284
1780751993268766500,63.66376635742188,1.0657033920288086,-7.098906517028809,3.8051862716674805
1780751993317282800,63.71228271484375,3.3122646808624268,-9.37896728515625,1.3097712993621826
1780751993365799400,63.76079931640625,-0.6308078765869141,-15.38525104522705,3.090031385421753
1780751993414316000,63.80931591796875,-1.308275818824768,-12.258430480957031,0.06071787327528
1780751993462832400,63.85783227539063,-1.7769699096679688,-5.517848968505859,-1.8957136869430542
1780751993511348700,63.9063486328125,-1.1973086595535278,-12.288938522338867,-4.323830604553223
1780751993559865300,63.954865234375,-5.795416355133057,-19.752750396728516,1.552941918373108
1780751993608382000,64.0033818359375,0.6287141442298889,-8.254341125488281,7.282855033874512
1780751993656898300,64.05189819335938,2.3132612705230713,-6.34008264541626,-0.4345964193344116
1780751993705414700,64.10041455078125,2.2316062450408936,-6.011667728424072,-3.6323046684265137
1780751993753931300,64.14893115234375,2.627917528152466,-4.476073741912842,-0.10348957777023315
1780751993802447600,64.19744750976562,0.9604191780090332,-8.250452041625977,2.3048863410949707
1780751993850964200,64.24596411132812,0.7489534616470337,-18.996021270751953,1.9172492027282715
1780751993899480600,64.29448046875,0.23449662327766418,-13.615160942077637,3.210270643234253
1780751993947997000,64.34299682617187,-2.148754835128784,-11.765508651733398,-3.124129056930542
1780751993996513500,64.39151342773438,-0.8871390223503113,-7.995018482208252,-0.08673982322216034
1780751994045030000,64.44002978515626,-1.2783654928207397,-12.731311798095703,-1.9438693523406982
1780751994093546500,64.48854638671875,0.2847459018230438,-7.158727169036865,-4.535894393920898
1780751994142062800,64.53706274414063,-0.8560323119163513,-7.646862983703613,0.5805585980415344
1780751994190579200,64.5855791015625,-1.445863127708435,-9.54496955871582,-0.3756731450557709
1780751994239095800,64.634095703125,-0.5024927258491516,-7.782057285308838,1.8026927709579468
1780751994287612400,64.6826123046875,1.2074781656265259,-6.134599208831787,3.66520619392395
1780751994336128800,64.73112866210937,3.7552361488342285,-9.401400566101074,0.8982058167457581
1780751994384645000,64.77964501953124,-0.29850462079048157,-15.671492576599121,3.6960136890411377
1780751994433161700,64.82816162109376,-1.654337763786316,-12.66580867767334,-1.2194422483444214
1780751994481678000,64.87667797851563,-2.582453727722168,-4.887041091918945,-2.070389747619629
1780751994530194700,64.92519458007813,-1.7021942138671875,-14.08714485168457,-3.8087754249572754
1780751994578711000,64.9737109375,-5.624030590057373,-19.564315795898438,3.297309637069702
1780751994627227400,65.02222729492188,1.1931211948394775,-7.336992263793945,6.661019802093506
1780751994675744000,65.07074389648437,2.1296122074127197,-5.863013744354248,-1.5571293830871582
1780751994724260400,65.11926025390625,2.263011932373047,-6.034698486328125,-3.38105845451355
1780751994772777000,65.16777685546874,2.6407787799835205,-5.12602424621582,-0.02063809521496296
1780751994821293300,65.21629321289062,-0.5024927258491516,-9.326624870300293,3.050250768661499
1780751994869810000,65.26480981445313,2.4909284114837646,-18.135202407836914,1.428515076637268
1780751994918326300,65.313326171875,-0.844068169593811,-13.664812088012695,3.3122646808624268
1780751994966843000,65.3618427734375,-2.217548370361328,-11.238190650939941,-2.400599241256714
1780751995015359200,65.41035913085938,-0.6317051649093628,-8.160123825073242,-1.3360923528671265
1780751995063875800,65.45887573242187,-1.5568302869796753,-12.66999626159668,-4.167698860168457
1780751995112392200,65.50739208984375,0.6143572330474854,-6.955337047576904,-3.570091485977173
1780751995160908500,65.55590844726562,-0.9475577473640442,-7.755138397216797,0.7498508095741272
1780751995209425200,65.60442504882812,-1.205085277557373,-10.171290397644043,0.3005983531475067
1780751995257941800,65.65294165039063,-0.6909275650978088,-8.355138778686523,2.7571299076080322
1780751995306458000,65.7014580078125,1.674377679824829,-5.876772403717041,3.664308786392212
1780751995354974500,65.74997436523438,4.0528435707092285,-9.854540824890137,2.210369825363159
1780751995403490800,65.79849072265625,-0.9810572862625122,-15.776777267456055,3.5048868656158447
1780751995452007400,65.84700732421875,-1.703689694404602,-11.804691314697266,-0.07118647545576096
1780751995500524000,65.89552392578125,-2.2205393314361572,-5.9213385581970215,-3.014956474304199
1780751995549040400,65.94404028320312,-1.1117652654647827,-10.461421012878418,-4.487140655517578
1780751995597556700,65.992556640625,-5.615057468414307,-19.95374870300293,1.48055899143219
1780751995646073300,66.0410732421875,-1.3543375730514526,-9.55513858795166,7.193423271179199
1780751995694590000,66.08958984375,3.801297903060913,-6.1534423828125,-0.21774685382843018
1780751995743106300,66.13810620117188,1.8242281675338745,-6.072086334228516,-3.6131622791290283
1780751995791622700,66.18662255859375,2.1583259105682373,-5.284249782562256,-0.7938188910484314
1780751995840139300,66.23513916015625,1.3917254209518433,-7.514061450958252,1.7324036359786987
1780751995888656000,66.28365576171875,0.6011967062950134,-18.353548049926758,1.8658034801483154
1780751995937172200,66.33217211914062,1.275374412536621,-12.41396427154541,4.453940391540527
1780751995985688600,66.3806884765625,-3.351447105407715,-12.955340385437012,-2.62313175201416
1780751996034205200,66.429205078125,-0.32721850275993347,-8.674580574035645,-0.6212365627288818
1780751996082721800,66.4777216796875,-1.602293848991394,-11.398509979248047,-1.2649059295654297
1780751996131238100,66.52623803710938,0.3655036687850952,-8.309675216674805,-4.822135925292969
1780751996179754500,66.57475439453125,-0.7537391185760498,-7.048657417297363,-0.09152546525001526
1780751996228270800,66.62327075195313,-2.2295124530792236,-9.946066856384277,-0.6753742098808289
1780751996276787500,66.67178735351563,-0.15882360935211182,-8.576773643493652,1.3648061752319336
1780751996325304000,66.72030395507812,0.8742775917053223,-6.3463640213012695,2.840280532836914
1780751996373820400,66.7688203125,4.168895244598389,-8.1493558883667,2.2570300102233887
1780751996422336800,66.81733666992187,-0.8350951075553894,-15.746268272399902,6.0610198974609375
1780751996470853400,66.86585327148437,-1.7859430313110352,-14.179866790771484,0.08195417374372482
1780751996519369700,66.91436962890624,-2.8875386714935303,-5.504987716674805,-2.8737800121307373
1780751996567886300,66.96288623046875,-1.5720844268798828,-10.200004577636719,-5.346463203430176
1780751996616402700,67.01140258789063,-3.7719857692718506,-18.552452087402344,0.9005986452102661
1780751996664919000,67.0599189453125,-2.3120648860931396,-10.074381828308105,7.086045265197754
1780751996713435600,67.108435546875,3.2201411724090576,-5.722734451293945,0.1986042857170105
1780751996761952300,67.1569521484375,2.1744775772094727,-6.232405662536621,-4.086342811584473
1780751996810468600,67.20546850585937,2.15653133392334,-4.9277191162109375,-0.6885347366333008
1780751996858985000,67.25398486328125,0.8015955686569214,-7.864609718322754,1.85383939743042
1780751996907501600,67.30250146484374,1.0328021049499512,-17.664714813232422,2.0228323936462402
1780751996956018000,67.35101782226562,1.7578272819519043,-13.811970710754395,4.2592244148254395
1780751997004534500,67.39953442382813,-3.2955150604248047,-13.170694351196289,-2.5022943019866943
1780751997053051000,67.44805078125,-0.9553344249725342,-7.514360427856445,-0.7576274871826172
1780751997101567200,67.49656713867188,-1.3639088869094849,-11.121241569519043,-1.2496516704559326
1780751997150083800,67.54508374023438,0.05174478888511658,-8.70090103149414,-4.566402912139893
1780751997198600200,67.59360009765625,-0.26889345049858093,-7.308577537536621,0.3236292600631714
1780751997247116800,67.64211669921875,-2.3512473106384277,-9.454042434692383,-0.43489551544189453
1780751997295633200,67.69063305664062,0.3080759048461914,-8.007880210876465,1.7721842527389526
1780751997344149800,67.73914965820312,0.7082754969596863,-6.993622303009033,2.9138598442077637
1780751997392666000,67.787666015625,3.1259236335754395,-8.906085968017578,1.9172492027282715
1780751997441182700,67.8361826171875,-0.0038883367087692022,-15.253645896911621,2.39192533493042
1780751997489699000,67.88469897460938,-1.2433704137802124,-13.130314826965332,1.2960125207901
1780751997538215400,67.93321533203125,-2.604288339614868,-7.169794082641602,-0.9290133714675903
1780751997586732000,67.98173193359375,-2.554936408996582,-9.827920913696289,-4.455435752868652
1780751997635248400,68.03024829101562,-3.6864423751831055,-17.322540283203125,-0.5279164910316467
1780751997683765000,68.07876489257812,-2.723630428314209,-10.798809051513672,7.09711217880249
1780751997732281300,68.12728125,3.326920747756958,-6.38165807723999,0.7743772268295288
1780751997780797700,68.17579760742187,1.7955143451690674,-6.510272026062012,-3.7393836975097656
1780751997829314300,68.22431420898438,2.0521445274353027,-5.038387298583984,-0.1740778535604477
1780751997877830700,68.27283056640626,2.3727827072143555,-5.926124572753906,1.6582261323928833
1780751997926347300,68.32134716796875,-0.7040880918502808,-17.40120506286621,1.8789639472961426
1780751997974863600,68.36986352539063,2.7382864952087402,-14.91266918182373,2.967100143432617
1780751998023380200,68.41838012695312,-4.160520553588867,-14.655141830444336,-2.501396894454956
1780751998071896600,68.466896484375,-0.18813568353652954,-7.055835723876953,-0.5880361795425415
1780751998120413200,68.5154130859375,-1.1156535148620605,-10.837990760803223,-0.9708877801895142
1780751998168929500,68.56392944335937,-0.8407780528068542,-9.470791816711426,-4.284049987792969
1780751998217446000,68.61244580078124,-0.20039889216423035,-6.059225082397461,-0.7663014531135559
1780751998265962500,68.66096240234376,-2.4110679626464844,-9.135796546936035,-0.6526423692703247
1780751998314478800,68.70947875976563,0.23300109803676605,-8.131709098815918,1.2266206741333008
1780751998362995500,68.75799536132813,0.6690930128097534,-6.8512492179870605,3.4881372451782227
1780751998411511800,68.80651171875,3.1148569583892822,-9.565009117126465,1.77397882938385
1780751998460028200,68.85502807617188,-0.506381094455719,-15.158531188964844,3.2048869132995605
1780751998508544800,68.90354467773437,-2.2046868801116943,-12.766606330871582,-0.49710890650749207
1780751998557061400,68.95206127929687,-1.9866410493850708,-5.849554061889648,-1.51166570186615
1780751998605577700,69.00057763671875,-1.352842092514038,-11.855539321899414,-2.1430718898773193
1780751998654094000,69.04909399414062,-5.198706150054932,-18.578474044799805,0.37956148386001587
1780751998702610700,69.09761059570313,-0.07328019291162491,-8.188239097595215,5.877669811248779
1780751998751127000,69.146126953125,2.39192533493042,-5.903990745544434,0.36221352219581604
1780751998799643600,69.1946435546875,2.0273189544677734,-5.851348876953125,-4.532604217529297
1780751998848160000,69.24315991210938,2.1684954166412354,-4.718646049499512,-1.0426725149154663
1780751998896676400,69.29167626953125,0.8126623630523682,-9.060722351074219,2.625823736190796
1780751998945193000,69.34019287109375,1.2738789319992065,-18.67777442932129,2.554936408996582
1780751998993709300,69.38870922851562,0.5273182988166809,-12.966706275939941,2.7254250049591064
1780751999042226000,69.43722583007812,-3.6792638301849365,-12.645170211791992,-3.1809585094451904
1780751999090742300,69.4857421875,0.16839489340782166,-7.755138397216797,-0.8503493666648865
1780751999139258600,69.53425854492187,-1.6040884256362915,-12.5742826461792,-2.200798511505127
1780751999187775200,69.58277514648438,0.4875376224517822,-7.625028610229492,-3.439981698989868
1780751999236291800,69.63129174804688,-1.3357932567596436,-7.246065139770508,0.8069794178009033
1780751999284808200,69.67980810546875,-1.5080764293670654,-9.063115119934082,-0.1459621787071228
1780751999333324500,69.72832446289063,0.3732803463935852,-7.483253479003906,2.1445672512054443
1780751999381841000,69.7768408203125,1.6109678745269775,-7.314858913421631,3.4911282062530518
1780751999430357200,69.82535717773438,2.525923490524292,-11.567802429199219,1.4572290182113647
1780751999478873900,69.87387377929687,-1.6175481081008911,-14.666208267211914,3.3230323791503906
1780751999527390500,69.92239038085937,-2.0736799240112305,-10.823334693908691,-1.6121642589569092
1780751999575906800,69.97090673828124,-2.2546372413635254,-6.408876419067383,-3.837489366531372
1780751999624423200,70.01942309570312,-1.7353945970535278,-15.068202018737793,-3.525225877761841
1780751999672939500,70.067939453125,-6.574878215789795,-16.081562042236328,5.563312530517578
1780751999721456000,70.1164560546875,2.438286304473877,-6.713363170623779,4.279862403869629
1780751999769972700,70.16497265625,2.704786777496338,-6.761219501495361,-3.1244282722473145
1780751999818489000,70.21348901367188,1.9357935190200806,-5.334498882293701,-2.2459630966186523
1780751999867005400,70.26200537109375,2.8498518466949463,-4.622933387756348,0.6765705943107605
1780751999915522000,70.31052197265625,-2.0440688133239746,-12.64905834197998,2.7762725353240967
1780751999964038400,70.35903833007812,3.704986810684204,-17.304893493652344,2.8348965644836426
1780752000012555000,70.40755493164062,-1.291226863861084,-13.262518882751465,1.5337992906570435
1780752000061071400,70.4560712890625,-1.3869398832321167,-10.629815101623535,-2.3632113933563232
1780752000109587700,70.50458764648438,-0.9251250624656677,-8.493024826049805,0.36281174421310425
1780752000158104300,70.55310424804688,-1.8406788110733032,-11.99193000793457,-2.705684185028076
1780752000206620700,70.60162060546875,1.4093725681304932,-6.690930366516113,-3.555136203765869
1780752000255137000,70.65013696289063,-1.978864312171936,-7.5804619789123535,0.22971096634864807
1780752000303653600,70.69865356445312,-0.9466604590415955,-9.442078590393066,0.032602209597826004
1780752000352170000,70.747169921875,-0.38344982266426086,-7.738986492156982,2.495713949203491
1780752000400686600,70.7956865234375,1.4662020206451416,-7.424928665161133,3.2608189582824707
1780752000449203000,70.84420288085937,2.861217737197876,-10.439287185668945,0.6101697683334351
1780752000497719300,70.89271923828124,-0.92691969871521,-15.96162223815918,3.030808925628662
1780752000546236000,70.94123583984376,-2.461616277694702,-10.540982246398926,-1.4021940231323242
1780752000594752500,70.98975244140625,-1.9914265871047974,-4.893322467803955,-2.1640090942382812
1780752000643268900,71.03826879882813,-1.111167073249817,-15.652350425720215,-3.7118661403656006
1780752000691785200,71.08678515625,-5.957231044769287,-17.569599151611328,3.5742788314819336
1780752000740301600,71.13530151367188,1.6636099815368652,-7.472187042236328,5.958726406097412
1780752000788818200,71.18381811523437,1.678265929222107,-6.3376898765563965,-1.2577273845672607
1780752000837334800,71.23233471679687,2.778067111968994,-5.024927616119385,-4.049253940582275
1780752000885851100,71.28085107421875,2.3682961463928223,-3.90568470954895,0.6661019921302795
1780752000934367500,71.32936743164062,-1.2400803565979004,-12.020045280456543,1.9962122440338135
1780752000982883800,71.3778837890625,3.01196551322937,-17.551952362060547,2.1678972244262695
1780752001031400200,71.42640014648437,-1.0558329820632935,-14.722439765930176,1.7682958841323853
1780752001079916800,71.47491674804688,-1.7437695264816284,-10.567302703857422,-2.0252251625061035
1780752001128433400,71.52343334960938,-1.017846941947937,-7.1024956703186035,0.1737787425518036
1780752001176949800,71.57194970703125,-1.4898312091827393,-12.957134246826172,-2.4472594261169434
1780752001225466000,71.62046606445313,0.9469595551490784,-6.7486572265625,-3.184248685836792
1780752001273982700,71.66898266601562,-2.306680917739868,-7.229315280914307,0.6110670566558838
1780752001322499000,71.7174990234375,-0.5377869009971619,-9.355338096618652,-1.3319048881530762
1780752001371015400,71.76601538085937,0.2641077935695648,-7.265506744384766,3.111267566680908
1780752001419532000,71.81453198242187,1.2936197519302368,-7.307680130004883,4.1036906242370605
1780752001468048400,71.86304833984374,2.765504837036133,-12.378969192504883,0.17228323221206665
1780752001516565000,71.91156494140625,-0.9595218896865845,-14.69671630859375,2.626721143722534
1780752001565081300,71.96008129882813,-1.7817555665969849,-9.633503913879395,-2.045863389968872
1780752001613597700,72.00859765625,-1.825723648071289,-6.158228397369385,-2.3751754760742188
1780752001662114000,72.05711401367188,-2.698206663131714,-17.854345321655273,-1.8693926334381104
1780752001710630400,72.10563037109375,-4.510470867156982,-15.648462295532227,5.3557353019714355
1780752001759147000,72.15414697265625,2.7900311946868896,-6.223133563995361,4.1282172203063965
1780752001807663600,72.20266357421875,1.4913266897201538,-6.43968391418457,-2.3545374870300293
1780752001856180000,72.25117993164062,2.312962293624878,-5.107180595397949,-3.090031385421753
1780752001904696300,72.2996962890625,2.4783661365509033,-4.444368839263916,0.9586246013641357
1780752001953213000,72.348212890625,-1.1333006620407104,-14.293825149536133,1.3591232299804688
1780752002001729300,72.39672924804688,4.617549419403076,-15.54198169708252,2.9796624183654785
1780752002050245600,72.44524560546876,-3.1615169048309326,-14.662618637084961,1.0007981061935425
1780752002098762200,72.49376220703125,-1.80508553981781,-9.98853874206543,-2.054537296295166
1780752002147278600,72.54227856445313,-0.0972084179520607,-7.392924785614014,0.07417750358581543
1780752002195795200,72.59079516601562,-2.032104730606079,-12.456137657165527,-3.4010982513427734
1780752002244311600,72.6393115234375,0.1986042857170105,-6.816254615783691,-3.07627272605896
1780752002292828000,72.68782788085937,-2.808276414871216,-8.164909362792969,-0.3044866919517517
1780752002341344300,72.73634423828125,0.8374879360198975,-9.280263900756836,-0.27367907762527466
1780752002389860900,72.78486083984374,0.8201399445533752,-6.361917018890381,3.628117322921753
1780752002438377500,72.83337744140626,1.6079767942428589,-8.198707580566406,4.125824451446533
1780752002486893800,72.88189379882813,0.8341978192329407,-13.310673713684082,0.9388837814331055
1780752002535410200,72.93041015625,-0.5748756527900696,-13.660026550292969,2.3515465259552
1780752002583926500,72.97892651367188,-2.195713996887207,-8.722436904907227,-2.2366909980773926
1780752002632443100,73.02744311523438,-1.9268203973770142,-7.500601768493652,-3.2470602989196777
1780752002680959500,73.07595947265625,-2.7819554805755615,-19.371694564819336,-1.6088740825653076
1780752002729475800,73.12447583007813,-4.704887390136719,-13.351950645446777,6.944868564605713
1780752002777992400,73.17299243164062,3.2048869132995605,-5.438885688781738,3.019742250442505
1780752002826508800,73.2215087890625,1.965404748916626,-6.231807708740234,-4.178765773773193
1780752002875025400,73.270025390625,1.8855443000793457,-5.513960838317871,-2.24775767326355
1780752002923541800,73.31854174804687,2.680858612060547,-5.6192450523376465,1.5774682760238647
1780752002972058000,73.36705810546874,-1.4126626253128052,-16.785053253173828,3.0454649925231934
1780752003020574500,73.41557446289063,3.3433713912963867,-14.155340194702148,3.420240879058838
1780752003069090800,73.4640908203125,-3.1743783950805664,-13.606487274169922,-1.490728497505188
1780752003117607400,73.512607421875,-0.30568310618400574,-7.780860900878906,-0.1301097273826599
1780752003166123800,73.56112377929688,-1.1150553226470947,-11.413763999938965,-0.32691940665245056
1780752003214640400,73.60964038085937,-1.4003994464874268,-10.19491958618164,-5.173880577087402
1780752003263156700,73.65815673828125,0.4704887568950653,-6.6729841232299805,-1.0259226560592651
1780752003311673300,73.70667333984375,-2.863311290740967,-9.439684867858887,-1.0447661876678467
1780752003360189700,73.75518969726562,0.20877377688884735,-8.508278846740723,0.7648059129714966
1780752003408706000,73.8037060546875,0.3412763178348541,-6.46241569519043,4.413860321044922
1780752003457222400,73.85222241210937,2.819343328475952,-8.312665939331055,2.1744775772094727
1780752003505738800,73.90073876953124,1.3357932567596436,-13.48056411743164,2.950350284576416
1780752003554255400,73.94925537109376,-1.7476578950881958,-14.922539710998535,1.0552347898483276
1780752003602771700,73.99777172851563,-2.6306095123291016,-6.93828821182251,-2.0309081077575684
1780752003651288300,74.04628833007813,-1.35822594165802,-9.218947410583496,-3.397808074951172
1780752003699804700,74.0948046875,-4.253840446472168,-18.817157745361328,-0.12741780281066895
1780752003748321000,74.14332104492188,-3.0541388988494873,-11.021939277648926,6.486343860626221
1780752003796837600,74.19183764648437,3.710669755935669,-5.974279880523682,-0.008075776509940624
1780752003845354000,74.24035400390625,1.5170495510101318,-6.367899417877197,-3.396312713623047
1780752003893870300,74.28887036132812,2.386242389678955,-4.689932346343994,-0.9969097375869751
1780752003942386700,74.33738671875,1.7593228816986084,-6.810571670532227,1.5128620862960815
1780752003990903300,74.3859033203125,-0.41216370463371277,-18.310476303100586,2.1352951526641846
1780752004039419600,74.43441967773437,3.171088218688965,-13.04507064819336,4.2194437980651855
1780752004087936300,74.48293627929688,-2.7667012214660645,-12.629916191101074,-1.3848460912704468
1780752004136452600,74.53145263671875,-0.7680960893630981,-8.775078773498535,-0.3358924686908722
1780752004184969000,74.57996899414063,-0.8398807644844055,-10.767104148864746,-0.20518454909324646
1780752004233485600,74.62848559570313,-0.5590232014656067,-9.451051712036133,-5.108676433563232
1780752004282002000,74.677001953125,0.5009972453117371,-6.92183780670166,-1.0821540355682373
1780752004330518300,74.72551831054687,-2.7987051010131836,-9.204590797424316,-0.5727819204330444
1780752004379034600,74.77403466796875,-0.13938191533088684,-8.526225090026855,0.9936196208000183
1780752004427551000,74.82255102539062,-0.10707881301641464,-7.118049144744873,3.3780672550201416
1780752004476067600,74.87106762695312,2.785245656967163,-8.13260555267334,1.9923239946365356
1780752004524584000,74.919583984375,1.9540387392044067,-12.834502220153809,2.1852452754974365
1780752004573100500,74.9681005859375,-1.0480563640594482,-14.608181953430176,0.1417747437953949
1780752004621617000,75.01661694335938,-2.8492536544799805,-7.269993305206299,-1.8864415884017944
1780752004670133500,75.06513354492188,-2.0506489276885986,-11.07727336883545,-3.145963668823242
1780752004718649900,75.11364990234375,-4.178466320037842,-19.721643447875977,0.6939185857772827
1780752004767166200,75.16216625976563,-1.2538390159606934,-10.00439167022705,7.491329669952393
1780752004815682600,75.2106826171875,2.645564556121826,-5.37906551361084,0.760917603969574
1780752004864199000,75.25919897460938,2.5010979175567627,-6.195915222167969,-4.520939350128174
1780752004912715500,75.30771557617187,2.357827663421631,-5.150251865386963,-1.1994023323059082
1780752004961232000,75.35623193359375,1.6983058452606201,-6.965506553649902,1.9468603134155273
1780752005009748200,75.40474829101562,-0.5303093194961548,-18.432809829711914,2.213959217071533
1780752005058264600,75.4532646484375,2.6350958347320557,-13.585848808288574,3.846761465072632
1780752005106781200,75.50178125,-3.462414264678955,-12.320045471191406,-1.567897081375122
1780752005155297800,75.5502978515625,-0.23599213361740112,-7.802994728088379,-0.44805604219436646
1780752005203814100,75.59881420898438,-1.3310075998306274,-12.408281326293945,-1.8951154947280884
1780752005252330500,75.64733056640625,-0.5312066078186035,-8.678768157958984,-5.38624382019043
1780752005300846800,75.69584692382813,0.14506487548351288,-6.45822811126709,0.15164513885974884
1780752005349363500,75.74436352539063,-2.1876380443573,-9.086444854736328,-1.064207911491394
1780752005397879800,75.7928798828125,0.8772686123847961,-8.408378601074219,1.7976080179214478
1780752005446396200,75.84139624023437,0.5700899958610535,-7.392924785614014,5.818746566772461
1780752005494912500,75.88991259765625,2.2836501598358154,-8.57767105102539,0.9412766098976135
1780752005543428900,75.93842895507812,0.857228696346283,-14.791831016540527,2.14935302734375
1780752005591945500,75.98694555664062,-1.3369896411895752,-13.155738830566406,1.2792627811431885
1780752005640461800,76.0354619140625,-1.8047864437103271,-7.076174736022949,-1.505982756614685
1780752005688978200,76.08397827148437,-1.5137593746185303,-9.816255569458008,-3.1983065605163574
1780752005737494500,76.13249462890624,-4.318147659301758,-18.937397003173828,0.03349951654672623
1780752005786011100,76.18101123046876,-2.3392832279205322,-10.905887603759766,6.74446964263916
1780752005834527700,76.22952783203125,3.5566318035125732,-5.539384365081787,0.8757730722427368
1780752005883044000,76.27804418945313,1.6663018465042114,-6.292226314544678,-3.8796627521514893
1780752005931560400,76.326560546875,2.2067806720733643,-5.362913608551025,-1.1733803749084473
1780752005980076800,76.37507690429688,1.7117655277252197,-7.2421770095825195,1.3992030620574951
1780752006028593400,76.42359350585937,-0.5150550603866577,-17.59292984008789,1.8167506456375122
1780752006077109800,76.47210986328125,3.3801610469818115,-12.948460578918457,4.610371112823486
1780752006125626000,76.52062622070312,-3.851846218109131,-13.875978469848633,-1.6639090776443481
1780752006174142500,76.569142578125,-0.6993024349212646,-8.441878318786621,-0.8877372145652771
1780752006222658800,76.61765893554687,-0.8222336769104004,-9.913464546203613,-0.5407779216766357
1780752006271175400,76.66617553710938,-0.6717849373817444,-9.30329418182373,-4.826323509216309
1780752006319691800,76.71469189453126,-0.1704886108636856,-6.142973899841309,-0.03529413416981697
1780752006368208100,76.7632080078125,-3.327518939971924,-9.311968803405762,-1.5203397274017334
1780752006416724500,76.81172436523437,1.9127626419067383,-7.921738624572754,1.7060825824737549
1780752006465240800,76.86024072265624,-0.24107688665390015,-8.61595630645752,4.867001056671143
1780752006513757400,76.90875732421875,1.9875383377075195,-9.144769668579102,0.19920247793197632
1780752006562273800,76.95727368164063,2.0889341831207275,-13.575080871582031,3.053241729736328
1780752006610790100,77.0057900390625,-2.7693932056427,-13.555938720703125,0.9134600162506104
1780752006659306800,77.054306640625,-2.5884358882904053,-6.685546398162842,-2.8896324634552
1780752006707823000,77.10282299804688,-1.3932210206985474,-10.59960651397705,-3.5850465297698975
1780752006756339700,77.15133959960937,-4.6770710945129395,-18.713666915893555,0.5919244885444641
1780752006804856000,77.19985595703125,-1.4198411703109741,-9.186046600341797,6.0508503913879395
1780752006853372400,77.24837231445312,2.2157537937164307,-5.344967365264893,1.0115658044815063
1780752006901888800,77.296888671875,2.6554348468780518,-5.928816318511963,-3.631706476211548
1780752006950405400,77.3454052734375,2.6327030658721924,-5.07936429977417,-0.09661021083593369
1780752006998921700,77.39392163085938,-0.7016952633857727,-9.185447692871094,2.5522444248199463
1780752007047438000,77.44243798828126,2.5450658798217773,-19.009479522705078,2.140678882598877
1780752007095954400,77.49095434570313,-0.32243284583091736,-13.911870956420898,2.4684956073760986
1780752007144470800,77.539470703125,-2.644068956375122,-11.416156768798828,-2.848057270050049
1780752007192987400,77.5879873046875,-0.7902296781539917,-8.005785942077637,-0.6092724800109863
1780752007241503700,77.63650366210938,-1.6707884073257446,-11.522936820983887,-1.8870397806167603
1780752007290020000,77.68502001953125,0.6101697683334351,-7.135396957397461,-4.043870449066162
1780752007338536400,77.73353637695313,-1.6639090776443481,-7.03788948059082,0.3523431420326233
1780752007387052800,77.782052734375,-1.1078768968582153,-9.720243453979492,-0.5928218364715576
1780752007435569400,77.8305693359375,0.34217363595962524,-7.859525203704834,3.0658040046691895
1780752007484085800,77.87908569335937,1.0450652837753296,-7.379465103149414,3.707080364227295
1780752007532602000,77.92760205078125,3.008376359939575,-11.079666137695312,0.06281159073114395
1780752007581118500,77.97611840820312,-0.43549370765686035,-14.836398124694824,3.9864425659179688
1780752007629635000,78.02463500976563,-2.697608470916748,-10.783554077148438,-1.628614902496338
1780752007678151400,78.0731513671875,-1.5104693174362183,-4.681856632232666,-2.594717025756836
1780752007726667800,78.12166772460938,-1.7365909814834595,-16.667505264282227,-3.0939197540283203
1780752007775184400,78.17018432617188,-6.0849480628967285,-17.37518310546875,4.096512317657471
1780752007823700700,78.21870068359375,2.2642083168029785,-6.113661766052246,5.654240131378174
1780752007872217300,78.26721728515625,1.8975083827972412,-5.689234733581543,-1.674975872039795
1780752007920733700,78.31573364257812,2.45204496383667,-5.7720866203308105,-3.822833299636841
1780752007969250000,78.36425,2.5190439224243164,-5.040181636810303,0.6254240274429321
1780752008017766400,78.41276635742187,-1.7362918853759766,-13.181461334228516,2.219642162322998
1780752008066282800,78.46128271484375,3.1881370544433594,-16.544872283935547,2.801098108291626
1780752008114799400,78.50979931640624,-1.5873386859893799,-13.837095260620117,0.20009979605674744
1780752008163315700,78.55831567382812,-1.5224334001541138,-10.096814155578613,-2.0093727111816406
1780752008211832000,78.60683203125,-0.7872386574745178,-8.921041488647461,-0.3678964674472809
1780752008260348400,78.65534838867187,-1.7673985958099365,-11.266007423400879,-3.38105845451355
1780752008308865000,78.70386499023438,1.5496517419815063,-6.710072994232178,-2.7008986473083496
1780752008357381400,78.75238134765625,-2.7637102603912354,-8.030312538146973,0.8009973764419556
1780752008405897700,78.80089770507813,-0.23030917346477509,-9.973284721374512,0.46331027150154114
1780752008454414000,78.8494140625,0.6762714982032776,-7.280761241912842,3.239283561706543
1780752008502930400,78.89793041992188,2.2055842876434326,-6.9098734855651855,3.5336008071899414
1780752008551447000,78.94644702148437,2.2259232997894287,-12.244970321655273,0.22163519263267517
1780752008599963400,78.99496337890625,-1.3046865463256836,-15.139986991882324,3.092125177383423
1780752008648479700,79.04347973632812,-2.764308452606201,-10.026525497436523,-1.0615159273147583
1780752008696996000,79.09199609375,-1.9917258024215698,-6.4510498046875,-2.840280532836914
1780752008745512400,79.14051245117187,-1.7497515678405762,-15.289538383483887,-4.341477394104004
1780752008794029000,79.18902905273437,-5.669494152069092,-15.372389793395996,4.3295135498046875
1780752008842545400,79.23754541015624,2.2172493934631348,-6.85962438583374,4.350749969482422
1780752008891061800,79.28606176757812,1.85383939743042,-6.155835151672363,-2.7248268127441406
1780752008939578000,79.334578125,2.3617160320281982,-5.350949764251709,-2.5076780319213867
1780752008988094500,79.38309448242188,1.989033818244934,-5.986244201660156,1.0950154066085815
1780752009036611000,79.43161108398438,-1.0393823385238647,-14.444573402404785,1.9453648328781128
1780752009085127400,79.48012744140625,3.8739798069000244,-15.026028633117676,3.510270833969116
1780752009133643800,79.52864379882813,-2.1720848083496094,-14.230714797973633,-0.11485548317432404
1780752009182160100,79.57716015625,-1.9525432586669922,-9.369396209716797,-1.9100706577301025
1780752009230676700,79.6256767578125,-0.38763725757598877,-9.236295700073242,-0.47557350993156433
1780752009279193000,79.67419311523437,-0.6580262184143066,-10.229914665222168,-2.8827531337738037
1780752009327709400,79.72270947265625,0.5497509837150574,-5.991029739379883,-0.7112665176391602
1780752009376225800,79.77122583007812,-3.483949661254883,-8.693124771118164,0.21355941891670227
1780752009424742100,79.8197421875,0.31435707211494446,-9.71097183227539,0.07357929646968842
1780752009473258800,79.8682587890625,0.0771685317158699,-6.986443996429443,2.6530420780181885
1780752009521775000,79.91677514648437,2.03629207611084,-8.565707206726074,2.2453649044036865
1780752009570291500,79.96529150390624,1.7252250909805298,-13.34387493133545,2.210968017578125
1780752009618807800,80.01380786132812,-2.489133834838867,-13.977075576782227,1.5137593746185303
1780752009667324200,80.06232421875,-2.918346405029297,-7.677670478820801,-3.1594231128692627
1780752009715840800,80.1108408203125,-1.1644073724746704,-7.558328628540039,-4.131806373596191
1780752009764357000,80.15935717773438,-2.8465616703033447,-19.523637771606445,-0.41216370463371277
1780752009812873500,80.20787353515625,-4.450650215148926,-11.776576042175293,5.416752338409424
1780752009861389800,80.25638989257813,3.67447829246521,-4.875675201416016,1.2355937957763672
1780752009909906400,80.30490649414062,1.6328023672103882,-6.0140604972839355,-3.0014967918395996
1780752009958422800,80.3534228515625,2.3682961463928223,-5.481059551239014,-1.4868401288986206
1780752010006939100,80.40193920898437,1.4003994464874268,-7.103393077850342,2.9665019512176514
1780752010055455500,80.45045556640625,-0.26141586899757385,-18.17438507080078,2.146361827850342
1780752010103971800,80.49897192382812,2.2788643836975098,-13.622937202453613,4.4512481689453125
1780752010152488400,80.54748852539062,-2.9030921459198,-12.495320320129395,-2.888735055923462
1780752010201004800,80.5960048828125,-0.8404789566993713,-8.838189125061035,-1.1431710720062256
1780752010249521200,80.64452124023437,-0.8847461938858032,-11.766406059265137,-0.6035895347595215
1780752010298037500,80.69303759765624,-0.36999019980430603,-8.424530029296875,-3.7893338203430176
1780752010346553900,80.74155395507813,-0.8126623630523682,-6.523731708526611,-0.3355933725833893
1780752010395070500,80.79007055664063,-2.379063844680786,-8.84925651550293,-1.0734800100326538
1780752010443586800,80.8385869140625,0.2721835672855377,-8.346763610839844,1.1318050622940063
1780752010492103200,80.88710327148438,0.5670989751815796,-6.675376892089844,4.296013832092285
1780752010540619500,80.93561962890625,3.0580272674560547,-9.36161994934082,1.3334003686904907
1780752010589136000,80.98413598632813,0.30209386348724365,-14.680864334106445,2.9341988563537598
