time,seconds_elapsed,z,y,x
1781788023952030200,0.1580302734375,8.86361312866211,4.37228536605835,-0.5461617708206177
1781788024000558600,0.20655859375,8.866005897521973,4.360321044921875,-0.6948158740997314
1781788024049087000,0.2550869140625,8.615358352661133,4.485645294189453,-0.5988038778305054
1781788024097615400,0.303615478515625,8.64795970916748,4.477270126342773,-0.5736792087554932
1781788024146143700,0.352143798828125,8.722735404968262,4.407878398895264,-0.40797626972198486
1781788024194672000,0.400672119140625,8.590532302856445,4.351646900177002,-0.0011964113218709826
1781788024243200800,0.44920068359375,8.223533630371094,4.320241451263428,-0.07537391036748886
1781788024291729000,0.49772900390625,7.853542804718018,4.144668102264404,-0.1094716340303421
1781788024340257500,0.546257568359375,9.009575843811035,4.763511657714844,-2.0246269702911377
1781788024388786000,0.594785888671875,9.493823051452637,4.663910388946533,-2.740978240966797
1781788024437314300,0.643314208984375,10.060623168945312,3.3795628547668457,-0.755533754825592
1781788024485842700,0.6918427734375,9.533304214477539,3.94097900390625,-0.8697910308837891
1781788024534371000,0.74037109375,9.275178909301758,3.7645082473754883,-0.36699917912483215
1781788024582899500,0.7888994140625,9.078967094421387,3.780360698699951,-0.4175475537776947
1781788024631427800,0.837427734375,8.879166603088379,3.7663028240203857,-0.08793623000383377
1781788024679956200,0.885956298828125,8.47896671295166,3.941876173019409,-0.10797612369060516
1781788024728484600,0.934484619140625,8.81814956665039,3.8524444103240967,0.2925225794315338
1781788024777013000,0.983012939453125,9.417252540588379,3.5135610103607178,0.21804596483707428
1781788024825541400,1.031541259765625,9.642477035522461,3.2159535884857178,0.2231307178735733
1781788024874069800,1.08006982421875,9.15703296661377,3.3613176345825195,-0.07118647545576096
1781788024922598100,1.12859814453125,9.15404224395752,3.58534574508667,-0.04426721855998039
1781788024971126500,1.17712646484375,9.328418731689453,3.583850145339966,0.3332005441188812
1781788025019655000,1.225655029296875,9.001798629760742,3.675973892211914,0.3332005441188812
1781788025068183300,1.274183349609375,9.02662467956543,3.5712878704071045,0.6370890140533447
1781788025116711700,1.322711669921875,8.997013092041016,3.5371899604797363,0.8898309469223022
1781788025165240000,1.371239990234375,8.936594009399414,3.8204405307769775,0.9349954724311829
1781788025213768400,1.4197685546875,9.369994163513184,3.8144583702087402,1.0145567655563354
1781788025262296800,1.468296875,9.311369895935059,4.0010986328125,0.9098708033561707
1781788025310825200,1.5168251953125,9.197710990905762,3.7480576038360596,0.7040880918502808
1781788025359353600,1.565353515625,9.155537605285645,3.623929977416992,0.5647061467170715
1781788025407882000,1.613882080078125,8.676673889160156,3.8437705039978027,0.4992026388645172
1781788025456410400,1.662410400390625,8.202895164489746,4.404588222503662,0.8036893010139465
1781788025504938800,1.710938720703125,8.66351318359375,2.608475685119629,1.999801516532898
1781788025553467100,1.759467041015625,9.408578872680664,4.557429790496826,0.48873403668403625
1781788025601995500,1.80799560546875,8.814560890197754,3.6837503910064697,1.9621145725250244
1781788025650524000,1.85652392578125,8.233104705810547,2.9261229038238525,3.5461630821228027
1781788025699052300,1.90505224609375,6.681957244873047,2.1547367572784424,3.7525441646575928
1781788025747580700,1.95358056640625,6.559325218200684,3.108276605606079,3.5168511867523193
1781788025796109000,2.002109130859375,6.849155902862549,1.1048858165740967,5.673083305358887
1781788025844637400,2.050637451171875,6.296114444732666,2.557927370071411,5.610570907592773
1781788025893165800,2.099165771484375,8.444271087646484,2.823530673980713,6.3978095054626465
1781788025941694200,2.147694091796875,10.29452133178711,3.187838077545166,5.912066459655762
1781788025990222600,2.19622265625,10.685149192810059,2.6102705001831055,5.541478157043457
1781788026038751000,2.2447509765625,9.691828727722168,2.2375881671905518,4.187439441680908
1781788026087279400,2.293279296875,9.600004196166992,2.378166675567627,3.522534132003784
1781788026135807700,2.341807861328125,10.611570358276367,2.083550214767456,3.19441819190979
1781788026184336000,2.3903359375,10.720743179321289,1.7602201700210571,4.089334011077881
1781788026232864500,2.438864501953125,11.822637557983398,1.7282161712646484,4.423730850219727
1781788026281393000,2.487392822265625,11.196615219116211,1.179661512374878,5.1343994140625
1781788026329921000,2.535921142578125,9.250054359436035,0.25752753019332886,5.405984401702881
1781788026378449700,2.58444970703125,8.149654388427734,-0.6194419860839844,4.610371112823486
1781788026426977800,2.632977783203125,9.078069686889648,1.4623137712478638,3.2715866565704346
1781788026475506200,2.681506103515625,8.138288497924805,1.3645070791244507,2.98295259475708
1781788026524034600,2.73003466796875,8.388339042663574,1.6103696823120117,3.2419755458831787
1781788026572563000,2.77856298828125,8.260622024536133,1.8789639472961426,3.3568310737609863
1781788026621091300,2.82709130859375,8.391329765319824,2.2292134761810303,2.878565549850464
1781788026669619700,2.87561962890625,8.911469459533691,2.3575284481048584,2.767897605895996
1781788026718148000,2.924148193359375,9.258130073547363,2.446362018585205,2.684448003768921
1781788026766676500,2.972676513671875,9.385248184204102,2.4394826889038086,2.539083957672119
1781788026815204900,3.021204833984375,9.549755096435547,2.3234307765960693,2.48315167427063
1781788026863733200,3.069733154296875,9.563215255737305,2.310868501663208,2.389233350753784
1781788026912261600,3.11826171875,9.691230773925781,2.3111674785614014,2.0584256649017334
1781788026960789800,3.166789794921875,9.219844818115234,2.54536509513855,1.9698911905288696
1781788027057846500,3.263846435546875,9.158827781677246,2.6790640354156494,2.150848388671875
1781788027106375000,3.312375,9.317950248718262,2.637488842010498,2.023430585861206
1781788027154903300,3.3609033203125,9.187840461730957,2.6300110816955566,2.046461582183838
1781788027203431700,3.409431640625,9.449854850769043,2.57437801361084,2.0105693340301514
1781788027251960000,3.4579599609375,9.244969367980957,2.6697919368743896,1.9854445457458496
1781788027300488200,3.50648828125,9.43310546875,2.6219353675842285,1.9366908073425293
1781788027349016800,3.555016845703125,9.43310546875,2.6195425987243652,1.9196419715881348
1781788027397545000,3.603544921875,9.2288179397583,2.641676187515259,1.92951238155365
1781788027446073300,3.6520732421875,9.336793899536133,2.6195425987243652,1.9639091491699219
1781788027494601700,3.700601806640625,9.259325981140137,2.652743101119995,1.95852530002594
1781788027543130000,3.749130126953125,9.438189506530762,2.601895570755005,1.9986051321029663
1781788027591658500,3.797658447265625,9.476176261901855,2.562114953994751,1.9259231090545654
1781788027640187000,3.846186767578125,9.399605751037598,2.5827529430389404,1.9537396430969238
1781788027688715300,3.89471533203125,9.43190860748291,2.553440809249878,1.9510477781295776
1781788027737243400,3.943243408203125,9.350852012634277,2.535494804382324,1.911566138267517
1781788027785771800,3.991771728515625,9.34157943725586,2.5683960914611816,1.83828604221344
1781788027834300200,4.040300048828125,9.357730865478516,2.5423741340637207,1.8188443183898926
1781788027882828500,4.08882861328125,9.306883811950684,2.557927370071411,1.7560327053070068
1781788027931357000,4.13735693359375,9.42891788482666,2.5046870708465576,1.750050663948059
1781788027979885000,4.185885009765625,9.333503723144531,2.5328028202056885,1.811964988708496
1781788028028413400,4.234413330078125,9.461520195007324,2.5561327934265137,1.8894325494766235
1781788028076941800,4.28294189453125,9.413662910461426,2.5235304832458496,1.846361756324768
1781788028125470200,4.33147021484375,9.452247619628906,2.5163521766662598,1.9253249168395996
1781788028173998600,4.37999853515625,9.476774215698242,2.5645077228546143,1.9004993438720703
1781788028222527000,4.42852685546875,9.432806015014648,2.525923490524292,1.939382791519165
1781788028271055400,4.477055419921875,9.479764938354492,2.5597219467163086,1.8975083827972412
1781788028319583500,4.52558349609375,9.51595687866211,2.4726831912994385,2.0330018997192383
1781788028368111900,4.57411181640625,9.285347938537598,2.6464617252349854,2.0934207439422607
1781788028416640300,4.62264013671875,9.023932456970215,2.760420083999634,2.3691935539245605
1781788028465168600,4.671168701171875,8.715856552124023,2.8624141216278076,2.7783660888671875
1781788028513697000,4.719697021484375,8.730213165283203,2.94975209236145,3.19232439994812
1781788028562225200,4.76822509765625,8.989834785461426,2.9066812992095947,3.0780673027038574
1781788028610753500,4.81675341796875,9.05264663696289,2.865704298019409,2.9629125595092773
1781788028659282000,4.865281982421875,9.072985649108887,2.840280532836914,3.0122644901275635
1781788028707810300,4.913810302734375,9.046664237976074,2.8654050827026367,2.8674988746643066
1781788028756338700,4.962338623046875,9.011669158935547,2.741875648498535,2.825026273727417
1781788028804866800,5.01086669921875,9.035298347473145,2.7726831436157227,2.730808734893799
1781788028853395200,5.059395263671875,8.992227554321289,2.7427730560302734,2.764906644821167
1781788028901923600,5.107923583984375,9.040681838989258,2.7257239818573,2.8073792457580566
1781788028950452000,5.156451904296875,9.23300552368164,2.699702262878418,2.8223342895507812
1781788028998980400,5.20498046875,9.298808097839355,2.6653053760528564,2.8552355766296387
1781788029047508500,5.253508544921875,9.22433090209961,2.7197420597076416,2.7942185401916504
1781788029096036900,5.302036865234375,9.208778381347656,2.6572296619415283,2.8899314403533936
1781788029144565200,5.350565185546875,9.131908416748047,2.6703901290893555,2.8079774379730225
1781788029193093600,5.39909375,9.095417976379395,2.620738983154297,2.755634307861328
1781788029241622000,5.4476220703125,9.132805824279785,2.562114953994751,2.7059834003448486
1781788029290150100,5.496150146484375,9.135198593139648,2.577368974685669,2.6419754028320312
1781788029338678500,5.544678466796875,9.240483283996582,2.5654048919677734,2.668595552444458
1781788029387207000,5.59320703125,9.268000602722168,2.5501506328582764,2.659024238586426
1781788029435735000,5.641735107421875,9.097810745239258,2.6371896266937256,2.705684185028076
1781788029532791800,5.738791748046875,9.275178909301758,2.5073790550231934,2.736790895462036
1781788029581320200,5.7873203125,9.12831974029541,2.5232315063476562,2.705684185028076
1781788029629848600,5.8358486328125,9.061918258666992,2.2998015880584717,3.4076786041259766
1781788029678376700,5.884376708984375,8.252246856689453,1.501197099685669,4.067499160766602
1781788029726905000,5.932905029296875,8.367402076721191,2.195115566253662,3.6858441829681396
1781788029775433500,5.98143359375,8.767900466918945,1.3232308626174927,3.4307093620300293
1781788029823961600,6.029961669921875,9.016754150390625,3.043670415878296,2.9470601081848145
1781788029872490000,6.078489990234375,5.528915882110596,5.347360610961914,4.137190341949463
1781788029921018400,6.127018310546875,3.715754508972168,3.297907829284668,7.791927814483643
1781788029969546800,6.175546630859375,5.741278648376465,2.254338026046753,9.072985649108887
1781788030018075100,6.2240751953125,6.630810737609863,2.1346969604492188,7.834998607635498
1781788030066603500,6.272603515625,6.587739944458008,1.831107497215271,7.588238716125488
1781788030115131600,6.321131591796875,6.431608200073242,2.2402801513671875,6.811768054962158
1781788030163660000,6.369659912109375,6.903891563415527,2.6147570610046387,6.798906326293945
1781788030212188400,6.4181884765625,7.727022647857666,3.8117663860321045,6.94038200378418
1781788030260716500,6.466716552734375,7.424330234527588,2.6407787799835205,7.851449489593506
1781788030309245000,6.515244873046875,6.523432731628418,1.8894325494766235,8.778668403625488
1781788030357773300,6.563773193359375,5.960820198059082,1.3037892580032349,8.943174362182617
1781788030406301400,6.612301513671875,5.507679462432861,0.9182456731796265,9.148957252502441
1781788030454829800,6.660829833984375,5.24416971206665,0.2665006220340729,8.948259353637695
1781788030503358200,6.709358154296875,5.135595798492432,0.9786644577980042,8.757431983947754
1781788030551886600,6.757886474609375,5.200799942016602,0.9170492887496948,9.038289070129395
1781788030600415000,6.8064150390625,3.9008991718292236,1.1404790878295898,8.973084449768066
1781788030648943000,6.854943115234375,3.692723512649536,1.8164514303207397,9.859625816345215
1781788030697471500,6.903471435546875,3.1229326725006104,1.9109679460525513,8.973084449768066
1781788030746000000,6.951999755859375,2.5163521766662598,1.586740493774414,9.530313491821289
1781788030794528000,7.000528076171875,2.655734062194824,1.280758261680603,8.852845191955566
1781788030843056400,7.049056396484375,2.8034908771514893,1.674676775932312,8.527421951293945
1781788030891584800,7.097584716796875,1.9504495859146118,2.9036903381347656,8.7176513671875
1781788030940113000,7.14611279296875,1.8990038633346558,2.303689956665039,8.479565620422363
1781788030988641300,7.194641357421875,3.541377544403076,2.7370901107788086,8.391031265258789
1781788031037169700,7.243169677734375,1.9869401454925537,2.4029922485351562,8.967700958251953
1781788031085697800,7.29169775390625,2.1984057426452637,2.53399920463562,8.7538423538208
1781788031134226200,7.34022607421875,2.5980072021484375,2.4684956073760986,8.985946655273438
1781788031182754600,7.388754638671875,2.8869404792785645,2.659024238586426,8.894720077514648
1781788031231282700,7.43728271484375,2.9638099670410156,2.7544379234313965,9.116354942321777
1781788031279811000,7.48581103515625,3.0550363063812256,2.659921407699585,9.150452613830566
1781788031328339500,7.53433935546875,3.0927233695983887,2.4185454845428467,9.050253868103027
1781788031376867600,7.58286767578125,3.390629768371582,2.233999013900757,9.001500129699707
1781788031425396000,7.63139599609375,3.2715866565704346,2.2872393131256104,9.146564483642578
1781788031473924400,7.67992431640625,3.086441993713379,2.4762723445892334,9.117252349853516
1781788031522452500,7.728452392578125,3.228515863418579,2.6350958347320557,8.65334415435791
1781788031570980900,7.77698095703125,3.1304101943969727,2.5286152362823486,8.894720077514648
1781788031619509200,7.82550927734375,3.168994426727295,2.5959134101867676,8.77777099609375
1781788031668037400,7.874037353515625,3.4378879070281982,2.228914260864258,9.009276390075684
1781788031716565800,7.922565673828125,3.265305519104004,2.431705951690674,8.845368385314941
1781788031765094100,7.97109423828125,3.027817964553833,2.659921407699585,9.057432174682617
1781788031813622300,8.019622314453125,3.1998021602630615,2.2055842876434326,9.244669914245605
1781788031862150700,8.068150634765624,3.5647075176239014,1.7988044023513794,8.767003059387207
1781788031910679000,8.116678955078125,3.7749767303466797,0.9182456731796265,8.565707206726074
1781788031959207200,8.165207275390625,4.480261325836182,1.5275181531906128,8.990732192993164
1781788032007735600,8.213735595703126,4.133002758026123,2.3336002826690674,8.868698120117188
1781788032056264000,8.262263916015625,3.475275754928589,2.2498514652252197,9.129216194152832
1781788032104792000,8.3107919921875,4.191328048706055,2.093719720840454,9.013164520263672
1781788032153320400,8.359320556640625,3.945465326309204,2.0084755420684814,9.169595718383789
1781788032201848800,8.407848876953125,3.931706666946411,1.9818553924560547,9.194122314453125
1781788032250377000,8.456376953125,4.271487712860107,1.4380863904953003,8.88245677947998
1781788032298905300,8.5049052734375,4.444668292999268,-0.03738785535097122,8.86780071258545
1781788032347433700,8.553433837890625,4.909174919128418,2.5704896450042725,8.751449584960938
1781788032395961900,8.6019619140625,3.8781673908233643,2.0365912914276123,8.46042251586914
1781788032444490200,8.650490234375,4.5583271980285645,1.8729819059371948,8.727521896362305
1781788032493018400,8.699018310546874,4.064209461212158,1.7976080179214478,8.947959899902344
1781788032541546800,8.747546630859375,4.539483547210693,1.4344971179962158,8.853742599487305
1781788032590075100,8.7960751953125,4.3310089111328125,1.4931213855743408,8.574978828430176
1781788032638603300,8.844603271484376,4.538885593414307,1.7356936931610107,8.70209789276123
1781788032687131600,8.893131591796875,4.622035980224609,1.3606188297271729,8.720342636108398
1781788032735659800,8.94165966796875,4.432105541229248,1.2164511680603027,8.832805633544922
1781788032784188200,8.990188232421875,4.246362686157227,1.2711870670318604,8.633902549743652
1781788032832716300,9.03871630859375,4.558626174926758,1.2556337118148804,8.647063255310059
1781788032881244700,9.08724462890625,4.290630340576172,1.205384373664856,8.441878318786621
1781788032929773000,9.13577294921875,4.774279594421387,1.2508480548858643,8.906983375549316
1781788032978301200,9.18430126953125,4.614558696746826,1.327418327331543,9.016754150390625
1781788033026829600,9.23282958984375,4.714757919311523,1.2735798358917236,9.180662155151367
1781788033075358000,9.28135791015625,4.512265205383301,1.312164068222046,8.590232849121094
1781788033123886000,9.329885986328126,4.7973103523254395,1.220638632774353,8.468498229980469
1781788033172414500,9.37841455078125,4.732405185699463,1.2026925086975098,8.369495391845703
1781788033220942600,9.426942626953124,4.671986103057861,1.298405408859253,8.374878883361816
1781788033269471000,9.475470947265626,5.181956768035889,1.1482558250427246,8.375776290893555
1781788033317999000,9.5239990234375,4.998307228088379,1.2939188480377197,8.284849166870117
1781788033366527500,9.572527587890624,5.216054439544678,1.1222338676452637,8.230711936950684
1781788033415056000,9.621055908203125,5.56869649887085,0.9230313301086426,8.458029747009277
1781788033463584000,9.669583984375,5.367101192474365,1.0339984893798828,8.316255569458008
1781788033512112400,9.7181123046875,5.526523113250732,0.8835497498512268,8.266902923583984
1781788033560640500,9.766640625,5.815157413482666,0.9541380405426025,8.44157886505127
1781788033609169000,9.8151689453125,5.523232936859131,1.0043872594833374,8.284550666809082
1781788033657697000,9.863697021484375,5.237888813018799,1.0055837631225586,8.069195747375488
1781788033706225400,9.912225341796875,5.064409255981445,0.89581298828125,8.038687705993652
1781788033782757600,9.988757568359375,4.538287162780762,0.15732808411121368,8.489734649658203
1781788033831285800,10.03728564453125,4.677370071411133,-2.0880367755889893,9.796216011047363
1781788033879814100,10.085814208984376,3.5772697925567627,-0.39571303129196167,7.579864025115967
1781788033928342300,10.13434228515625,0.48574298620224,4.118047714233398,4.680361270904541
1781788034025398800,10.231398681640625,-2.306680917739868,-3.462414264678955,3.431307554244995
1781788034073927200,10.27992724609375,1.0393823385238647,-6.7310099601745605,5.651846885681152
1781788034122455300,10.328455322265626,4.782654285430908,-7.572386264801025,13.116556167602539
1781788034170983700,10.376983642578125,4.9124650955200195,-6.664609432220459,15.98465347290039
1781788034219511800,10.42551171875,4.24785852432251,-6.574579238891602,17.975780487060547
1781788034268040200,10.474040283203125,2.5190439224243164,-4.7503509521484375,16.40848159790039
1781788034316568300,10.522568359375,1.1300104856491089,-3.822235107421875,14.857633590698242
1781788034365096700,10.5710966796875,0.47527438402175903,-3.335594654083252,13.308879852294922
1781788034413625000,10.619625,-2.42303204536438,-3.604189157485962,12.333206176757812
1781788034462153000,10.668153076171874,-2.234896421432495,-7.254140853881836,8.973084449768066
1781788034510681300,10.716681396484375,3.210270643234253,-8.263314247131348,7.252645492553711
1781788034559209700,10.765209716796875,5.5345988273620605,-8.446065902709961,6.593721866607666
1781788034607737900,10.81373779296875,2.3742783069610596,-6.856035232543945,4.755435943603516
1781788034656266200,10.862266357421875,2.656930446624756,-7.496115207672119,9.387641906738281
1781788034753322800,10.95932275390625,2.0760726928710938,-6.169294834136963,5.67966365814209
1781788034801851100,11.00785107421875,1.2810574769973755,-5.36650276184082,4.60558557510376
1781788034850379300,11.056379150390624,2.9868409633636475,-3.486342668533325,3.548556089401245
1781788034898907600,11.10490771484375,1.817647933959961,-1.6893328428268433,4.997110843658447
1781788034947435800,11.153435791015625,1.536790370941162,-2.96321177482605,7.588537693023682
1781788034995964200,11.201964111328126,1.9698911905288696,-4.532604217529297,8.674580574035645
1781788035044492300,11.2504921875,1.0399805307388306,-8.211270332336426,8.260622024536133
1781788035093020700,11.299020751953124,-0.9595218896865845,-9.240483283996582,11.907583236694336
1781788035141548800,11.347548828125,0.18005990982055664,-7.941778182983398,12.385250091552734
1781788035190077000,11.396076904296875,2.257328987121582,-5.409274578094482,9.128020286560059
1781788035238605300,11.444605224609376,4.424927234649658,-3.975076675415039,6.125626087188721
1781788035287133400,11.493133544921875,2.568096876144409,-5.260919570922852,7.010372161865234
1781788035335661800,11.541661865234374,-1.0274182558059692,-5.0566325187683105,7.325925827026367
1781788035384190000,11.59018994140625,-3.0412776470184326,-5.097609519958496,9.63918685913086
1781788035432718300,11.63871826171875,-2.4747767448425293,-4.944468975067139,11.132906913757324
1781788035481246500,11.68724658203125,-0.19710876047611237,-4.910670280456543,10.834700584411621
1781788035529774800,11.73577490234375,1.9860427379608154,-4.383651256561279,7.58943510055542
1781788035578303000,11.784302978515624,1.8305093050003052,-5.90159797668457,5.604588985443115
1781788035626831400,11.832831298828125,2.0069799423217773,-6.296114444732666,4.565505504608154
1781788035675359500,11.881359375,3.722334623336792,-8.360522270202637,3.343670606613159
1781788035723887900,11.929887939453126,5.686244010925293,-10.156933784484863,5.323431968688965
1781788035772416000,11.978416015625,6.832107067108154,-9.154939651489258,2.4424736499786377
1781788035820944400,12.0269443359375,2.0201404094696045,-8.20110034942627,3.0765717029571533
1781788035869472500,12.075472412109375,3.644867181777954,-6.985546588897705,1.4030914306640625
1781788035918001000,12.1240009765625,8.702695846557617,-6.439982891082764,-0.5120640397071838
1781788035966529000,12.172529052734374,1.8272192478179932,-6.02183723449707,2.744567632675171
1781788036015057400,12.221057373046875,2.0751755237579346,-6.867401123046875,0.19800607860088348
1781788036063585800,12.269585693359375,5.362913608551025,-11.359626770019531,1.3040883541107178
1781788036112113700,12.31811376953125,4.7004008293151855,-9.11994457244873,0.9131609201431274
1781788036160642000,12.36664208984375,5.795416355133057,-10.061819076538086,1.3040883541107178
1781788036209170400,12.41517041015625,3.8261234760284424,-8.152944564819336,0.90358966588974
1781788036257698600,12.463698486328125,0.9625129103660583,-4.343571186065674,-1.2592228651046753
1781788036306227000,12.51222705078125,6.4289164543151855,-10.069894790649414,2.3635106086730957
1781788036403283500,12.609283447265625,3.3658041954040527,-12.046067237854004,0.6681957244873047
1781788036451811600,12.6578115234375,2.93210506439209,-9.923933029174805,-0.397208571434021
1781788036500340000,12.706340087890625,2.029113531112671,-8.51037311553955,-0.6005984544754028
1781788036548868000,12.7548681640625,0.9433703422546387,-8.574978828430176,3.0708887577056885
1781788036597396500,12.803396484375,0.7902296781539917,-11.10030460357666,4.177868366241455
1781788036645924600,12.851924560546875,-1.3950155973434448,-11.48255729675293,-1.3178470134735107
1781788036694453000,12.900452880859374,0.5282155871391296,-11.035697937011719,-2.2220349311828613
1781788036742981000,12.948981201171875,1.3097712993621826,-10.909476280212402,-2.1741783618927
1781788036791509200,12.99750927734375,0.5437689423561096,-9.869794845581055,-0.5656034350395203
1781788036840037600,13.04603759765625,-0.06610172241926193,-8.084450721740723,-0.5437689423561096
1781788036888565800,13.094565673828125,-0.14925231039524078,-9.191729545593262,-0.5742774605751038
1781788036937094100,13.14309423828125,1.3630115985870361,-10.75274658203125,0.6628118753433228
1781788036985622300,13.191622314453125,1.322333574295044,-9.836296081542969,-0.7217351198196411
1781788037034150700,13.240150634765625,-0.5407779216766357,-7.937591075897217,-0.08135596662759781
1781788037082678800,13.2886787109375,-1.2505489587783813,-8.657232284545898,-0.32542386651039124
1781788037131207200,13.337207275390625,-0.4537389874458313,-8.97248649597168,-0.6849454641342163
1781788037179735300,13.3857353515625,-0.4504488706588745,-9.638887405395508,-0.29341986775398254
1781788037228263700,13.434263671875,-0.9690931439399719,-10.171290397644043,0.2727817893028259
1781788037276791800,13.482791748046875,-0.13459627330303192,-13.423136711120605,0.046360939741134644
1781788037325320200,13.5313203125,-0.31824541091918945,-13.114462852478027,-0.054137613624334335
1781788037422377700,13.628377685546875,0.19680966436862946,-9.268299102783203,-0.37896329164505005
1781788037470904800,13.67690478515625,-0.46719861030578613,-10.21585750579834,0.2186441719532013
1781788037519433200,13.72543310546875,-0.4226323068141937,-9.80817985534668,0.40737804770469666
1781788037567961600,13.773961669921874,-0.3197409212589264,-9.940682411193848,-0.016749758273363113
1781788037616489700,13.82248974609375,-0.5111667513847351,-9.852148056030273,0.3412763178348541
1781788037665018000,13.87101806640625,-0.1746760457754135,-10.169496536254883,0.18035900592803955
1781788037713546200,13.919546142578126,-0.393320232629776,-9.853643417358398,0.2745763957500458
1781788037762074600,13.96807470703125,-0.29341986775398254,-10.112667083740234,0.29042884707450867
1781788037810602800,14.016602783203124,-0.43489551544189453,-9.849455833435059,0.06281159073114395
1781788037859131100,14.065131103515625,-0.37896329164505005,-9.764511108398438,-0.10229317098855972
1781788037907659300,14.1136591796875,-0.33110684156417847,-9.990034103393555,0.16899310052394867
1781788037956187600,14.162187744140626,-0.3236292600631714,-10.068997383117676,0.2928216755390167
1781788038004716000,14.210716064453125,-0.1537388563156128,-9.807282447814941,0.4618147611618042
1781788038053244200,14.259244140625,-0.12113664299249649,-9.567401885986328,0.36999019980430603
1781788038101772500,14.3077724609375,-0.5656034350395203,-9.704391479492188,0.15074782073497772
1781788038150300700,14.35630078125,-0.3774677813053131,-9.718748092651367,0.2063809484243393
1781788038198829000,14.4048291015625,-0.5168496966362,-7.345067977905273,0.1779661774635315
1781788038295885600,14.501885498046875,0.19770696759223938,-11.057233810424805,0.6430711150169373
1781788038344414000,14.5504140625,0.13100704550743103,-13.328022003173828,0.37956148386001587
1781788038392942000,14.598942138671875,-0.16899310052394867,-14.052449226379395,-0.08793623000383377
1781788038441470500,14.647470458984374,-0.01196411345154047,-9.750154495239258,0.6789634227752686
1781788038489998600,14.69599853515625,0.6628118753433228,-8.440382957458496,0.6379863619804382
1781788038538527000,14.74452685546875,0.08285148441791534,-9.717252731323242,0.8916255235671997
1781788038587055000,14.79305517578125,-0.125922292470932,-10.866405487060547,1.3704891204833984
1781788038635583200,14.841583251953125,-0.028115665540099144,-11.04616641998291,1.108774185180664
1781788038684111600,14.890111572265624,0.030209386721253395,-10.415060043334961,0.7067800164222717
1781788038732639700,14.9386396484375,0.4570291340351105,-8.630014419555664,-0.4746761918067932
1781788038781168000,14.987168212890625,-0.06849455088376999,-9.57607650756836,-0.37417763471603394
1781788038829696500,15.035696533203126,-0.02961117960512638,-10.029815673828125,0.7160521745681763
1781788038878224600,15.084224609375,0.2147558331489563,-9.770493507385254,1.189831018447876
1781788038926753000,15.1327529296875,0.3966103494167328,-10.103394508361816,1.5122638940811157
1781788038975281400,15.181281494140626,0.6532405614852905,-9.978668212890625,1.5107684135437012
1781788039023809500,15.2298095703125,0.9505487680435181,-9.818349838256836,1.4030914306640625
1781788039072338000,15.278337890625,0.8886345028877258,-9.790533065795898,1.2299108505249023
1781788039120866000,15.326865966796875,0.7049853801727295,-9.641579627990723,1.1356934309005737
1781788039169394400,15.37539453125,0.5464608669281006,-10.073184967041016,1.0546365976333618
1781788039217922600,15.423922607421876,0.32123643159866333,-9.821041107177734,1.0606186389923096
1781788039266451000,15.472450927734375,0.20488543808460236,-9.739386558532715,0.9340981245040894
1781788039314979000,15.52097900390625,0.16091732680797577,-10.099206924438477,0.8270193338394165
1781788039363507500,15.569507568359375,0.20967108011245728,-10.016355514526367,0.8967102766036987
1781788039412035800,15.618035888671875,0.1618146300315857,-9.981060981750488,0.5694918036460876
1781788039460564000,15.66656396484375,0.08225327730178833,-9.884750366210938,0.17288143932819366
1781788039509092400,15.71509228515625,0.11306086927652359,-10.088738441467285,0.11665010452270508
1781788039557620500,15.763620361328124,0.20189441740512848,-10.056435585021973,0.3613162338733673
1781788039606149000,15.812149169921875,0.2790629267692566,-9.940682411193848,0.4794618487358093
1781788039654677200,15.86067724609375,0.27367907762527466,-9.740283966064453,0.8321040868759155
1781788039703205400,15.909205322265626,0.2306082844734192,-9.806385040283203,0.9002995491027832
1781788039751733800,15.957733642578125,0.22642084956169128,-9.902098655700684,0.8177471160888672
1781788039800262100,16.00626220703125,0.09182456880807877,-9.9771728515625,0.6801598072052002
1781788039848790300,16.054790283203126,0.1824527233839035,-10.071989059448242,0.6020939946174622
1781788039945846800,16.1518466796875,0.22492532432079315,-9.887741088867188,0.7384848594665527
1781788039994375200,16.200375244140623,0.1788634955883026,-9.816853523254395,0.7689933776855469
1781788040042903600,16.248903564453126,0.0975075215101242,-9.861420631408691,0.6948158740997314
1781788040091431700,16.297431640625,-0.0077766734175384045,-10.034601211547852,0.3655036687850952
1781788040139960000,16.3459599609375,0.001794616924598813,-9.897611618041992,0.4408775866031647
1781788040188488400,16.394488525390624,0.271286278963089,-10.077073097229004,0.8102695941925049
1781788040237016600,16.4430166015625,0.3475574851036072,-9.941280364990234,0.953240692615509
1781788040285544700,16.491544677734375,0.5264210104942322,-9.826425552368164,1.1183454990386963
1781788040334073000,16.540072998046874,-0.08374879509210587,-9.816853523254395,0.9068797826766968
1781788040382601200,16.588601318359373,-0.05593222752213478,-10.022636413574219,0.3837489187717438
1781788040431129600,16.637129638671876,-0.22103698551654816,-9.84257698059082,0.37477585673332214
1781788040479657700,16.68565771484375,0.054137613624334335,-10.098309516906738,0.4627120792865753
1781788040528186000,16.73418603515625,0.3646063506603241,-9.821041107177734,0.9451649188995361
1781788040576714500,16.782714599609374,-0.04366901144385338,-9.842277526855469,0.7145566344261169
1781788040625243000,16.831242919921873,0.1579262912273407,-9.980463027954102,0.401096910238266
1781788040673771000,16.87977099609375,0.30628129839897156,-10.000204086303711,0.9221340417861938
1781788040722299400,16.92829931640625,0.08853443711996078,-9.889535903930664,0.393320232629776
1781788040770827500,16.97682763671875,0.08554340898990631,-9.731609344482422,0.773779034614563
1781788040819356000,17.02535595703125,0.4181457459926605,-10.200004577636719,0.6116653084754944
1781788040867884300,17.07388427734375,-0.005682953633368015,-10.144072532653809,0.6993024349212646
1781788040916412700,17.12241259765625,0.4794618487358093,-9.607182502746582,1.3992030620574951
1781788040964940500,17.1709404296875,0.40259242057800293,-10.039685249328613,1.5080764293670654
1781788041013469000,17.219468994140627,0.2183450609445572,-10.090533256530762,0.31734809279441833
1781788041061997300,17.267997314453126,0.05922235921025276,-9.851250648498535,0.45942193269729614
1781788041110525400,17.316525390625,-0.24975086748600006,-9.614959716796875,0.05174478888511658
1781788041159053800,17.3650537109375,0.13878370821475983,-9.701101303100586,-0.18574285507202148
1781788041207582000,17.41358203125,0.1899302899837494,-10.368699073791504,0.33110684156417847
1781788041256110600,17.462110595703123,-1.5284154415130615,-9.24437141418457,0.33828529715538025
1781788041304638700,17.510638671875,1.526620864868164,-10.223933219909668,1.0558329820632935
1781788041353167000,17.5591669921875,-0.2928216755390167,-10.498209953308105,0.48006004095077515
1781788041401695200,17.6076953125,0.24466611444950104,-9.861719131469727,0.6035895347595215
1781788041450223600,17.6562236328125,0.15942180156707764,-9.83121109008789,0.7435696125030518
1781788041498751700,17.704751708984375,0.3000001311302185,-9.951749801635742,0.9562317728996277
1781788041595808500,17.80180859375,0.376570463180542,-9.806684494018555,0.6355935335159302
1781788041644336600,17.850336669921877,0.7938188910484314,-9.742975234985352,0.8485547304153442
1781788041692865000,17.898864990234376,1.114457130432129,-10.209575653076172,1.5361921787261963
1781788041741393400,17.947393310546875,1.2137593030929565,-10.051650047302246,1.6253247261047363
1781788041789921500,17.995921630859375,0.9804590940475464,-9.658329963684082,1.6142579317092896
1781788041838450000,18.044449951171874,0.7384848594665527,-10.03848934173584,1.324128270149231
1781788041886978000,18.09297802734375,0.5401797294616699,-9.8207426071167,0.7202396392822266
1781788041935506200,18.141506103515624,0.31016963720321655,-9.736993789672852,0.3771686553955078
1781788041984034600,18.19003466796875,0.2670988142490387,-9.753145217895508,0.5138586759567261
1781788042032563000,18.23856298828125,0.3613162338733673,-10.086345672607422,0.5638088583946228
1781788042081091000,18.287091064453126,0.5078766345977783,-10.050453186035156,0.7950153350830078
1781788042129619500,18.335619384765625,0.5494518876075745,-9.812067985534668,0.6933203339576721
1781788042178147600,18.384147705078124,0.5105685591697693,-9.928718566894531,0.5718846321105957
1781788042226676000,18.432676025390624,0.45164528489112854,-9.89432144165039,0.5934200286865234
1781788042275204400,18.481204345703127,0.4866403043270111,-9.892526626586914,0.6436693072319031
1781788042323732500,18.529732421875,0.5919244885444641,-9.904789924621582,0.9445667266845703
1781788042372260900,18.5782607421875,0.5078766345977783,-10.000204086303711,0.9490532875061035
1781788042420789000,18.6267890625,0.5823532342910767,-9.93260669708252,0.9326026439666748
1781788042469317400,18.6753173828125,0.47796630859375,-9.90568733215332,0.8288139700889587
1781788042517845800,18.723845703125,0.529412031173706,-9.958030700683594,0.7307082414627075
1781788042566374100,18.7723740234375,0.6014958024024963,-9.863214492797852,0.8207381963729858
1781788042614902000,18.820902099609373,0.6020939946174622,-9.81117057800293,0.87248295545578
1781788042663430400,18.869430419921876,0.5685944557189941,-9.927821159362793,0.875174880027771
1781788042711958800,18.917958740234376,0.5551348328590393,-9.83539867401123,0.8270193338394165
1781788042760487000,18.96648681640625,0.519242525100708,-10.040882110595703,0.6978068947792053
1781788042809015300,19.015015380859374,0.5964110493659973,-9.875179290771484,0.7432705163955688
1781788042857543400,19.06354345703125,0.5904290080070496,-9.834501266479492,0.8464609980583191
1781788042906072000,19.112072021484376,0.5943173170089722,-9.916455268859863,0.9173483848571777
1781788042954600200,19.16060009765625,0.5662016868591309,-9.886545181274414,0.8859425783157349
1781788043003128300,19.20912841796875,0.5111667513847351,-9.936494827270508,0.857228696346283
1781788043051656700,19.25765673828125,0.5545366406440735,-9.915258407592773,0.8183453679084778
1781788043100184800,19.306184814453125,0.5183451771736145,-9.876076698303223,0.8653044700622559
1781788043148713200,19.354713134765625,0.5183451771736145,-9.993025779724121,0.8174480199813843
1781788043245769500,19.45176953125,0.5341976284980774,-9.908679008483887,0.8763712644577026
1781788043294297900,19.5002978515625,0.5078766345977783,-9.923035621643066,0.8500502705574036
1781788043342826000,19.548825927734374,0.5222335457801819,-9.879964828491211,0.7905287742614746
1781788043391354400,19.597354248046877,0.4698905348777771,-9.914959907531738,0.8129615187644958
1781788043439882500,19.645882568359376,0.519242525100708,-9.912567138671875,0.8509475588798523
1781788043488411000,19.694410888671875,0.5231308341026306,-9.903294563293457,0.8679963946342468
1781788043536939300,19.742939208984374,0.539880633354187,-9.875179290771484,0.7459624409675598
1781788043585467400,19.79146728515625,0.4624129831790924,-9.912567138671875,0.7304090857505798
1781788043633995800,19.839995849609377,0.4618147611618042,-9.850353240966797,0.7824530005455017
1781788043682524000,19.88852392578125,0.4091726839542389,-9.888937950134277,0.7226324677467346
1781788043731052300,19.93705224609375,0.3128615617752075,-9.945169448852539,0.6948158740997314
1781788043779580400,19.985580322265626,0.3798605799674988,-9.978967666625977,0.6978068947792053
1781788043828108800,20.03410888671875,0.45553362369537354,-9.978070259094238,0.828514814376831
1781788043876637000,20.082636962890625,0.5081757307052612,-9.969097137451172,0.8225327730178833
1781788043925165300,20.131165283203124,0.6493522524833679,-9.866206169128418,0.8955138921737671
1781788043973693700,20.179693603515624,0.7743772268295288,-9.797113418579102,1.2664014101028442
1781788044022221800,20.228221923828126,0.7331010103225708,-9.894919395446777,1.2427722215652466
1781788044070750200,20.276750244140626,0.5368895530700684,-9.756135940551758,0.8255237936973572
1781788044119278300,20.3252783203125,0.35114672780036926,-9.885647773742676,0.5790630578994751
1781788044167806700,20.373806640625,0.18125630915164948,-10.025029182434082,0.4576273262500763
1781788044216334800,20.4223349609375,0.18813568353652954,-9.971789360046387,0.5255236625671387
1781788044264863000,20.470863037109375,0.3038884699344635,-9.953543663024902,0.7034898400306702
1781788044313391400,20.519391357421874,0.4205385744571686,-9.86949634552002,0.862313449382782
1781788044361919700,20.567919677734373,0.43609192967414856,-9.833005905151367,0.8662018179893494
1781788044410448000,20.61644775390625,0.46749773621559143,-9.959526062011719,0.7328019142150879
1781788044458976000,20.66497607421875,0.48514479398727417,-9.938289642333984,0.6873382925987244
1781788044507504400,20.71350439453125,0.4713860750198364,-9.866206169128418,0.7411768436431885
1781788044556032800,20.76203271484375,0.5279164910316467,-9.969097137451172,0.8422735929489136
1781788044604561000,20.810560791015625,0.5330012440681458,-9.888040542602539,0.8542376756668091
1781788044653089300,20.85908935546875,0.5440680384635925,-9.940383911132812,0.8847461938858032
1781788044701617400,20.907617431640624,0.5096712112426758,-9.886245727539062,0.8159525394439697
1781788044750145800,20.956145751953127,0.5000999569892883,-9.853643417358398,0.7543373107910156
1781788044798674000,21.004673828125,0.4618147611618042,-9.934102058410645,0.7360920906066895
1781788044895730200,21.101730224609376,0.3837489187717438,-9.918848037719727,0.7507480978965759
1781788044944258600,21.150258544921876,0.40378883481025696,-9.934102058410645,0.7471588850021362
1781788044992786700,21.19878662109375,0.4253242313861847,-9.937392234802246,0.8063812255859375
1781788045041315000,21.247315185546874,0.43968117237091064,-9.90149974822998,0.7902296781539917
1781788045089843200,21.29584326171875,0.41216370463371277,-9.893424034118652,0.7758727669715881
1781788045138371600,21.34437158203125,0.42831525206565857,-9.89133071899414,0.7674978375434875
1781788045186899700,21.392899658203124,0.41156548261642456,-9.89432144165039,0.7567301392555237
1781788045235428000,21.441427978515627,0.38225340843200684,-9.934401512145996,0.7791628837585449
1781788045283956200,21.489956298828126,0.4097708761692047,-9.916754722595215,0.7576274871826172
1781788045332484600,21.538484619140625,0.3891327679157257,-9.919147491455078,0.7283154129981995
1781788045381012700,21.5870126953125,0.3900300860404968,-9.94397258758545,0.7076773047447205
1781788045429540900,21.635540771484376,0.4205385744571686,-9.904491424560547,0.7235297560691833
1781788045478069200,21.6840693359375,0.4546363055706024,-9.929316520690918,0.7785646915435791
1781788045526597400,21.732597412109374,0.4585246443748474,-9.911968231201172,0.7618148922920227
1781788045575125800,21.781125732421874,0.46749773621559143,-9.868000984191895,0.7719843983650208
1781788045623654000,21.82965380859375,0.4450650215148926,-9.926026344299316,0.7663014531135559
1781788045672182300,21.878182373046876,0.4301098585128784,-9.92841911315918,0.8216354846954346
1781788045720710400,21.92671044921875,0.41156548261642456,-9.909575462341309,0.7926225066184998
1781788045769238500,21.975238525390626,0.42293140292167664,-9.919745445251465,0.763310432434082
1781788045817767000,22.023766845703125,0.44835513830184937,-9.902397155761719,0.7268198728561401
1781788045866295300,22.07229541015625,0.4537389874458313,-9.893424034118652,0.8135597109794617
1781788045914823400,22.120823486328124,0.4579264223575592,-9.940682411193848,0.8566305041313171
1781788045963351600,22.1693515625,0.44327038526535034,-9.940383911132812,0.8398807644844055
1781788046011880000,22.2178798828125,0.40767714381217957,-9.899106979370117,0.7953144311904907
1781788046060408000,22.266407958984374,0.33080771565437317,-9.893723487854004,0.6574280261993408
1781788046108936200,22.314936279296877,0.33798620104789734,-9.905388832092285,0.6562315821647644
1781788046157464600,22.363464599609376,0.32691940665245056,-9.949954986572266,0.7019943594932556
1781788046205992700,22.41199267578125,0.36191442608833313,-9.96281623840332,0.7441678643226624
1781788046254520800,22.460520751953126,0.3613162338733673,-9.920044898986816,0.7567301392555237
1781788046303049000,22.509049072265626,0.4091726839542389,-9.924530982971191,0.7339983582496643
1781788046351577300,22.557577392578125,0.4426721930503845,-9.890433311462402,0.773779034614563
1781788046400105500,22.60610546875,0.4612165689468384,-9.876076698303223,0.7627122402191162
1781788046448633900,22.6546337890625,0.4253242313861847,-9.90149974822998,0.7767700552940369
1781788046545690000,22.751690185546874,0.3595215976238251,-9.923035621643066,0.7139584422111511
1781788046594218500,22.800218505859377,0.3454637825489044,-9.909276962280273,0.7073782086372375
1781788046642746600,22.84874658203125,0.3774677813053131,-9.927223205566406,0.7471588850021362
1781788046691274800,22.897274658203123,0.4052843451499939,-9.939187049865723,0.7447660565376282
1781788046739803100,22.94580322265625,0.42412781715393066,-9.919745445251465,0.7977072596549988
1781788046788331300,22.994331298828126,0.3891327679157257,-9.886545181274414,0.8009973764419556
1781788046836859400,23.042859375,0.4983053207397461,-10.067203521728516,0.8662018179893494
1781788046885387800,23.0913876953125,0.7256234884262085,-10.044172286987305,1.1404790878295898
1781788046933916000,23.139916015625,0.7339983582496643,-9.959526062011719,1.3504493236541748
1781788046982444300,23.1884443359375,0.5416752099990845,-9.86411190032959,1.4060823917388916
1781788047030972400,23.236972412109374,0.25304099917411804,-9.792327880859375,0.8742775917053223
1781788047079500500,23.28550048828125,0.023030918091535568,-9.789935111999512,0.43549370765686035
1781788047128029000,23.33402880859375,-0.2144567221403122,-9.816853523254395,0.18335004150867462
1781788047176557000,23.38255712890625,-0.20877377688884735,-9.88415241241455,0.2590230405330658
1781788047225085200,23.431085205078126,-0.04007977992296219,-10.097113609313965,0.29042884707450867
1781788047273613600,23.479613525390626,-0.09421738982200623,-9.965508460998535,0.15134602785110474
1781788047322141700,23.5281416015625,-0.22582264244556427,-9.967901229858398,-0.0364905446767807
1781788047370669800,23.576669921875,0.056530434638261795,-10.555338859558105,0.2632105052471161
1781788047419198200,23.6251982421875,0.4124628007411957,-10.27178955078125,1.2604193687438965
1781788047467726300,23.673726318359375,0.4061816334724426,-9.722636222839355,0.8814560174942017
1781788047516254700,23.722254638671874,-0.07328019291162491,-7.163213729858398,-0.2602194547653198
1781788047564782600,23.770782470703125,0.2721835672855377,-10.85444164276123,1.7521443367004395
1781788047613310700,23.819310791015624,-0.31106695532798767,-10.992029190063477,1.3680963516235352
1781788047661839000,23.867839111328124,0.3008974492549896,-9.512067794799805,0.7929216027259827
1781788047710367200,23.9163671875,0.24466611444950104,-10.152148246765137,0.7450651526451111
1781788047758895400,23.964895263671874,0.2192423790693283,-9.84257698059082,0.8847461938858032
1781788047807423700,24.013423828125,0.14835500717163086,-9.55214786529541,0.5177469849586487
1781788047855952100,24.0619521484375,-0.12622138857841492,-10.192826271057129,0.5943173170089722
1781788047904480000,24.11047998046875,-0.15942180156707764,-9.833903312683105,0.5536393523216248
1781788047953008000,24.159008056640626,0.02961117960512638,-9.441479682922363,0.4372883439064026
1781788048001536500,24.20753662109375,0.09960123896598816,-10.318449020385742,0.961017370223999
1781788048050064600,24.256064697265625,-0.125324085354805,-9.76989459991455,0.753140926361084
1781788048098592800,24.3045927734375,0.47228336334228516,-10.182058334350586,0.544965386390686
1781788048195649300,24.401649169921875,0.32632118463516235,-9.910174369812012,0.5105685591697693
1781788048244177400,24.450177490234374,0.35084763169288635,-10.046565055847168,1.2164511680603027
1781788048292705500,24.49870556640625,0.6475576162338257,-10.205389022827148,0.7594220638275146
1781788048341234000,24.54723388671875,-0.011066804639995098,-9.445367813110352,-0.08793623000383377
1781788048389762000,24.595761962890624,0.11665010452270508,-9.681360244750977,0.09182456880807877
1781788048438290200,24.644290283203127,-0.14745768904685974,-10.595418930053711,1.3202399015426636
1781788048486818300,24.692818359375,0.33828529715538025,-9.518050193786621,1.673181176185608
1781788048535346700,24.7413466796875,0.24466611444950104,-9.780363082885742,1.0968101024627686
1781788048583874800,24.789874755859376,0.1052841991186142,-10.106684684753418,0.7441678643226624
1781788048632403000,24.83840283203125,-0.2599203586578369,-9.809077262878418,0.11246266216039658
1781788048680931300,24.886931396484375,-0.3239283561706543,-10.029216766357422,-0.2913261651992798
1781788048729459500,24.93545947265625,0.33020952343940735,-9.860223770141602,0.2066800594329834
1781788048777987600,24.983987548828125,0.040677983313798904,-9.943673133850098,0.9290133714675903
1781788048826515700,25.032515625,0.36311084032058716,-10.292128562927246,1.0259226560592651
1781788048875043800,25.0810439453125,0.4013960063457489,-9.972387313842773,0.9888339638710022
1781788048923572000,25.129572021484375,0.16420745849609375,-9.512367248535156,0.9158528447151184
1781788048972100000,25.17810009765625,-0.05174478888511658,-9.591031074523926,0.4220340847969055
1781788049020628200,25.226628173828125,0.06400800496339798,-9.781859397888184,0.6717849373817444
1781788049069156600,25.275156494140624,0.14925231039524078,-10.16171932220459,0.649053156375885
1781788049117684700,25.323684814453124,0.1944168359041214,-10.553245544433594,0.8590233325958252
1781788049166213000,25.372213134765627,0.22432711720466614,-9.844969749450684,1.4006985425949097
1781788049214741000,25.420740966796874,0.9355936646461487,-10.237093925476074,0.908674418926239
1781788049263269400,25.469269287109373,0.4546363055706024,-9.708579063415527,0.4253242313861847
1781788049311797500,25.517797607421876,0.42831525206565857,-9.170193672180176,0.5829514265060425
1781788049360325600,25.56632568359375,-0.243469700217247,-9.876076698303223,0.5264210104942322
1781788049408853800,25.614853759765627,-0.7387840151786804,-9.908679008483887,0.4627120792865753
1781788049457382000,25.6633818359375,-0.4657030999660492,-10.423135757446289,0.09810572862625122
1781788049505910300,25.71191015625,0.4938187599182129,-10.287641525268555,0.7067800164222717
1781788049554438400,25.7604384765625,0.43639102578163147,-10.044172286987305,0.9864411354064941
1781788049602966500,25.808966552734375,0.14745768904685974,-9.474081993103027,0.7417750358581543
1781788049651494700,25.85749462890625,0.389431893825531,-9.523433685302734,1.093519926071167
1781788049700022800,25.906022705078126,0.397208571434021,-10.351948738098145,1.155733346939087
1781788049748551000,25.954551025390625,0.18514464795589447,-10.051650047302246,0.5656034350395203
1781788049845607400,26.051607421875,0.23748764395713806,-9.56471061706543,1.1694921255111694
1781788049894135600,26.100135498046875,0.06550352275371552,-9.252447128295898,0.6239284873008728
1781788049942663400,26.148663330078126,0.23210379481315613,-10.209575653076172,0.9705886840820312
1781788049991192000,26.197192138671873,-0.29760730266571045,-10.028918266296387,0.6861419081687927
1781788050039720000,26.245719970703124,-0.6876373887062073,-9.55753231048584,-0.3837489187717438
1781788050088248000,26.294248046875,-0.2353939265012741,-10.144670486450195,-0.1381855010986328
1781788050136776200,26.342776123046875,0.09092725813388824,-10.313663482666016,0.7704889178276062
1781788050185304300,26.39130419921875,0.14506487548351288,-9.8207426071167,0.8398807644844055
1781788050233832700,26.439832763671873,0.12382857501506805,-9.954142570495605,0.9613165259361267
1781788050282360800,26.48836083984375,-0.09242277592420578,-9.949356079101562,1.1132607460021973
1781788050330889000,26.536888916015624,0.17557336390018463,-10.00857925415039,1.048953652381897
1781788050379417000,26.5854169921875,0.2027917206287384,-9.993324279785156,0.6092724800109863
1781788050427945200,26.6339453125,0.050847481936216354,-9.898209571838379,0.20398813486099243
1781788050476473600,26.6824736328125,0.13968102633953094,-9.57787036895752,0.5703890919685364
1781788050525001700,26.731001708984376,0.012562318705022335,-10.136894226074219,0.916451096534729
1781788050573529900,26.77952978515625,0.052043892443180084,-9.767501831054688,0.8015955686569214
1781788050622058000,26.82805810546875,0.15942180156707764,-9.905388832092285,0.7926225066184998
1781788050670586000,26.876586181640626,-0.03529413416981697,-10.034899711608887,0.7058826684951782
1781788050719114200,26.9251142578125,0.03918246924877167,-10.007681846618652,0.86470627784729
1781788050767642400,26.973642333984376,0.11306086927652359,-10.036096572875977,0.7986045479774475
1781788050816170500,27.02217041015625,0.3077768087387085,-9.697213172912598,0.893121063709259
1781788050864698600,27.07069873046875,0.5018945336341858,-10.036395072937012,0.8566305041313171
1781788050913226800,27.119226806640626,0.3000001311302185,-10.145567893981934,0.8255237936973572
1781788050961755000,27.1677548828125,-0.09391828626394272,-9.705288887023926,0.6059823632240295
1781788051010283000,27.216282958984376,-0.1381855010986328,-9.737292289733887,0.8790631890296936
1781788051058811100,27.26481103515625,-0.18753747642040253,-10.486246109008789,0.9394819736480713
1781788051107339300,27.31333935546875,-0.33828529715538025,-9.186046600341797,-0.1537388563156128
1781788051155867600,27.36186767578125,0.2024926096200943,-10.336395263671875,0.6978068947792053
1781788051204395800,27.410395751953125,-0.24586252868175507,-10.138389587402344,1.1285150051116943
1781788051252924000,27.458923828125,0.38673996925354004,-9.138189315795898,0.5533402562141418
1781788051301452000,27.5074521484375,-0.024526432156562805,-10.571490287780762,1.2643076181411743
1781788051349980200,27.555980224609375,-0.04935196787118912,-9.919147491455078,1.036690354347229
1781788051398508300,27.60450830078125,0.027218356728553772,-9.606584548950195,0.5201398134231567
1781788051495564300,27.701564208984376,-0.271286278963089,-9.841081619262695,0.355932354927063
1781788051544092700,27.7500927734375,-0.16091732680797577,-9.813862800598145,0.2144567221403122
1781788051592620800,27.798620849609375,-0.030209386721253395,-10.118648529052734,1.041775107383728
1781788051641149000,27.84714892578125,0.21625134348869324,-10.036096572875977,1.20687997341156
1781788051689677000,27.895677001953125,0.4576273262500763,-9.85274600982666,1.3749756813049316
1781788051738205200,27.944205078125,0.3966103494167328,-9.999606132507324,0.5431707501411438
1781788051786733300,27.9927333984375,0.24406790733337402,-9.764511108398438,0.97926265001297
1781788051835261400,28.041261474609374,-0.010468599386513233,-9.914361953735352,0.9254241585731506
1781788051883789600,28.08978955078125,-0.02153540402650833,-9.92243766784668,1.0064810514450073
1781788051932317700,28.138317626953125,-0.33888351917266846,-9.902397155761719,0.5760720372200012
1781788051980845800,28.186845703125,-0.44416770339012146,-9.938887596130371,0.33409786224365234
1781788052029374000,28.2353740234375,-0.2949153780937195,-9.996614456176758,0.3885345757007599
1781788052077902000,28.283902099609374,-0.4387838542461395,-9.882357597351074,0.3900300860404968
1781788052126430200,28.33243017578125,-0.047258246690034866,-9.91286563873291,0.4205385744571686
1781788052174958300,28.380958251953125,0.02961117960512638,-10.1183500289917,0.8509475588798523
1781788052223486500,28.429486572265624,0.011066804639995098,-9.882955551147461,0.7139584422111511
1781788052272014600,28.4780146484375,0.06939185410737991,-9.84556770324707,0.6119644045829773
1781788052320542700,28.526542724609374,-0.06550352275371552,-9.905388832092285,0.5814558863639832
1781788052369070800,28.57507080078125,-0.09810572862625122,-9.879964828491211,0.9625129103660583
1781788052417599000,28.623598876953125,0.012861421331763268,-9.970293998718262,1.0079765319824219
1781788052466127000,28.672127197265624,0.13070793449878693,-9.810572624206543,0.9053842425346375
1781788052514655200,28.7206552734375,0.06789634376764297,-9.742077827453613,0.3523431420326233
1781788052563183400,28.769183349609374,-0.1453639715909958,-9.96700382232666,0.40378883481025696
1781788052611711500,28.81771142578125,-0.09092725813388824,-10.10159969329834,0.849452018737793
1781788052660239600,28.866239501953125,0.064606212079525,-9.979865074157715,0.783948540687561
1781788052708767700,28.914767822265624,0.024825535714626312,-9.915857315063477,0.7962117195129395
1781788052757295900,28.9632958984375,0.012562318705022335,-9.872187614440918,0.9044869542121887
1781788052805824000,29.011823974609374,-0.1013958603143692,-10.082457542419434,0.8374879360198975
1781788052854352000,29.060351806640625,-0.1618146300315857,-10.05703353881836,0.1657029688358307
1781788052902880000,29.1088798828125,0.0014955141814425588,-9.601499557495117,0.7393822073936462
1781788052951408000,29.157408203125,-0.12023933976888657,-10.017850875854492,0.8105686902999878
1781788052999936300,29.205936279296875,-0.06311069428920746,-9.806684494018555,0.3574278950691223
1781788053048464400,29.25446435546875,-0.12921242415905,-9.934999465942383,0.19920247793197632
1781788053145520600,29.351520751953124,0.03678964823484421,-9.495318412780762,0.9643075466156006
1781788053194048800,29.400048828125,-0.8216354846954346,-9.782755851745605,0.7307082414627075
1781788053242577000,29.448576904296875,-0.37477585673332214,-10.875977516174316,0.760917603969574
1781788053291105000,29.49710498046875,0.07896314561367035,-9.94397258758545,1.3648061752319336
1781788053339633200,29.545633056640625,-0.2392822653055191,-9.265607833862305,-0.007178467698395252
1781788053388161300,29.594161376953124,-0.24825534224510193,-9.800104141235352,-0.23389841616153717
1781788053436689200,29.642689208984375,-0.4824528694152832,-9.960423469543457,0.27337998151779175
1781788053485217300,29.69121728515625,-0.2727817893028259,-10.486246109008789,0.8270193338394165
1781788053533745400,29.739745361328126,-0.047258246690034866,-9.396016120910645,0.8479565382003784
1781788053582273500,29.7882734375,-0.20428723096847534,-9.782755851745605,0.34277185797691345
1781788053630801400,29.836801513671876,-0.7369893789291382,-10.03131103515625,0.07567301392555237
1781788053679329500,29.88532958984375,-0.18753747642040253,-9.734601020812988,1.200299620628357
1781788053727857700,29.933857666015626,0.11395817995071411,-10.34028434753418,1.6118651628494263
1781788053776385800,29.9823857421875,-0.16510476171970367,-10.007681846618652,0.5392823815345764
1781788053824914000,30.030913818359377,-0.26889345049858093,-9.801599502563477,0.34217363595962524
1781788053873442000,30.079442138671876,-0.2273181527853012,-10.246066093444824,0.7139584422111511
1781788053921970200,30.12797021484375,0.019142581149935722,-9.80817985534668,0.6732804775238037
1781788053970498300,30.176498291015626,0.07986045628786087,-9.21296501159668,0.357128769159317
1781788054019026400,30.2250263671875,0.15553347766399384,-10.002596855163574,1.0328021049499512
1781788054067554600,30.273554443359377,-0.831206738948822,-10.596914291381836,0.19381862878799438
1781788054116082700,30.322082763671876,-0.046360939741134644,-9.699007034301758,0.7977072596549988
1781788054164610600,30.370610595703123,-0.001794616924598813,-9.84975528717041,0.641276478767395
1781788054213138700,30.419138671875,-0.4660021960735321,-10.316056251525879,0.3397808074951172
1781788054261666800,30.467666748046874,-0.3774677813053131,-9.675079345703125,0.41575294733047485
1781788054310195000,30.51619482421875,-0.4289134442806244,-9.969396591186523,0.6586244106292725
1781788054358722800,30.564722900390624,0.2353939265012741,-9.600004196166992,0.7639086246490479
1781788054407251000,30.6132509765625,-0.1618146300315857,-10.002596855163574,0.8120641708374023
1781788054455779300,30.661779296875,-0.04127619042992592,-10.334601402282715,0.9562317728996277
1781788054504307200,30.71030712890625,-0.0005982056609354913,-9.597611427307129,0.6867401003837585
1781788054552835300,30.75883544921875,0.06999006122350693,-9.781859397888184,0.39421752095222473
1781788054601363500,30.807363525390624,0.07507480680942535,-10.095318794250488,0.8536394834518433
1781788054649891600,30.8558916015625,-0.07956135272979736,-10.009775161743164,0.5958128571510315
1781788054698419700,30.904419677734374,0.0008973084622994065,-9.694221496582031,0.760917603969574
1781788054795475500,31.001475341796876,0.16839489340782166,-10.134202003479004,0.8078767657279968
1781788054844003600,31.050003662109376,0.28953152894973755,-9.733404159545898,1.1150553226470947
1781788054892531700,31.09853173828125,0.03200400248169899,-9.992427825927734,0.6059823632240295
1781788054941059800,31.147059814453126,0.08374879509210587,-10.075279235839844,0.7570292353630066
1781788054989588000,31.195587890625,-0.4983053207397461,-9.710672378540039,0.10049854964017868
1781788055038116000,31.2441162109375,-0.5757729411125183,-10.012167930603027,0.3690928816795349
1781788055086644000,31.29264404296875,-0.5222335457801819,-10.292427062988281,0.7232306599617004
1781788055135172000,31.341172119140627,-0.3604189157485962,-10.0914306640625,0.8063812255859375
1781788055183700200,31.3897001953125,-0.46839502453804016,-10.01456069946289,0.5207380056381226
1781788055232228400,31.438228271484373,-0.025722842663526535,-9.989436149597168,1.1997014284133911
1781788055280756500,31.486756591796876,-0.24107688665390015,-9.625727653503418,0.1537388563156128
1781788055329284600,31.53528466796875,-0.29760730266571045,-9.48365306854248,-0.06849455088376999
1781788055377812500,31.5838125,-0.6834499835968018,-9.35025405883789,0.012861421331763268
1781788055426340600,31.632340576171874,-0.2877369225025177,-10.048060417175293,0.08225327730178833
1781788055474868500,31.680868408203125,-0.20907287299633026,-11.08056354522705,0.914058268070221
1781788055523396600,31.729396728515624,-0.26560330390930176,-10.099506378173828,1.2460623979568481
1781788055571924700,31.7779248046875,0.31405797600746155,-9.159725189208984,0.8925228714942932
1781788055620452900,31.826452880859375,0.024526432156562805,-9.801898956298828,0.43130627274513245
1781788055668981000,31.87498095703125,-0.5593222975730896,-10.183255195617676,0.3475574851036072
1781788055717508900,31.9235087890625,-1.2744771242141724,-9.734601020812988,0.020937198773026466
1781788055766037000,31.972037109375,-0.7570292353630066,-9.84975528717041,0.3406781256198883
1781788055814565000,32.02056518554687,-0.42023947834968567,-10.249955177307129,0.47527438402175903
1781788055863093200,32.06909326171875,-0.129810631275177,-9.577571868896484,0.43160539865493774
1781788055911621000,32.11762109375,-0.7241279482841492,-10.144072532653809,0.5473581552505493
1781788055960149200,32.16614916992187,0.3068794906139374,-11.137990951538086,1.3298112154006958
1781788056008677400,32.21467749023437,-0.6373881101608276,-8.408976554870605,1.3199408054351807
1781788056057205500,32.26320556640625,0.04546362906694412,-9.486644744873047,1.028315544128418
1781788056105733600,32.311733642578126,-0.23449662327766418,-10.29452133178711,1.568196177482605
1781788056154261200,32.36026123046875,-0.09391828626394272,-9.575179100036621,1.1279168128967285
1781788056202789400,32.40878930664063,0.06041877344250679,-9.707681655883789,0.9490532875061035
1781788056251317500,32.4573173828125,0.5479564070701599,-9.882357597351074,1.800000786781311
1781788056299845600,32.505845703125,0.18335004150867462,-10.20449161529541,2.2582263946533203
1781788056348373500,32.55437353515625,0.0005982056609354913,-10.088140487670898,1.597508192062378
1781788056445429800,32.6514296875,-0.32931220531463623,-10.250253677368164,-0.30927231907844543
1781788056493958000,32.6999580078125,-0.40767714381217957,-9.68076229095459,-0.359820693731308
1781788056542486000,32.748486083984375,-0.2967100143432617,-9.699904441833496,0.17647066712379456
1781788056591014000,32.79701391601562,0.004187439568340778,-9.91825008392334,0.37417763471603394
1781788056639542000,32.8455419921875,0.2880360186100006,-9.664012908935547,0.46331027150154114
1781788056688070100,32.894070068359376,0.31495529413223267,-10.00857925415039,0.9074779748916626
1781788056736598000,32.94259790039062,0.14775680005550385,-10.189536094665527,0.9777671694755554
1781788056785126000,32.9911259765625,0.22432711720466614,-9.84556770324707,1.163809061050415
1781788056833654000,33.03965405273438,0.03678964823484421,-9.997811317443848,0.8638089895248413
1781788056882182100,33.08818212890625,0.15553347766399384,-9.818648338317871,0.5392823815345764
1781788056930710000,33.1367099609375,0.14117653667926788,-9.938289642333984,0.48514479398727417
1781788056979238100,33.18523803710937,0.2551347017288208,-9.991530418395996,0.5632106065750122
1781788057027766300,33.23376635742188,0.21236300468444824,-10.003494262695312,0.5638088583946228
1781788057076294400,33.28229443359375,0.2832503914833069,-9.933204650878906,0.6403791308403015
1781788057124822300,33.330822265625,0.23449662327766418,-9.916455268859863,0.7992027401924133
1781788057173350400,33.37935034179687,0.24077777564525604,-9.902098655700684,0.8709874153137207
1781788057221878300,33.42787817382813,0.2727817893028259,-9.946066856384277,0.8670991063117981
1781788057270406400,33.476406494140626,0.2766701281070709,-9.916455268859863,0.8629116415977478
1781788057318934500,33.5249345703125,0.33020952343940735,-9.872187614440918,0.9077770709991455
1781788057367462400,33.57346240234375,0.30209386348724365,-9.91825008392334,0.9340981245040894
1781788057415990500,33.62199047851563,0.32153555750846863,-9.830613136291504,0.9302098155021667
1781788057464518400,33.670518310546875,0.27816563844680786,-9.934999465942383,0.9134600162506104
1781788057513046500,33.719046630859374,0.21954147517681122,-9.96281623840332,0.8524430394172668
1781788057561574700,33.76757470703125,0.2147558331489563,-9.902098655700684,0.7680960893630981
1781788057610102500,33.8161025390625,0.4001995921134949,-9.935896873474121,0.87248295545578
1781788057658630700,33.864630615234375,0.41066819429397583,-9.9502534866333,0.8799605369567871
1781788057707158500,33.91315844726562,0.4426721930503845,-9.836894035339355,1.048953652381897
1781788057755686700,33.96168676757812,0.23270200192928314,-9.897611618041992,0.9293124675750732
1781788057804214800,34.01021484375,0.11485548317432404,-9.936494827270508,0.7112665176391602
1781788057852742700,34.05874267578125,-0.007178467698395252,-9.8838529586792,0.7004988193511963
1781788057901270800,34.10727075195312,0.10677970945835114,-9.991530418395996,0.6340979933738708
1781788057949798700,34.15579858398438,-0.15134602785110474,-9.9502534866333,0.709172785282135
1781788057998326800,34.20432690429688,0.05353940650820732,-9.832706451416016,0.7292127013206482
1781788058095382800,34.3013828125,0.20159530639648438,-9.824331283569336,0.9556335210800171
1781788058143910700,34.34991064453125,0.2350948303937912,-9.816255569458008,0.8165507316589355
1781788058192438800,34.398438720703126,0.2306082844734192,-9.909575462341309,0.6714858412742615
1781788058240966700,34.446966552734374,0.22821545600891113,-10.013065338134766,0.6622136831283569
1781788058289494800,34.49549487304687,0.07956135272979736,-9.843474388122559,0.6332007050514221
1781788058338023000,34.54402294921875,0.13100704550743103,-9.923035621643066,0.7456633448600769
1781788058386550800,34.59255078125,0.09272187948226929,-10.029815673828125,0.7767700552940369
1781788058435079000,34.641078857421874,0.16749759018421173,-10.03131103515625,0.8335995674133301
1781788058483607000,34.68960693359375,0.18514464795589447,-9.751350402832031,0.8105686902999878
1781788058532135000,34.73813500976563,0.1818545162677765,-9.946066856384277,0.666999340057373
1781788058580663000,34.7866630859375,0.11096715182065964,-9.970891952514648,0.7411768436431885
1781788058629191000,34.83519091796875,0.0852443054318428,-9.866206169128418,0.7642077207565308
1781788058677719000,34.88371899414062,0.16420745849609375,-9.96700382232666,0.9245268702507019
1781788058726247000,34.93224682617188,0.3239283561706543,-9.855438232421875,1.0926226377487183
1781788058774774800,34.98077490234375,0.46031925082206726,-9.900004386901855,1.197009563446045
1781788058823303000,35.029302978515624,0.5368895530700684,-9.887741088867188,1.2634103298187256
1781788058871830800,35.07783081054688,0.5733801126480103,-9.82822036743164,1.2508480548858643
1781788058920359000,35.12635888671875,0.5177469849586487,-9.951749801635742,1.0145567655563354
1781788058968886800,35.17488671875,0.42831525206565857,-9.92961597442627,0.7289136052131653
1781788059017415000,35.22341479492187,0.21355941891670227,-9.917352676391602,0.4331009089946747
1781788059065943000,35.27194311523437,0.19322042167186737,-9.983454704284668,0.41066819429397583
1781788059114471000,35.320470947265626,0.07088737189769745,-9.932008743286133,0.5796613097190857
1781788059162999000,35.3689990234375,0.2153540402650833,-9.932008743286133,0.7929216027259827
1781788059211527000,35.41752685546875,0.2066800594329834,-9.886545181274414,0.9260223507881165
1781788059260054800,35.4660546875,0.3032902777194977,-9.920044898986816,0.9517452120780945
1781788059308583000,35.5145830078125,0.29371899366378784,-9.875179290771484,0.9987043738365173
1781788059357111000,35.563111083984374,0.28893333673477173,-9.908679008483887,0.9317052960395813
1781788059405639000,35.61163891601562,0.251844584941864,-9.89970588684082,0.8670991063117981
1781788059454166800,35.660166748046876,0.243469700217247,-9.89432144165039,0.8120641708374023
1781788059502695000,35.70869482421875,0.18903298676013947,-9.930213928222656,0.7408776879310608
1781788059551222800,35.75722290039062,0.22881366312503815,-9.953543663024902,0.7830511927604675
1781788059599751000,35.8057509765625,0.18903298676013947,-9.907182693481445,0.8548358678817749
1781788059648278800,35.85427880859375,0.18843477964401245,-9.914361953735352,0.8772686123847961
1781788059745334800,35.95133471679687,0.27337998151779175,-9.862616539001465,0.870090126991272
1781788059793862700,35.999862548828126,0.2560320198535919,-9.892826080322266,0.8925228714942932
1781788059842390800,36.048390869140626,0.18574285507202148,-9.83121109008789,0.838983416557312
1781788059890918700,36.09691870117187,0.12263216078281403,-9.955936431884766,0.8270193338394165
1781788059939446800,36.14544677734375,0.17527425289154053,-10.101001739501953,0.9858429431915283
1781788059987974700,36.193974609375,0.22911277413368225,-9.995418548583984,1.0304092168807983
1781788060036502800,36.242502685546874,0.24825534224510193,-9.837791442871094,0.8638089895248413
1781788060085031000,36.291031005859374,0.2024926096200943,-9.841679573059082,0.7331010103225708
1781788060133558500,36.33955859375,0.21355941891670227,-9.845867156982422,0.706480860710144
1781788060182086700,36.388086669921876,0.2147558331489563,-9.899106979370117,0.7289136052131653
1781788060230614500,36.43661450195312,0.21146570146083832,-9.982855796813965,0.7992027401924133
1781788060279142700,36.485142578125,0.28564319014549255,-9.881460189819336,0.8536394834518433
1781788060327670500,36.53367041015625,0.2805584669113159,-9.881759643554688,0.8428717851638794
1781788060376198700,36.58219873046875,0.2949153780937195,-9.896714210510254,0.8599206209182739
1781788060424726500,36.6307265625,0.26141586899757385,-9.923933029174805,0.8153542876243591
1781788060473254700,36.67925463867188,0.24107688665390015,-9.966106414794922,0.7878368496894836
1781788060521782500,36.727782470703126,0.24107688665390015,-9.915857315063477,0.8192426562309265
1781788060570310700,36.776310546875,0.25304099917411804,-9.985248565673828,0.8087740540504456
1781788060618838500,36.82483862304687,0.28085756301879883,-9.90688419342041,0.8327022790908813
1781788060667366400,36.87336645507813,0.27696922421455383,-9.874281883239746,0.8135597109794617
1781788060715894300,36.921894287109374,0.25304099917411804,-9.895816802978516,0.8144569993019104
1781788060764422400,36.97042236328125,0.2234298139810562,-9.960722923278809,0.8126623630523682
1781788060812950300,37.0189501953125,0.28235307335853577,-9.892826080322266,0.8452646136283875
1781788060861478400,37.067478515625,0.23449662327766418,-9.92841911315918,0.8575277924537659
1781788060910006300,37.11600634765625,0.2392822653055191,-9.9140625,0.8503493666648865
1781788060958534100,37.1645341796875,0.23748764395713806,-9.893424034118652,0.8273184299468994
1781788061007062300,37.21306225585938,0.24406790733337402,-9.906285285949707,0.8470591902732849
1781788061055590100,37.261590087890625,0.24077777564525604,-9.885348320007324,0.851844847202301
1781788061104118300,37.3101181640625,0.20997019112110138,-9.91825008392334,0.8288139700889587
1781788061152646100,37.35864624023438,0.2063809484243393,-9.912567138671875,0.8216354846954346
1781788061201174000,37.407174072265626,0.16929219663143158,-9.954142570495605,0.8006982803344727
1781788061249702100,37.4557021484375,0.18095721304416656,-9.939187049865723,0.8192426562309265
1781788061298230000,37.50422998046875,0.15314064919948578,-9.952347755432129,0.7968099117279053
1781788061395286000,37.6012861328125,0.28175488114356995,-9.856036186218262,0.893121063709259
1781788061443814000,37.64981396484375,0.2386840581893921,-9.886245727539062,0.8524430394172668
1781788061492342000,37.69834204101563,0.23449662327766418,-9.839884757995605,0.8404789566993713
1781788061540870000,37.746869873046876,0.21954147517681122,-9.86949634552002,0.8662018179893494
1781788061589397800,37.79539770507812,0.19680966436862946,-9.965508460998535,0.8844470977783203
1781788061637926000,37.84392578125,0.1824527233839035,-9.924530982971191,0.870090126991272
1781788061686453800,37.89245385742188,0.18753747642040253,-9.915857315063477,0.8656035661697388
1781788061734981600,37.940981689453125,0.2186441719532013,-9.881460189819336,0.9038887619972229
1781788061783509500,37.98950952148437,0.3032902777194977,-9.89013385772705,0.8790631890296936
1781788061832037400,38.03803735351563,0.5216353535652161,-9.79681396484375,1.0336993932724
1781788061880565500,38.0865654296875,0.5144568681716919,-9.30030345916748,1.2801600694656372
1781788061929093400,38.13509326171875,-0.08135596662759781,-9.315258979797363,0.9960124492645264
1781788061977621200,38.18362133789063,-0.129810631275177,-10.732407569885254,0.8715856671333313
1781788062026149400,38.2321494140625,0.2745763957500458,-10.9271240234375,0.9658030271530151
1781788062074677800,38.280677734375,0.511465847492218,-10.255638122558594,0.9613165259361267
1781788062171733200,38.37773315429688,0.4576273262500763,-9.723533630371094,0.7459624409675598
1781788062220261000,38.42626123046875,0.6978068947792053,-9.886245727539062,0.9481559991836548
1781788062268789200,38.47478930664062,0.4408775866031647,-9.947562217712402,0.7887341380119324
1781788062317317000,38.52331713867188,0.47676992416381836,-10.221540451049805,-0.0568295381963253
1781788062365845000,38.571844970703125,0.41216370463371277,-9.770792007446289,-0.86470627784729
1781788062414373000,38.620373046875,0.21595224738121033,-8.94377326965332,-1.111167073249817
1781788062462901000,38.66890087890625,-0.1417747437953949,-8.44277572631836,-1.3232308626174927
1781788062511428900,38.71742895507813,0.4289134442806244,-8.613563537597656,0.716949462890625
1781788062559957000,38.76595703125,-0.620638370513916,-12.695419311523438,2.777169704437256
1781788062608484900,38.81448486328125,0.5174478888511658,-11.149656295776367,3.563810110092163
1781788062657012700,38.8630126953125,0.8270193338394165,-9.800104141235352,1.7413766384124756
1781788062705540600,38.91154052734375,1.7629120349884033,-8.603992462158203,0.8892326951026917
1781788062754068500,38.960068359375,1.7306089401245117,-8.441280364990234,1.599302887916565
1781788062802596400,39.00859643554688,2.0578274726867676,-8.84088134765625,2.956033229827881
1781788062851124500,39.05712451171875,1.5984054803848267,-8.901300430297852,3.1752755641937256
1781788062899652400,39.10565234375,1.6471593379974365,-9.198010444641113,3.2129626274108887
1781788062996708400,39.202708251953126,2.3147568702697754,-10.92891788482666,3.93679141998291
1781788063045236200,39.251236328125,1.9492532014846802,-12.06760311126709,3.133700370788574
1781788063093764400,39.29976440429687,0.6308078765869141,-10.465309143066406,2.152942180633545
1781788063142292200,39.34829223632813,-0.4944169819355011,-9.87368392944336,0.3188436031341553
1781788063190820000,39.396820068359375,-1.236491084098816,-11.409875869750977,-1.2882359027862549
1781788063239348000,39.44534790039062,0.05922235921025276,-8.580063819885254,-1.0465607643127441
1781788063287876000,39.4938759765625,-0.6933203339576721,-9.960423469543457,-2.8085756301879883
1781788063336404000,39.542404052734376,1.0298110246658325,-8.079665184020996,-1.6630117893218994
1781788063384931800,39.590931884765624,0.9050851464271545,-9.193224906921387,-0.8081758618354797
1781788063433459700,39.63945971679688,0.7953144311904907,-10.806884765625,0.5736792087554932
1781788063481987800,39.68798779296875,0.9777671694755554,-10.22602653503418,0.7579265832901001
1781788063530515500,39.73651538085937,1.4362918138504028,-10.275378227233887,-0.1660020649433136
1781788063579043300,39.78504321289063,1.6734803915023804,-10.044172286987305,-0.5590232014656067
1781788063627571500,39.83357153320313,1.6606189012527466,-9.389435768127441,-0.5527420043945312
1781788063676099300,39.882099365234374,3.3723843097686768,-10.415060043334961,0.87248295545578
1781788063724627200,39.93062719726562,1.7365909814834595,-10.010972023010254,1.7467604875564575
1781788063773155000,39.97915502929688,-0.2991028428077698,-7.944769382476807,1.9160526990890503
1781788063821683200,40.02768310546875,-2.0027925968170166,-10.551450729370117,0.16031911969184875
1781788063870211000,40.07621118164062,-2.595614433288574,-13.045668601989746,0.9699904918670654
1781788063918739000,40.12473901367188,-0.5455635786056519,-10.848160743713379,2.4870400428771973
1781788063967267000,40.17326708984375,-0.3158525824546814,-10.354341506958008,3.063411235809326
1781788064015795000,40.221794921875,1.5586248636245728,-7.610073089599609,0.8566305041313171
1781788064064322800,40.27032275390625,0.9284151792526245,-8.042875289916992,-0.1986042857170105
1781788064112850700,40.3188505859375,1.80508553981781,-6.338587284088135,-0.37806597352027893
1781788064161378600,40.367378662109374,2.7197420597076416,-6.200401782989502,2.014756679534912
1781788064209906700,40.41590673828125,1.965105652809143,-11.780763626098633,4.7727837562561035
1781788064258434600,40.4644345703125,1.1772687435150146,-19.811973571777344,4.767100811004639
1781788064306962200,40.51296215820312,1.3007981777191162,-10.551450729370117,-0.3966103494167328
1781788064355490300,40.561490234375,0.5198407173156738,-8.170592308044434,-1.6854444742202759
1781788064404018200,40.61001806640625,-1.3336994647979736,-13.57298755645752,0.5282155871391296
1781788064452546000,40.658546142578125,0.0014955141814425588,-8.565407752990723,-1.2580264806747437
1781788064501074000,40.70707397460937,1.4315061569213867,-7.2095746994018555,-0.750449001789093
1781788064549602000,40.75560205078125,1.0917253494262695,-8.184948921203613,0.19680966436862946
1781788064646657800,40.85265771484375,1.2532408237457275,-8.940483093261719,1.3408780097961426
1781788064695185700,40.901185546875,2.2612173557281494,-9.404690742492676,0.6741777658462524
1781788064743713500,40.949713623046875,2.259422779083252,-10.366604804992676,-1.953440546989441
1781788064792241400,40.99824145507812,4.4751763343811035,-12.795021057128906,1.6360924243927002
1781788064840769300,41.04676928710938,0.49591249227523804,-7.591827869415283,2.383251428604126
1781788064889297200,41.095297119140625,-1.296311616897583,-9.72114086151123,0.8356932997703552
1781788064937825000,41.14382495117187,-3.5168511867523193,-17.179868698120117,-0.7384848594665527
1781788064986353200,41.19235327148437,-2.030010938644409,-11.808579444885254,4.026223182678223
1781788065034881000,41.240881103515626,0.6963114142417908,-7.316354274749756,4.168296813964844
1781788065083409000,41.289408935546874,1.2329018115997314,-6.568896293640137,-0.6275177597999573
1781788065131937000,41.33793701171875,0.6092724800109863,-5.554339408874512,-1.057029366493225
1781788065180465000,41.38646484375,2.251646041870117,-5.541179180145264,0.2877369225025177
1781788065228992800,41.43499267578125,3.704089403152466,-8.629117012023926,4.084548473358154
1781788065277520600,41.48352075195312,3.3538401126861572,-15.23599910736084,5.812166213989258
1781788065326048500,41.53204858398438,3.4103705883026123,-14.029119491577148,6.427121639251709
1781788065374576400,41.580576416015624,-2.1003000736236572,-11.663215637207031,-4.4497528076171875
1781788065423104300,41.62910424804687,0.45284169912338257,-7.2320075035095215,-2.1876380443573
1781788065471632100,41.677632080078126,-1.551147222518921,-15.215959548950195,1.94297194480896
1781788065520160000,41.726159912109374,0.7986045479774475,-9.382855415344238,-1.822433590888977
1781788065568688000,41.77468823242187,0.8359923958778381,-5.877370834350586,-2.430509567260742
1781788065617216000,41.82321606445313,0.3077768087387085,-7.770392417907715,-1.100698471069336
1781788065665744000,41.871743896484375,0.7378866672515869,-9.369396209716797,0.8213363885879517
1781788065714271700,41.92027172851562,2.186441659927368,-9.272786140441895,2.9015965461730957
1781788065762799600,41.96879956054688,3.287140130996704,-9.7669038772583,0.8979067206382751
1781788065811327700,42.01732763671875,4.273581027984619,-12.369397163391113,0.08045866340398788
1781788065859855600,42.065855712890624,4.156930923461914,-8.059924125671387,3.6699917316436768
1781788065908383200,42.11438330078125,-1.2044870853424072,-9.501300811767578,3.235694408416748
1781788065956910800,42.162910888671874,-2.587538480758667,-15.432808876037598,-1.236191987991333
1781788066005438700,42.21143872070313,-3.73669171333313,-15.832409858703613,0.23629122972488403
1781788066053966800,42.259966796875,-0.19800607860088348,-7.960023403167725,4.881956577301025
1781788066102494700,42.30849462890625,1.1581261157989502,-4.827818870544434,1.490728497505188
1781788066151022600,42.35702270507812,0.5168496966362,-5.603392601013184,-1.1159526109695435
1781788066199550500,42.40555053710938,1.5122638940811157,-5.119144916534424,-1.118943691253662
1781788066296606500,42.5026064453125,1.9749759435653687,-15.814165115356445,5.597709655761719
1781788066345134300,42.55113427734375,4.489533424377441,-13.640883445739746,4.384249210357666
1781788066393662200,42.599662109375,-1.989332914352417,-11.32104206085205,-2.8513472080230713
1781788066442190000,42.64819018554687,0.5545366406440735,-10.5394868850708,-1.9597218036651611
1781788066490718000,42.69671801757813,-1.6758731603622437,-15.475281715393066,1.8598214387893677
1781788066539245800,42.745245849609375,1.3319048881530762,-9.00987434387207,-0.7217351198196411
1781788066587773700,42.79377368164062,0.5120640397071838,-6.053243160247803,-1.3704891204833984
1781788066636301600,42.84230151367188,0.29341986775398254,-7.187440872192383,-0.9586246013641357
1781788066684829400,42.890829345703125,0.6948158740997314,-7.904390335083008,0.4456632137298584
1781788066733357300,42.939357421875,2.0012969970703125,-9.301798820495605,2.5884358882904053
1781788066781885200,42.98788525390625,3.3714871406555176,-9.62782096862793,0.844068169593811
1781788066830413000,43.0364130859375,4.925027370452881,-12.017353057861328,-0.5440680384635925
1781788066878941000,43.08494091796875,3.975076675415039,-8.125128746032715,3.702594041824341
1781788066927469000,43.13346899414063,-1.9214365482330322,-7.901698589324951,3.6161532402038574
1781788066975997000,43.181996826171876,-2.7517459392547607,-16.549657821655273,-1.3926228284835815
1781788067024524800,43.23052490234375,-4.693222522735596,-18.861125946044922,0.9969097375869751
1781788067073052400,43.27905249023438,1.1874382495880127,-6.840481758117676,5.031507968902588
1781788067121580300,43.327580322265625,1.3106685876846313,-4.788636207580566,1.1868400573730469
1781788067170108200,43.37610815429687,0.30209386348724365,-5.375775337219238,-0.9547362327575684
1781788067218636300,43.42463623046875,1.9510477781295776,-4.973182678222656,-0.41216370463371277
1781788067267164200,43.4731640625,4.397110939025879,-7.287939548492432,3.961916208267212
1781788067315692000,43.521692138671874,2.4939193725585938,-16.8999080657959,5.396413326263428
1781788067364220000,43.57021997070313,1.7156537771224976,-14.80259895324707,4.019941806793213
1781788067412747800,43.618747802734376,-1.8098711967468262,-9.89850902557373,-5.471786975860596
1781788067461275600,43.66727563476562,0.02961117960512638,-12.637393951416016,-1.20687997341156
1781788067509803500,43.71580346679688,-1.1997014284133911,-13.243375778198242,1.526620864868164
1781788067558331400,43.764331298828125,1.6525431871414185,-8.399405479431152,-1.591825246810913
1781788067606859300,43.812859375,1.378864049911499,-5.388636589050293,-2.184048891067505
1781788067703915000,43.9099150390625,0.6499504446983337,-9.195018768310547,2.8283164501190186
1781788067752443000,43.95844287109375,3.417548894882202,-8.458627700805664,4.2122650146484375
1781788067800970800,44.006970703125,3.7501513957977295,-10.208678245544434,1.898106575012207
1781788067849498600,44.05549853515625,3.735196113586426,-11.559127807617188,-0.33020952343940735
1781788067898026500,44.10402661132812,1.205085277557373,-7.729415416717529,2.533101797103882
1781788067946554400,44.15255444335938,-1.4530415534973145,-11.509476661682129,1.4653047323226929
1781788067995082200,44.201082275390625,-4.689932346343994,-19.525432586669922,-1.1820544004440308
1781788068043610000,44.24961010742187,-1.8167506456375122,-11.683255195617676,3.8988053798675537
1781788068092138000,44.29813793945313,0.1657029688358307,-5.4179487228393555,4.063910007476807
1781788068140665900,44.346665771484375,0.9332008361816406,-4.1644086837768555,-0.8859425783157349
1781788068189193700,44.39519384765625,0.28175488114356995,-4.9154558181762695,-1.5415760278701782
1781788068237721600,44.4437216796875,2.965604543685913,-5.648557186126709,1.8065811395645142
1781788068286249500,44.49224951171875,3.6053855419158936,-12.086745262145996,6.1241302490234375
1781788068334777300,44.54077734375,3.7145581245422363,-16.98006820678711,5.683551788330078
1781788068383305200,44.58930517578125,-0.9355936646461487,-11.557332992553711,-0.45613181591033936
1781788068431833000,44.6378330078125,-0.8766704201698303,-8.715258598327637,-4.800002098083496
1781788068480361200,44.686361328125,-0.06550352275371552,-16.492231369018555,2.3099710941314697
1781788068528889000,44.73488916015625,-0.6212365627288818,-10.597213745117188,-0.41216370463371277
1781788068577417000,44.7834169921875,0.37148571014404297,-7.018746852874756,-3.8356947898864746
1781788068625944800,44.83194482421875,1.0671988725662231,-6.301797389984131,-2.263011932373047
1781788068674472700,44.88047265625,0.9074779748916626,-8.493922233581543,1.3657035827636719
1781788068723000300,44.929000244140624,2.490330219268799,-7.600203037261963,3.232105255126953
1781788068771528200,44.97752807617187,3.6472599506378174,-9.15404224395752,3.3628132343292236
1781788068820056000,45.02605615234375,3.2772696018218994,-11.86032485961914,1.095314621925354
1781788068868584000,45.074583984375,2.731706142425537,-8.361419677734375,2.7038896083831787
1781788068917111800,45.12311181640625,-1.2538390159606934,-10.35045337677002,2.8313074111938477
1781788068965639700,45.1716396484375,-3.595515012741089,-20.782262802124023,-1.4327025413513184
1781788069014167600,45.22016748046875,-3.2557342052459717,-14.412569046020508,4.504787921905518
1781788069062695400,45.2686953125,0.17706887423992157,-6.605087757110596,4.169792652130127
1781788069111223000,45.31722314453125,1.0007981061935425,-4.72881555557251,-0.35024940967559814
1781788069159751000,45.3657509765625,0.18005990982055664,-3.8826539516448975,-1.592124342918396
1781788069208278800,45.41427880859375,2.241177558898926,-3.9355950355529785,0.25752753019332886
1781788069256806700,45.462806640625,4.6061835289001465,-8.00638484954834,5.138287544250488
1781788069353862400,45.5598623046875,0.46031925082206726,-14.409578323364258,2.1445672512054443
1781788069402390500,45.608390625,-1.1318050622940063,-8.359624862670898,-5.300999641418457
1781788069450918400,45.65691845703125,-0.06041877344250679,-14.20559024810791,1.1180464029312134
1781788069499446000,45.70544604492188,-0.7369893789291382,-12.06640625,1.1635099649429321
1781788069547974000,45.753973876953125,1.3677972555160522,-6.024528980255127,-2.0141584873199463
1781788069596501800,45.80250170898437,1.5544373989105225,-4.138087749481201,-1.6959130764007568
1781788069645029600,45.85102954101563,0.9068797826766968,-8.386244773864746,1.4685949087142944
1781788069693557500,45.8995576171875,1.2346965074539185,-9.848259925842285,3.5117664337158203
1781788069742085400,45.94808544921875,3.9864425659179688,-9.615857124328613,2.7972097396850586
1781788069790613000,45.99661303710938,3.345165967941284,-12.623933792114258,0.09481559693813324
1781788069839140900,46.045140869140624,4.530510425567627,-11.1104736328125,1.0974082946777344
1781788069887668700,46.09366870117187,-0.9340981245040894,-6.340381622314453,3.1615169048309326
1781788069936196600,46.142196533203126,-1.7817555665969849,-12.373286247253418,1.6241283416748047
1781788069984724500,46.190724365234374,-4.887938499450684,-19.151554107666016,-1.1135598421096802
1781788070033252600,46.23925268554687,-1.291226863861084,-10.156036376953125,5.064708232879639
1781788070081780200,46.2877802734375,0.09960123896598816,-4.615156650543213,3.7609190940856934
1781788070130308000,46.33630810546875,1.1437692642211914,-4.35673189163208,-1.342971682548523
1781788070178836000,46.3848359375,1.0600204467773438,-4.326821327209473,-1.0271191596984863
1781788070227363800,46.43336376953125,3.396312713623047,-5.225924491882324,2.068894386291504
1781788070275891700,46.4818916015625,3.4307093620300293,-13.681561470031738,5.526822090148926
1781788070324419600,46.53041967773437,2.981456995010376,-19.9456729888916,5.429912567138672
1781788070372947500,46.57894750976563,-0.125922292470932,-11.530414581298828,-1.3830515146255493
1781788070421475300,46.627475341796874,0.22402802109718323,-8.32851791381836,-3.0275187492370605
1781788070470003000,46.6760029296875,-1.7922241687774658,-16.369897842407227,2.30279278755188
1781788070518530800,46.72453076171875,0.9317052960395813,-7.682755470275879,-0.6897311210632324
1781788070567058700,46.77305859375,0.9203394055366516,-4.492225646972656,-2.0395822525024414
1781788070615586600,46.82158666992188,0.768694281578064,-6.504589080810547,-1.170987606048584
1781788070664114400,46.870114501953125,0.20578274130821228,-10.079167366027832,1.80508553981781
1781788070712642000,46.91864208984375,2.168794631958008,-10.340882301330566,3.192922830581665
1781788070761170000,46.967169921875,5.225027561187744,-8.519944190979004,1.1772687435150146
1781788070809697800,47.01569775390625,3.640380620956421,-13.733007431030273,1.7688941955566406
1781788070858225700,47.0642255859375,0.6843472719192505,-7.299006462097168,3.2766714096069336
1781788070955281400,47.161281494140624,-4.936991214752197,-20.176280975341797,-1.1748759746551514
1781788071003809300,47.20980932617187,-2.4559333324432373,-10.903494834899902,3.2318060398101807
1781788071052337200,47.258337158203126,0.5264210104942322,-4.923531532287598,4.5206403732299805
1781788071100865000,47.306864990234374,0.8787640929222107,-4.31007194519043,-1.0223335027694702
1781788071149393000,47.35539282226563,0.8964111804962158,-4.310370922088623,-0.7642077207565308
1781788071197920800,47.403920654296876,3.1695926189422607,-5.883352756500244,2.1445672512054443
1781788071246448600,47.45244873046875,3.76570463180542,-11.9192476272583,6.519843578338623
1781788071294976300,47.50097631835938,2.760719060897827,-19.95464515686035,6.4803619384765625
1781788071343504100,47.549504150390625,-0.8629116415977478,-11.456236839294434,-2.778067111968994
1781788071392032000,47.59803198242187,0.9155537486076355,-8.869296073913574,-3.7423746585845947
1781788071440559600,47.6465595703125,-1.9372889995574951,-16.931015014648438,2.9521448612213135
1781788071489087500,47.69508740234375,1.0761719942092896,-8.111668586730957,-0.5255236625671387
1781788071537615400,47.74361547851562,0.9203394055366516,-4.17637300491333,-1.934298038482666
1781788071586143200,47.79214331054688,0.8973084688186646,-5.564808368682861,-0.6948158740997314
1781788071634671000,47.840671142578124,0.41485562920570374,-9.760323524475098,2.1296122074127197
1781788071683199000,47.88919897460938,2.1424734592437744,-10.563414573669434,4.042973041534424
1781788071731726800,47.937726806640626,5.109274387359619,-7.957630634307861,1.3719847202301025
1781788071780254700,47.98625463867187,4.872385025024414,-14.397015571594238,0.7193422913551331
1781788071828782600,48.03478247070313,-0.20159530639648438,-7.271788120269775,4.7234320640563965
1781788071877310500,48.083310546875,-1.425225019454956,-10.451848983764648,2.162513494491577
1781788071925838000,48.13183813476562,-4.272684097290039,-20.53759765625,-2.164607286453247
1781788071974366000,48.18036596679688,-3.014956474304199,-11.715259552001953,3.33858585357666
1781788072022893600,48.2288935546875,1.0528420209884644,-5.342275619506836,5.772983551025391
1781788072071421400,48.27742138671875,0.6924230456352234,-4.594817638397217,-0.07746763527393341
1781788072119949300,48.32594921875,0.6939185857772827,-4.002295017242432,-1.8098711967468262
1781788072168477200,48.374477294921874,3.1034910678863525,-4.554139614105225,0.4540380835533142
1781788072217005000,48.42300512695312,3.894019842147827,-9.616754531860352,5.78434944152832
1781788072265532700,48.47153271484375,3.8937206268310547,-19.21915054321289,6.571588516235352
1781788072314060500,48.520060546875,-0.841675341129303,-13.774582862854004,0.9332008361816406
1781788072362588400,48.56858837890625,-0.9529415965080261,-8.755337715148926,-4.598107814788818
1781788072411116300,48.6171162109375,-0.3000001311302185,-15.123536109924316,1.277169108390808
1781788072459644000,48.66564379882813,-0.3885345757007599,-11.353943824768066,1.0917253494262695
1781788072556699600,48.76269970703125,1.0974082946777344,-4.422833442687988,-1.3145569562911987
1781788072605227500,48.8112275390625,0.40767714381217957,-8.33719253540039,0.7624131441116333
1781788072653755400,48.85975537109375,2.1918256282806396,-9.903294563293457,3.0681967735290527
1781788072702283300,48.908283203125,4.649852752685547,-8.413763046264648,2.516651153564453
1781788072750811100,48.95681103515625,4.439284324645996,-13.322339057922363,1.0019944906234741
1781788072799338800,49.0053388671875,1.0648061037063599,-8.156534194946289,3.94097900390625
1781788072847866400,49.05386645507812,-1.919043779373169,-9.36879825592041,3.1148569583892822
1781788072896394200,49.10239428710938,-4.489832401275635,-21.05354881286621,-2.2381865978240967
1781788072944922000,49.150922119140624,-3.4019956588745117,-13.12523078918457,4.243371963500977
1781788072993450000,49.19944995117187,0.6430711150169373,-5.857629776000977,5.906383514404297
1781788073041977900,49.247977783203126,0.763310432434082,-4.744967460632324,-0.44027936458587646
1781788073090505700,49.29650561523437,0.37477585673332214,-3.973581075668335,-2.0267207622528076
1781788073139033300,49.34503344726563,2.376072883605957,-4.451547622680664,0.3852444589138031
1781788073187561200,49.393561279296875,4.034298896789551,-9.66640567779541,6.085845470428467
1781788073236089000,49.44208911132812,2.9925239086151123,-19.707286834716797,6.865008354187012
1781788073284617000,49.49061694335938,-0.4211367964744568,-13.386048316955566,0.7289136052131653
1781788073333144800,49.539144775390625,-0.50907301902771,-8.239385604858398,-4.359124660491943
1781788073381672700,49.58767260742187,-1.2352946996688843,-16.520048141479492,2.173281192779541
1781788073430200300,49.63620043945313,0.014955141581594944,-9.976275444030762,-0.09571290761232376
1781788073478728200,49.684728271484374,1.7665013074874878,-5.560022354125977,-2.0027925968170166
1781788073527255800,49.733255859375,1.287936806678772,-4.6764726638793945,-1.1383854150772095
1781788073575783700,49.78178369140625,0.7250252366065979,-9.121439933776855,1.2960125207901
1781788073624311600,49.8303115234375,0.6302096843719482,-10.733304977416992,2.8313074111938477
1781788073672839400,49.87883935546875,4.889134883880615,-7.732107162475586,2.2692930698394775
1781788073721367000,49.927366943359374,5.050650596618652,-12.662817001342773,1.7261223793029785
1781788073769895000,49.97589501953125,2.7559335231781006,-9.286544799804688,4.155734539031982
1781788073818422500,50.024422607421876,-2.0440688133239746,-7.39561653137207,3.5294134616851807
1781788073866950400,50.07295043945312,-3.243770122528076,-18.53420639038086,-1.0217353105545044
1781788073915478300,50.12147827148438,-4.642673969268799,-16.180864334106445,1.435693621635437
1781788073964006100,50.170006103515625,1.0390832424163818,-6.372983932495117,6.279364585876465
1781788074012533800,50.21853369140625,1.0082756280899048,-4.250550270080566,1.0043872594833374
1781788074109589500,50.315589599609375,1.9109679460525513,-4.057629108428955,-0.6556333899497986
1781788074158117400,50.36411743164062,4.584050178527832,-7.424928665161133,5.400600910186768
1781788074206645200,50.41264526367188,3.5294134616851807,-20.39791488647461,6.663413047790527
1781788074255172900,50.4611728515625,-0.10857433080673218,-12.98913860321045,0.9457631707191467
1781788074303700700,50.50970068359375,-1.1718848943710327,-8.677271842956543,-4.316053867340088
1781788074352228600,50.558228515625,-0.29341986775398254,-17.151752471923828,2.626721143722534
1781788074400756500,50.606756591796874,-0.4163511395454407,-10.884053230285645,0.6308078765869141
1781788074449284000,50.6552841796875,1.445863127708435,-6.109474182128906,-2.352144718170166
1781788074497811700,50.703811767578124,1.2705888748168945,-3.972085475921631,-1.135095238685608
1781788074546339600,50.75233959960938,0.03290131315588951,-8.358129501342773,1.1312068700790405
1781788074594867500,50.800867431640626,1.552343726158142,-10.454241752624512,3.203092098236084
1781788074643395000,50.84939501953125,4.849354267120361,-8.768199920654297,2.9066812992095947
1781788074691923000,50.8979228515625,4.085146427154541,-12.88235855102539,1.7282161712646484
1781788074740450800,50.946450927734375,2.400001049041748,-8.412266731262207,3.6053855419158936
1781788074788978700,50.99497875976562,-1.7482560873031616,-7.320242881774902,2.467897415161133
1781788074837506300,51.04350634765625,-3.310171127319336,-17.54477310180664,-1.536790370941162
1781788074886034000,51.09203393554687,-5.159523963928223,-17.261821746826172,2.039283037185669
1781788074934561800,51.14056176757813,0.8859425783157349,-6.508477687835693,7.146463871002197
1781788074983089700,51.189089599609375,0.584446907043457,-4.7488555908203125,2.006082773208618
1781788075031617500,51.23761743164062,0.26171496510505676,-4.628317356109619,-1.8601205348968506
1781788075080145200,51.28614526367188,1.9037895202636719,-3.7399818897247314,-0.052043892443180084
1781788075128673000,51.334673095703124,4.447659015655518,-6.627520561218262,5.1906304359436035
1781788075177201000,51.38320092773437,4.387838363647461,-19.445871353149414,5.203492164611816
1781788075225728500,51.431728515625,-1.2218350172042847,-14.940186500549316,1.6405789852142334
1781788075274256400,51.48025634765625,-1.2385848760604858,-9.46899700164795,-3.8796627521514893
1781788075322784300,51.5287841796875,-0.8111668825149536,-15.905092239379883,1.5068800449371338
1781788075371312000,51.57731201171875,-0.23838496208190918,-10.443175315856934,0.4914259612560272
1781788075419839700,51.62583984375,1.3471591472625732,-6.293721675872803,-2.4008984565734863
1781788075468367400,51.674367431640626,0.6071787476539612,-5.203492164611816,-2.0105693340301514
1781788075516895200,51.72289526367187,0.5665007829666138,-8.972187995910645,0.8790631890296936
1781788075565423000,51.77142309570313,1.6103696823120117,-9.757332801818848,3.308675527572632
1781788075613950700,51.81995068359375,4.687539577484131,-8.765806198120117,3.744767427444458
1781788075711006500,51.91700634765625,2.2908284664154053,-9.203393936157227,1.5547364950180054
1781788075759534000,51.9655341796875,-2.051546335220337,-6.735795974731445,2.5525436401367188
1781788075808062000,52.01406201171875,-3.5255250930786133,-19.731216430664062,-0.5700899958610535
1781788075856589800,52.06258984375,-5.615954875946045,-17.32343864440918,3.0939197540283203
1781788075905117400,52.11111743164062,1.5936198234558105,-6.994818687438965,7.867600917816162
1781788075953645300,52.15964526367188,0.6921239495277405,-4.118945121765137,1.5415760278701782
1781788076002173000,52.2081728515625,0.5617151260375977,-4.519144535064697,-2.1242282390594482
1781788076050700800,52.25670068359375,1.3286148309707642,-3.8132619857788086,-1.2290135622024536
1781788076099228400,52.305228515625,4.060619831085205,-6.321238994598389,3.7669010162353516
1781788076147756300,52.35375634765625,4.485645294189453,-18.80040740966797,6.359524250030518
1781788076196284200,52.4022841796875,0.8452646136283875,-13.771292686462402,5.353641510009766
1781788076244811800,52.450811767578124,-1.332203984260559,-10.517951011657715,-4.398905277252197
1781788076293339600,52.49933959960938,-0.6852445602416992,-15.05564022064209,1.5179468393325806
1781788076341867500,52.547867431640626,-1.444367527961731,-12.91346549987793,1.3773685693740845
1781788076390395100,52.59639501953125,0.8739784955978394,-7.227819919586182,-2.9925239086151123
1781788076438922800,52.6449228515625,1.2460623979568481,-3.9834516048431396,-2.11615252494812
1781788076487450600,52.69345068359375,-0.10199406743049622,-7.957930088043213,0.44835513830184937
1781788076535978500,52.741978515625,0.6756733059883118,-8.434700012207031,2.2429721355438232
1781788076584506000,52.790506103515625,3.656233072280884,-10.235897064208984,2.855534791946411
1781788076633034000,52.83903393554687,4.65015172958374,-10.65523910522461,3.0954151153564453
1781788076681561600,52.8875615234375,4.1730828285217285,-10.792228698730469,3.9768712520599365
1781788076730089500,52.93608935546875,-1.1575279235839844,-7.229315280914307,3.2883365154266357
1781788076778617000,52.9846171875,-1.8951154947280884,-13.83948802947998,0.18484555184841156
1781788076827145000,53.03314501953125,-6.067300796508789,-20.784656524658203,-0.8967102766036987
1781788076875672800,53.0816728515625,-1.0199406147003174,-8.964112281799316,6.8380889892578125
1781788076924200700,53.13020068359375,0.31734809279441833,-4.085146427154541,4.167698860168457
1781788076972728000,53.17872802734375,1.363310694694519,-3.7767715454101562,-1.947757601737976
1781788077021256000,53.227255859375,1.3692927360534668,-4.180261135101318,-0.7959126234054565
1781788077069783800,53.27578369140625,3.5135610103607178,-5.362913608551025,3.5015969276428223
1781788077118311400,53.3243115234375,3.9571304321289062,-15.45673656463623,6.629614353179932
1781788077166839300,53.37283935546875,1.3369896411895752,-17.95663833618164,6.206982135772705
1781788077215367000,53.421366943359374,-0.6302096843719482,-8.481060981750488,-3.712165117263794
1781788077312422700,53.518422607421876,-1.7688941955566406,-14.041083335876465,2.768495798110962
1781788077360950500,53.56695043945312,2.1409780979156494,-7.142575740814209,-2.2163519859313965
1781788077409478000,53.615477783203126,1.3513466119766235,-4.112364768981934,-2.052443504333496
1781788077458005800,53.664005859375,0.38703906536102295,-7.234101295471191,0.30209386348724365
1781788077506533400,53.71253344726563,0.6708876490592957,-9.857531547546387,1.9076778888702393
1781788077555061200,53.761061279296875,3.2344980239868164,-8.985946655273438,3.202194929122925
1781788077603588900,53.8095888671875,5.529214859008789,-10.194321632385254,3.2763724327087402
1781788077700644600,53.90664453125,-0.6693921089172363,-5.585745334625244,3.279662609100342
1781788077749172200,53.95517211914063,-1.114457130432129,-13.229019165039062,1.342971682548523
1781788077797700000,54.0037001953125,-6.675376892089844,-22.81077766418457,-1.2233306169509888
1781788077846227700,54.05222778320312,0.020039889961481094,-8.885149002075195,6.466304302215576
1781788077894755600,54.10075561523438,0.28534409403800964,-4.584648132324219,4.197908401489258
1781788077943283200,54.149283203125,0.5775675773620605,-4.350749969482422,-1.9166508913040161
1781788077991811000,54.19781103515625,1.4620146751403809,-2.3503501415252686,-1.9597218036651611
1781788078040338700,54.246338623046874,3.8422749042510986,-2.5995028018951416,2.723032236099243
1781788078088866600,54.29486645507812,3.572484254837036,-20.20020866394043,7.112366199493408
1781788078137394200,54.343394287109376,1.3130614757537842,-15.35324764251709,5.26899528503418
1781788078185922000,54.391922119140624,-1.8251254558563232,-10.426126480102539,-4.0558342933654785
1781788078234449700,54.44044970703125,-0.4139583110809326,-17.139787673950195,0.2521436810493469
1781788078282977500,54.4889775390625,-0.18125630915164948,-11.409576416015625,0.6140581369400024
1781788078331505200,54.53750512695313,0.654137909412384,-8.300103187561035,-2.60339093208313
1781788078380033000,54.586032958984376,1.0839486122131348,-4.150051593780518,-1.6959130764007568
1781788078428560600,54.634560546875,0.649053156375885,-7.489534854888916,0.89581298828125
1781788078477088500,54.68308862304688,0.3355933725833893,-8.497810363769531,2.9694929122924805
1781788078525616000,54.7316162109375,4.135694980621338,-8.645866394042969,4.639683246612549
1781788078574143700,54.78014379882813,4.007080554962158,-9.757930755615234,3.02123761177063
1781788078622671600,54.828671630859375,3.7399818897247314,-13.331910133361816,2.688934564590454
1781788078671199200,54.87719921875,-0.035892341285943985,-6.99332332611084,3.197409152984619
1781788078719727000,54.92572705078125,-0.8709874153137207,-12.230315208435059,1.0250253677368164
1781788078816782300,55.0227822265625,-1.2266206741333008,-10.281061172485352,6.320042610168457
1781788078865310000,55.07131005859375,0.46749773621559143,-5.304289817810059,4.871188640594482
1781788078913837800,55.119837890625,0.5805585980415344,-4.530211448669434,-1.1240284442901611
1781788078962365400,55.168365478515625,0.6613163352012634,-3.9834516048431396,-1.7338991165161133
1781788079010893300,55.21689331054687,2.6111676692962646,-4.36391019821167,1.3465609550476074
1781788079059421000,55.2654208984375,3.8697924613952637,-9.492327690124512,6.50189733505249
1781788079107948800,55.31394873046875,3.3003005981445312,-20.239391326904297,6.174379825592041
1781788079156476400,55.36247631835938,-0.6475576162338257,-12.032608032226562,0.5129613280296326
1781788079205004300,55.41100439453125,-0.9373882412910461,-7.211369037628174,-2.12542462348938
1781788079253532200,55.4595322265625,-1.5640087127685547,-19.981863021850586,2.316850423812866
1781788079302059800,55.50805981445313,1.6758731603622437,-8.281558990478516,0.16360925137996674
1781788079350587400,55.55658740234375,0.13579268753528595,-7.001399040222168,-2.6350958347320557
1781788079399115300,55.605115234375,0.32213374972343445,-6.254240036010742,-1.4892330169677734
1781788079447643000,55.653642822265624,0.3885345757007599,-8.00638484954834,1.0217353105545044
1781788079496170500,55.70217041015625,0.828514814376831,-7.886743545532227,1.8975083827972412
1781788079544698000,55.750697998046874,4.3172502517700195,-8.432905197143555,3.509373426437378
1781788079593226000,55.79922607421875,5.392824172973633,-13.188640594482422,3.3490543365478516
1781788079641753600,55.847753662109376,2.6877379417419434,-8.558229446411133,3.057429075241089
1781788079690281500,55.896281494140624,-0.844068169593811,-7.239784240722656,2.940180778503418
1781788079738809000,55.94480908203125,-3.9065821170806885,-19.901704788208008,-0.6134598851203918
1781788079787337000,55.9933369140625,-6.255735874176025,-18.19173240661621,2.5262224674224854
1781788079835864600,56.04186450195313,1.3510475158691406,-6.93529748916626,5.626423358917236
1781788079884392200,56.09039208984375,0.4866403043270111,-4.536193370819092,0.6143572330474854
1781788079932920000,56.13892016601562,0.7241279482841492,-2.909672260284424,-0.8862416744232178
1781788079981447700,56.18744775390625,2.2483558654785156,-2.633899450302124,0.28564319014549255
1781788080029975600,56.2359755859375,4.708476543426514,-5.715855121612549,5.057828903198242
1781788080078503200,56.28450317382813,1.602592945098877,-20.34048843383789,8.109275817871094
1781788080127030800,56.33303076171875,2.2845473289489746,-12.401999473571777,5.61027193069458
1781788080175558700,56.38155859375,-1.2595219612121582,-10.393524169921875,-3.8626139163970947
1781788080224086300,56.430086181640625,1.3908281326293945,-13.1694974899292,-1.3007981777191162
1781788080272614000,56.47861376953125,-2.9072794914245605,-15.274882316589355,4.280759811401367
1781788080321141800,56.52714184570313,1.9746768474578857,-8.70209789276123,-0.9723833203315735
1781788080369669400,56.57566943359375,0.19561325013637543,-5.831906795501709,-1.7521443367004395
1781788080466724900,56.672724853515625,0.03170489892363548,-8.373085021972656,1.6046867370605469
1781788080515252500,56.72125244140625,1.4587244987487793,-8.385048866271973,3.0897321701049805
1781788080563780000,56.769780029296875,4.178466320037842,-8.854042053222656,1.801795482635498
1781788080612308000,56.81830786132812,5.117350101470947,-15.389738082885742,3.5997025966644287
1781788080660835600,56.86683569335938,-0.5222335457801819,-9.699904441833496,6.771687984466553
1781788080709363200,56.91536328125,0.11306086927652359,-10.607980728149414,0.44356951117515564
1781788080757891000,56.96389111328125,-4.9190449714660645,-17.673986434936523,-1.316650629043579
1781788080806418700,57.012418701171875,-4.014258861541748,-11.30937671661377,2.9614171981811523
1781788080854946300,57.0609462890625,0.19531415402889252,-6.772585391998291,3.5431721210479736
1781788080903474200,57.10947412109375,1.1766705513000488,-4.001696586608887,0.035892341285943985
1781788080952001800,57.15800170898437,0.8871390223503113,-4.13060998916626,0.04007977992296219
1781788081000529400,57.206529296875,2.9638099670410156,-3.7058839797973633,0.8368897438049316
1781788081049057300,57.255057373046874,4.349254131317139,-5.557629585266113,5.112564563751221
1781788081097585000,57.3035849609375,1.3471591472625732,-21.786649703979492,8.562117576599121
1781788081146112500,57.352112548828124,2.092224359512329,-12.403794288635254,7.362117290496826
1781788081194640400,57.40064038085937,0.4417748749256134,-9.383752822875977,-2.927020311355591
1781788081243168000,57.44916796875,-0.3355933725833893,-8.46341323852539,-3.1283164024353027
1781788081291695600,57.49769555664062,-1.9722840785980225,-17.782859802246094,3.9978084564208984
1781788081340223500,57.546223388671876,1.6256239414215088,-8.309675216674805,-0.27038896083831787
1781788081388751000,57.594751220703124,0.973878800868988,-5.3216376304626465,-1.4422738552093506
1781788081437278700,57.64327880859375,0.87248295545578,-6.907480716705322,-0.22791635990142822
1781788081485806600,57.691806640625,0.8383852243423462,-8.166703224182129,1.8320047855377197
1781788081534334200,57.74033422851563,1.5568302869796753,-9.490532875061035,3.776472330093384
1781788081582861800,57.78886181640625,4.014258861541748,-8.878867149353027,3.3777682781219482
1781788081631389700,57.8373896484375,4.383052825927734,-14.402997970581055,0.8105686902999878
1781788081679917000,57.8859169921875,4.216153621673584,-8.064410209655762,3.9472601413726807
1781788081728444700,57.93444458007812,-1.5409778356552124,-5.403591632843018,3.939483404159546
1781788081776972500,57.98297265625,-2.0141584873199463,-14.416756629943848,0.992124080657959
1781788081825500200,58.031500244140624,-5.851946830749512,-20.327627182006836,-0.9469595551490784
1781788081874027800,58.08002783203125,0.1339980661869049,-8.725727081298828,6.521338939666748
1781788081971083300,58.17708325195313,0.7722834944725037,-4.838287353515625,-1.607378602027893
1781788082019611100,58.225611083984376,1.3103694915771484,-3.586242914199829,-0.9385846853256226
1781788082068138800,58.274138671875,2.881556749343872,-3.5045878887176514,2.234896421432495
1781788082116666400,58.322666259765626,4.099802494049072,-13.622339248657227,6.888936519622803
1781788082165194000,58.37119409179687,3.3556346893310547,-18.486948013305664,6.9807610511779785
1781788082213721900,58.41972192382813,-0.6885347366333008,-12.353545188903809,0.03439682722091675
1781788082262249500,58.46824951171875,-0.6230311989784241,-11.103594779968262,-2.486740827560425
1781788082310777000,58.51677709960938,-2.083550214767456,-16.507186889648438,2.1933209896087646
1781788082359304700,58.5653046875,1.7267206907272339,-8.778668403625488,-0.532103955745697
1781788082407832300,58.61383227539063,1.0091729164123535,-5.285745143890381,-1.3800604343414307
1781788082456360000,58.66235986328125,0.5608177781105042,-5.776872158050537,-0.40259242057800293
1781788082504887800,58.7108876953125,0.8422735929489136,-8.253443717956543,2.1517457962036133
1781788082553415400,58.75941552734375,1.6265212297439575,-9.757930755615234,3.9999022483825684
1781788082601943000,58.80794311523437,3.699902057647705,-8.653942108154297,2.3751754760742188
1781788082650470700,58.856470703125,4.946562767028809,-15.013466835021973,0.7292127013206482
1781788082698998500,58.90499853515625,1.6582261323928833,-9.198010444641113,3.9667017459869385
1781788082747526100,58.95352612304688,-1.0369895696640015,-5.890531063079834,3.0714869499206543
1781788082796053800,59.0020537109375,-2.429612398147583,-15.929917335510254,-0.8102695941925049
1781788082844581400,59.05058129882813,-6.221338748931885,-18.38495445251465,0.6140581369400024
1781788082893109200,59.099109130859375,0.5679962635040283,-8.021638870239258,6.5165534019470215
1781788082941636600,59.14763671875,0.16121642291545868,-5.419145107269287,2.7508487701416016
1781788082990164500,59.19616455078125,0.8279166221618652,-3.7561333179473877,-1.3830515146255493
1781788083038692000,59.24469213867187,1.9519450664520264,-2.446362018585205,-0.6245267391204834
1781788083087219700,59.2932197265625,4.232006072998047,-5.062315464019775,4.125226020812988
1781788083135747300,59.34174731445312,2.872882604598999,-18.633808135986328,8.1493558883667
1781788083184275200,59.39027514648438,2.7589244842529297,-15.376876831054688,6.798906326293945
1781788083232803000,59.438802978515625,-1.4069796800613403,-11.053943634033203,-2.459223508834839
1781788083281330400,59.48733032226563,0.17946170270442963,-8.237590789794922,-3.284747362136841
1781788083329858000,59.535858154296875,-1.7931214570999146,-17.098512649536133,4.5445685386657715
1781788083378386000,59.58438598632812,0.5024927258491516,-9.202198028564453,-0.20757736265659332
1781788083426913500,59.63291357421875,1.4946168661117554,-5.079065322875977,-2.5995028018951416
1781788083475441200,59.68144116210937,1.064207911491394,-6.028417587280273,-0.04486542567610741
1781788083572496400,59.77849633789062,2.154437780380249,-9.137591361999512,3.9681973457336426
1781788083621024000,59.82702392578125,4.261018753051758,-8.224729537963867,3.2916266918182373
1781788083669551600,59.87555151367187,3.111267566680908,-15.766308784484863,2.082653045654297
1781788083718079200,59.92407934570313,0.9373882412910461,-8.708976745605469,3.145066261291504
1781788083766607000,59.972607177734375,0.37028929591178894,-7.8765740394592285,2.612962245941162
1781788083815134700,60.021134765625,-4.313362121582031,-18.51715660095215,-0.8551349639892578
1781788083863662300,60.069662353515625,-5.214858055114746,-14.307284355163574,1.8266209363937378
1781788083912190000,60.11818994140625,1.1733803749084473,-6.416653156280518,4.638187408447266
1781788083960717600,60.166717529296875,-0.16271193325519562,-4.380660057067871,1.5296118259429932
1781788084009245400,60.21524536132812,0.7447660565376282,-3.2967114448547363,-0.30957141518592834
1781788084057773000,60.26377294921875,3.2823543548583984,-3.200101137161255,1.2843475341796875
1781788084106300700,60.31230078125,4.724328994750977,-7.656434059143066,7.17069149017334
1781788084154828300,60.36082836914063,1.2547364234924316,-22.69352912902832,7.707880020141602
1781788084203356000,60.40935595703125,0.8455637097358704,-13.657633781433105,1.0151549577713013
1781788084251883500,60.45788354492188,-0.8934201598167419,-7.300501823425293,-3.430410385131836
1781788084300411100,60.5064111328125,-1.3648061752319336,-18.298513412475586,1.6600207090377808
1781788084348939000,60.55493896484375,0.5368895530700684,-8.545666694641113,0.6317051649093628
1781788084397466600,60.603466552734375,1.5020943880081177,-5.172385215759277,-1.4868401288986206
1781788084445994200,60.651994140625,0.9493523836135864,-5.023132801055908,-0.7025925517082214
1781788084494521900,60.70052197265625,0.3086741268634796,-8.74636459350586,2.0880367755889893
1781788084543049500,60.74904956054687,1.6277176141738892,-9.997811317443848,3.61017107963562
1781788084591577000,60.7975771484375,2.801098108291626,-8.630014419555664,2.7915267944335938
1781788084640104700,60.84610473632812,5.06082010269165,-13.645370483398438,0.9891330599784851
1781788084688632300,60.89463232421875,2.823530673980713,-10.065707206726074,3.5988051891326904
1781788084737160000,60.94315991210937,-0.6795616149902344,-5.935695648193359,4.252045631408691
1781788084785687800,60.99168774414063,-2.0736799240112305,-16.125829696655273,0.33798620104789734
1781788084834215400,61.04021533203125,-5.877370834350586,-18.296419143676758,-0.2192423790693283
1781788084882742800,61.08874267578125,0.15074782073497772,-8.064410209655762,6.477370738983154
1781788084931270400,61.1372705078125,-0.2949153780937195,-4.540679931640625,3.2368907928466797
1781788084979798000,61.18579809570313,0.44027936458587646,-4.1659040451049805,-2.0721843242645264
1781788085076853800,61.28285375976562,3.5503506660461426,-4.905884742736816,3.6951162815093994
1781788085125381000,61.331381103515625,3.475275754928589,-18.658632278442383,7.6609206199646
1781788085173908700,61.37990869140625,1.6998014450073242,-17.363218307495117,6.059225082397461
1781788085222436400,61.428436279296875,-0.23300109803676605,-9.077771186828613,-2.5022943019866943
1781788085270964200,61.47696411132812,-0.4657030999660492,-12.005688667297363,-1.3917254209518433
1781788085319491800,61.52549194335938,-1.4324034452438354,-14.243576049804688,4.000201225280762
1781788085368019500,61.57401953125,1.2451651096343994,-7.268796920776367,-0.9649057388305664
1781788085416547000,61.62254711914063,1.184447169303894,-4.541577339172363,-1.230808138847351
1781788085465074400,61.67107446289062,0.8081758618354797,-6.830013275146484,0.672383189201355
1781788085513602300,61.71960229492188,0.37507495284080505,-9.870991706848145,2.6312077045440674
1781788085562130000,61.7681298828125,1.8816559314727783,-9.525228500366211,3.3346974849700928
1781788085610657500,61.81665747070313,5.038686275482178,-8.148458480834961,1.088136076927185
1781788085659185200,61.86518505859375,3.8500516414642334,-16.281661987304688,2.9566314220428467
1781788085707712800,61.91371264648438,-0.24586252868175507,-6.357131481170654,4.431507587432861
1781788085756240400,61.962240478515625,-0.8464609980583191,-10.67109203338623,1.9405791759490967
1781788085804767700,62.01076782226563,-6.128018856048584,-20.54656982421875,-1.1213364601135254
1781788085853295400,62.05929541015625,-2.775674343109131,-10.360921859741211,3.7256247997283936
1781788085901823200,62.1078232421875,1.100698471069336,-5.986842155456543,4.960321426391602
1781788085950350800,62.156350830078125,0.18005990982055664,-4.728217601776123,-0.6092724800109863
1781788085998878500,62.20487841796875,1.363310694694519,-2.6225335597991943,-1.0408778190612793
1781788086047406000,62.253406005859375,3.4322049617767334,-3.478266716003418,1.8251254558563232
1781788086095933700,62.30193359375,3.497708559036255,-13.207782745361328,7.997411251068115
1781788086144461300,62.35046142578125,3.2063822746276855,-18.845870971679688,8.52472972869873
1781788086192989000,62.39898901367187,-0.0032901312224566936,-11.781660079956055,0.18484555184841156
1781788086241516800,62.44751684570313,-1.3654043674468994,-9.277571678161621,-4.514657974243164
1781788086290044400,62.49604443359375,-1.2738789319992065,-15.248860359191895,3.806980848312378
1781788086338572000,62.54457202148438,0.2267199456691742,-9.067900657653809,0.2551347017288208
1781788086387099600,62.593099609375,0.9260223507881165,-6.243771553039551,-2.3081765174865723
1781788086435627000,62.641626953125,1.407876968383789,-5.663811206817627,-0.763310432434082
1781788086484154600,62.69015454101562,0.7651050686836243,-9.087940216064453,2.41375994682312
1781788086532682200,62.73868212890625,-0.08703892678022385,-9.536295890808105,3.405884027481079
1781788086581209900,62.7872099609375,3.8973097801208496,-8.440083503723145,3.366701364517212
1781788086629737500,62.83573754882813,3.7016966342926025,-13.785051345825195,2.6566312313079834
1781788086678265000,62.88426513671875,1.5807584524154663,-10.115957260131836,5.191826820373535
1781788086775320300,62.9813203125,-3.334099292755127,-15.605989456176758,-1.3079767227172852
1781788086823848000,63.02984790039063,-6.1226348876953125,-15.55663776397705,0.8566305041313171
1781788086872375600,63.07837548828125,0.3900300860404968,-7.061817646026611,6.227919101715088
1781788086920903200,63.12690307617188,0.06370890140533447,-4.84397029876709,2.1592233180999756
1781788086969430800,63.1754306640625,0.9149555563926697,-4.543072700500488,-0.9756734371185303
1781788087017958400,63.22395849609375,2.353041887283325,-3.1818559169769287,-0.5808576941490173
1781788087066486000,63.272486083984376,4.479363918304443,-5.233103275299072,5.575276851654053
1781788087115013600,63.321013671875,2.557030200958252,-22.8792724609375,8.827122688293457
1781788087163541200,63.369541259765626,1.5068800449371338,-15.217753410339355,4.303192615509033
