time,seconds_elapsed,z,y,x
1781788023950898200,0.156898193359375,0,0,0
1781788023999426600,0.205426513671875,-0.0287017822265625,-0.06083965301513672,0.0014091730117797852
1781788024047955000,0.253954833984375,-0.004878044128417969,-0.07259225845336914,-0.08605676889419556
1781788024096483300,0.3024833984375,-0.17898178100585938,0.014317512512207031,0.007001638412475586
1781788024145011700,0.35101171875,-0.0743856430053711,-0.0789027214050293,0.020127177238464355
1781788024193540000,0.3995400390625,0.03749847412109375,-0.18825721740722656,0.1957651674747467
1781788024242068700,0.44806884765625,-0.08907794952392578,-0.17911577224731445,0.6239120364189148
1781788024290596900,0.496596923828125,-0.48485565185546875,0.003006458282470703,0.5937801003456116
1781788024339125500,0.54512548828125,-0.8993782997131348,0.15346240997314453,0.5648102164268494
1781788024387654000,0.59365380859375,0.09090805053710938,1.0062296390533447,-1.2963569164276123
1781788024436182300,0.642182373046875,0.5033416748046875,0.8658440113067627,-1.853292465209961
1781788024484710700,0.690710693359375,0.981663703918457,-0.40949010848999023,0.008423984050750732
1781788024533239000,0.739239013671875,0.41983890533447266,0.10692954063415527,-0.2815719246864319
1781788024581767400,0.787767333984375,0.14899253845214844,-0.08812785148620605,-0.008515536785125732
1781788024630295800,0.8362958984375,-0.019766807556152344,-0.13631796836853027,-0.2289949655532837
1781788024678824200,0.88482421875,-0.21567153930664062,-0.12229681015014648,-0.055608492344617844
1781788024727352600,0.9333525390625,-0.6494350433349609,0.2180802822113037,-0.10239522159099579
1781788024775881000,0.981880859375,-0.36613941192626953,0.3071706295013428,0.3641447126865387
1781788024824409300,1.030409423828125,0.25802040100097656,-0.12281489372253418,0.0671314001083374
1781788024872937700,1.078937744140625,0.5066242218017578,-0.5041120052337646,-0.11749377846717834
1781788024921466000,1.127466064453125,0.01592731475830078,-0.3259882926940918,-0.4450932741165161
1781788024969994500,1.175994384765625,0.025216102600097656,-0.11998867988586426,-0.4829685091972351
1781788025018523000,1.22452294921875,0.21140575408935547,-0.17206430435180664,-0.16329476237297058
1781788025067051300,1.27305126953125,-0.11154460906982422,-0.05613398551940918,-0.1696828007698059
1781788025115579600,1.32157958984375,-0.06402111053466797,-0.17403578758239746,0.04755353927612305
1781788025164108000,1.37010791015625,-0.09098243713378906,-0.18844199180603027,0.23081856966018677
1781788025212636400,1.418636474609375,-0.13197040557861328,0.08175921440124512,0.19031387567520142
1781788025261164800,1.467164794921875,0.32077598571777344,0.003545999526977539,0.248660147190094
1781788025309693200,1.515693115234375,0.2625875473022461,0.1504809856414795,0.19478052854537964
1781788025358221600,1.5642216796875,0.16766357421875,-0.17964720726013184,0.06855899095535278
1781788025406750000,1.61275,0.18070507049560547,-0.42180871963500977,-0.08971506357192993
1781788025455278300,1.6612783203125,-0.2810249328613281,-0.17042112350463867,-0.1290702521800995
1781788025503806700,1.709806640625,-0.7809839248657227,0.5351951122283936,0.36857447028160095
1781788025552335000,1.758335205078125,-0.34204769134521484,-1.1558284759521484,1.5659950971603394
1781788025600863500,1.806863525390625,0.44055747985839844,0.7003602981567383,-0.24292999505996704
1781788025649391900,1.855391845703125,-0.053610801696777344,-0.24379801750183105,0.6463731527328491
1781788025697920300,1.903920166015625,-0.392120361328125,-1.0078413486480713,1.1641035079956055
1781788025746448600,1.95244873046875,-1.4896135330200195,-1.6217751502990723,0.07396173477172852
1781788025794977000,2.00097705078125,-0.6812582015991211,-0.5995795726776123,-1.7310776710510254
1781788025843505400,2.04950537109375,0.37513303756713867,-2.489346981048584,-0.521575927734375
1781788025892033800,2.09803369140625,-0.34237146377563477,-0.13712310791015625,-0.8295421600341797
1781788025940562200,2.146562255859375,1.2784595489501953,1.0200287103652954,0.16953086853027344
1781788025989090600,2.195090576171875,2.6494088172912598,1.8048174381256104,0.06965780258178711
1781788026037619000,2.243618896484375,2.6522092819213867,1.4247139692306519,0.09666919708251953
1781788026086147300,2.292147216796875,1.4238929748535156,1.3045222759246826,-0.9805259704589844
1781788026134675700,2.34067578125,1.2689876556396484,1.8265316486358643,-1.612771987915039
1781788026183203800,2.389203857421875,2.303050994873047,1.8406249284744263,-2.03725004196167
1781788026231732500,2.437732421875,2.285689353942871,1.665233850479126,-1.000760555267334
1781788026280260900,2.4862607421875,3.05672550201416,1.4575215578079224,-0.18547630310058594
1781788026328789000,2.5347890625,2.1009435653686523,0.43333905935287476,1.1526405811309814
1781788026377317600,2.583317626953125,-0.08573150634765625,-1.0933785438537598,2.189683675765991
1781788026425845800,2.631845703125,-1.2327442169189453,-2.5278804302215576,1.9251973628997803
1781788026474374100,2.6803740234375,-0.22426223754882812,-0.8933272361755371,0.6818287372589111
1781788026522902500,2.728902587890625,-1.0648221969604492,-1.1992850303649902,0.32479190826416016
1781788026571431000,2.777430908203125,-0.7788572311401367,-1.0186753273010254,0.581214189529419
1781788026619959300,2.825959228515625,-0.9350461959838867,-0.7414214611053467,0.8473789691925049
1781788026668487700,2.87448779296875,-0.8404436111450195,-0.3003051280975342,0.46359825134277344
1781788026717016000,2.92301611328125,-0.33521080017089844,-0.14200663566589355,0.3977220058441162
1781788026765544400,2.97154443359375,-0.0074481964111328125,-0.021022319793701172,0.3490135669708252
1781788026814072800,3.02007275390625,0.10177803039550781,-0.019451618194580078,0.25520873069763184
1781788026862601200,3.068601318359375,0.2546072006225586,-0.16368603706359863,0.2602527141571045
1781788026911129600,3.117129638671875,0.2635002136230469,-0.27692675590515137,0.28614306449890137
1781788026959657700,3.16565771484375,0.40349483489990234,-0.3751060962677002,0.0054473876953125
1781788027056714500,3.262714599609375,-0.4383401870727539,0.07155394554138184,-0.05357229709625244
1781788027105243000,3.311242919921875,-0.13038063049316406,-0.008707284927368164,0.15336954593658447
1781788027153771300,3.359771240234375,0.022830963134765625,-0.026702880859375,0.013999223709106445
1781788027202299600,3.408299560546875,-0.10060787200927734,-0.03258204460144043,0.04612922668457031
1781788027250828000,3.456828125,0.1493082046508789,-0.07592296600341797,-0.0022711753845214844
1781788027299356200,3.505356201171875,-0.06908702850341797,0.052236080169677734,0.013291120529174805
1781788027347884800,3.553884765625,0.11369991302490234,-0.01674485206604004,-0.026725053787231445
1781788027396413000,3.602412841796875,0.0977487564086914,-0.008671283721923828,-0.020822763442993164
1781788027444941300,3.65094140625,-0.10092544555664062,0.018047571182250977,-0.0014309883117675781
1781788027493469700,3.6994697265625,0.006319999694824219,0.0035288333892822266,0.020485877990722656
1781788027541998000,3.747998046875,-0.07752227783203125,0.05555248260498047,0.04380607604980469
1781788027590526500,3.7965263671875,0.08975601196289062,0.009855985641479492,0.08529865741729736
1781788027639054800,3.845054931640625,0.11519432067871094,-0.031416893005371094,0.02575385570526123
1781788027687583200,3.893583251953125,0.03501129150390625,-0.014215469360351562,0.05795121192932129
1781788027736111400,3.942111328125,0.05947589874267578,-0.04729318618774414,0.0707392692565918
1781788027784639700,3.9906396484375,-0.022104263305664062,-0.06006145477294922,0.04145646095275879
1781788027833168100,4.039168212890625,-0.027052879333496094,-0.027287006378173828,-0.034479379653930664
1781788027881696500,4.087696533203125,-0.013162612915039062,-0.041019439697265625,-0.04410743713378906
1781788027930225000,4.136224853515625,-0.06495952606201172,-0.0019061565399169922,-0.09643077850341797
1781788027978753000,4.1847529296875,0.05710887908935547,-0.04900169372558594,-0.11988842487335205
1781788028027281400,4.233281494140625,-0.044447898864746094,0.010073184967041016,-0.04656720161437988
1781788028075809800,4.281809814453125,0.08413219451904297,0.02167487144470215,0.00262606143951416
1781788028124338200,4.330338134765625,0.031635284423828125,-0.0023157596588134766,-0.039296865463256836
1781788028172866600,4.378866455078125,0.06753349304199219,-0.0124664306640625,0.026504874229431152
1781788028221395000,4.42739501953125,0.09140872955322266,0.018741130828857422,-0.015071988105773926
1781788028269923300,4.47592333984375,0.052031517028808594,-0.031499385833740234,-0.002205491065979004
1781788028318451500,4.524451416015625,0.13734054565429688,-0.06893134117126465,-0.16487634181976318
1781788028366979800,4.572979736328125,0.23612499237060547,-0.2567477226257324,-0.21656346321105957
1781788028415508200,4.62150830078125,0.126922607421875,-0.20076584815979004,-0.4625892639160156
1781788028464036600,4.67003662109375,-0.021399497985839844,-0.14685916900634766,-0.4429893493652344
1781788028512565000,4.71856494140625,-0.27063941955566406,-0.05137467384338379,-0.11931705474853516
1781788028561093000,4.767093017578125,-0.28870487213134766,0.0893399715423584,0.34887051582336426
1781788028609621500,4.81562158203125,-0.045070648193359375,0.07610130310058594,0.25312185287475586
1781788028658150000,4.86414990234375,0.0014476776123046875,0.059319257736206055,0.16374683380126953
1781788028706678300,4.91267822265625,0.009819984436035156,0.05299186706542969,0.2288365364074707
1781788028755206700,4.96120654296875,-0.02599620819091797,0.08926701545715332,0.10180044174194336
1781788028803734800,5.00973486328125,-0.07495594024658203,-0.0040972232818603516,0.07745361328125
1781788028852263200,5.05826318359375,-0.05280494689941406,0.044692277908325195,-0.016261577606201172
1781788028900791600,5.10679150390625,-0.10050678253173828,0.0529019832611084,0.01947164535522461
1781788028949320000,5.15531982421875,-0.06197834014892578,0.07140445709228516,0.06598782539367676
1781788028997848300,5.203848388671875,0.10879135131835938,0.06023979187011719,0.09225273132324219
1781788029046376400,5.25237646484375,0.15360260009765625,0.0325770378112793,0.127777099609375
1781788029094904800,5.30090478515625,0.06787490844726562,0.08160614967346191,0.07515335083007812
1781788029143433200,5.34943310546875,0.03845405578613281,0.021937847137451172,0.18434834480285645
1781788029191961600,5.397961669921875,-0.04182147979736328,0.035301923751831055,0.11359882354736328
1781788029240490000,5.446489990234375,-0.07669544219970703,-0.010891199111938477,0.07016348838806152
1781788029289018000,5.49501806640625,-0.04125499725341797,-0.05695080757141113,0.03018808364868164
1781788029337546500,5.54354638671875,-0.04713916778564453,-0.012282133102416992,-0.016220569610595703
1781788029386075000,5.592074951171875,0.04689216613769531,-0.018996238708496094,0.02778768539428711
1781788029434603000,5.64060302734375,0.0711526870727539,-0.032000064849853516,0.007768869400024414
1781788029483131400,5.68913134765625,-0.10042476654052734,0.06691884994506836,0.06691646575927734
1781788029531659800,5.73765966796875,-0.054775238037109375,0.03210186958312988,0.11312389373779297
1781788029580188200,5.786188232421875,0.0705881118774414,-0.05043482780456543,0.0874173641204834
1781788029628716500,5.834716552734375,-0.06473731994628906,-0.006214141845703125,0.00928807258605957
1781788029677245000,5.883244873046875,-0.12637042999267578,-0.14136409759521484,0.6089129447937012
1781788029725773000,5.93177294921875,-0.8959579467773438,-0.953458309173584,1.1828837394714355
1781788029774301400,5.980301513671875,-0.5106592178344727,-0.5629873275756836,0.2980823516845703
1781788029822829600,6.02882958984375,1.0361709594726562,-2.189168930053711,-1.6276235580444336
1781788029871358000,6.07735791015625,3.1175990104675293,-0.8618509769439697,-3.9336042404174805
1781788029919886300,6.12588623046875,0.544501781463623,2.0606906414031982,-3.689298152923584
1781788029968414700,6.174414794921875,-1.6244869232177734,0.5500330924987793,0.004131793975830078
1781788030016943000,6.222943115234375,-0.10951948165893555,-0.1580815315246582,1.527693748474121
1781788030065471500,6.271471435546875,0.5038466453552246,-0.14991116523742676,0.46060752868652344
1781788030113999600,6.31999951171875,0.3290524482727051,-0.5417742729187012,0.34795045852661133
1781788030162528000,6.368528076171875,0.0864095687866211,-0.05283069610595703,-0.3748941421508789
1781788030211056400,6.417056396484375,0.7553391456604004,0.6995881795883179,-0.6654500961303711
1781788030259584500,6.46558447265625,2.100944995880127,2.41573429107666,-1.0448107719421387
1781788030308113000,6.51411279296875,2.296598434448242,1.6494909524917603,-0.5339851379394531
1781788030356641300,6.562641357421875,1.6345462799072266,1.2757817506790161,0.20084762573242188
1781788030405169400,6.61116943359375,1.3394794464111328,0.8490035533905029,0.196746826171875
1781788030453697800,6.65969775390625,1.1822409629821777,0.2537466883659363,0.25490283966064453
1781788030502226200,6.70822607421875,1.0283045768737793,-0.8349233865737915,0.039618492126464844
1781788030550754600,6.756754638671875,1.1363070011138916,-0.37962210178375244,-0.21819782257080078
1781788030599283000,6.805282958984375,1.4384686946868896,-0.5820394158363342,-0.023161888122558594
1781788030647811000,6.85381103515625,0.32230639457702637,-0.4414646625518799,-0.1472311019897461
1781788030696339500,6.90233935546875,0.17869806289672852,-0.018224120140075684,0.7512331008911133
1781788030744867800,6.950867919921875,-0.16997551918029785,0.00218045711517334,-0.1991424560546875
1781788030793396000,6.99939599609375,-0.8269572257995605,-0.5692863464355469,0.43155479431152344
1781788030841924400,7.04792431640625,-0.4693777561187744,-1.1765401363372803,-0.23809432983398438
1781788030890452700,7.09645263671875,0.07464766502380371,-1.0866819620132446,-0.5924081802368164
1781788030938980900,7.14498095703125,-0.8117129802703857,0.01855015754699707,-0.346038818359375
1781788030987509200,7.19350927734375,-0.7075674533843994,-0.5510022640228271,-0.6270227432250977
1781788031036037600,7.24203759765625,0.9869599342346191,-0.06494474411010742,-0.7404232025146484
1781788031084565800,7.290565673828125,-0.8366650342941284,-0.26528334617614746,-0.11871337890625
1781788031133094100,7.33909423828125,-0.820411205291748,-0.038756370544433594,-0.29009342193603516
1781788031181622500,7.38762255859375,-0.4962003231048584,-0.04531693458557129,-0.046120643615722656
1781788031230150700,7.436150634765625,-0.20881199836730957,0.17817354202270508,-0.1437511444091797
1781788031278679000,7.484678955078125,-0.19373655319213867,0.3235952854156494,0.08423614501953125
1781788031327207400,7.53320751953125,-0.12648439407348633,0.2409670352935791,0.12170791625976562
1781788031375735600,7.581735595703125,-0.16880488395690918,0.0733034610748291,0.030936241149902344
1781788031424264000,7.630263916015625,0.1347332000732422,-0.13092041015625,-0.014813423156738281
1781788031472792300,7.678792236328125,0.055149078369140625,-0.09083938598632812,0.11804485321044922
1781788031521320400,7.727320556640625,-0.2051243782043457,0.13444972038269043,0.10546588897705078
1781788031569848800,7.775848876953125,-0.04112124443054199,0.3155632019042969,-0.3464393615722656
1781788031618377200,7.824377197265625,-0.10838890075683594,0.17666292190551758,-0.09963703155517578
1781788031666905300,7.8729052734375,-0.0023462772369384766,0.2251875400543213,-0.2206716537475586
1781788031715433700,7.921433837890625,0.36867666244506836,-0.2719104290008545,0.0054779052734375
1781788031763962000,7.969962158203125,0.33968472480773926,-0.12548542022705078,-0.18057823181152344
1781788031812490200,8.018490234375,-0.07432293891906738,0.21060800552368164,0.053043365478515625
1781788031861018600,8.0670185546875,-0.25545287132263184,0.011319637298583984,0.28588104248046875
1781788031909547000,8.115547119140626,-0.3814423084259033,-0.1762237548828125,-0.017752647399902344
1781788031958075100,8.1640751953125,-0.3395876884460449,-1.1156972646713257,-0.12095355987548828
1781788032006603500,8.212603515625,0.39609718322753906,-0.6844171285629272,0.3290061950683594
1781788032055132000,8.2611318359375,0.019473552703857422,0.20072245597839355,0.19783687591552734
1781788032103660000,8.309659912109375,-0.8058443069458008,0.3815608024597168,0.47641754150390625
1781788032152188400,8.3581884765625,-0.003669261932373047,0.26915442943573,0.3044300079345703
1781788032200716800,8.406716796875,-0.22410798072814941,0.2882472276687622,0.4226570129394531
1781788032249245000,8.455244873046874,-0.2907710075378418,0.4436901807785034,0.43398284912109375
1781788032297773300,8.503773193359375,-0.07929658889770508,-0.000847935676574707,0.1666555404663086
1781788032346301700,8.5523017578125,0.16566181182861328,-1.8268201351165771,0.18297290802001953
1781788032394829800,8.600829833984376,0.5479865074157715,0.8544409275054932,0.0860595703125
1781788032443358200,8.649358154296875,-0.5113089084625244,0.36772871017456055,-0.19516658782958984
1781788032491886300,8.69788623046875,0.21531248092651367,0.2011791467666626,0.04675579071044922
1781788032540414700,8.746414794921876,-0.24727869033813477,0.17883777618408203,0.2395038604736328
1781788032588943000,8.794943115234375,0.20734786987304688,-0.15982210636138916,0.1481485366821289
1781788032637471200,8.84347119140625,-0.021623611450195312,0.03677511215209961,-0.14266014099121094
1781788032685999600,8.89199951171875,0.11410760879516602,0.38402867317199707,0.0024023056030273438
1781788032734527700,8.94052783203125,0.2115616798400879,-0.01804494857788086,0.01619434356689453
1781788032783056100,8.98905615234375,-0.026527881622314453,-0.13485944271087646,0.14748668670654297
1781788032831584300,9.037584228515625,-0.2578716278076172,-0.05572104454040527,-0.029588699340820312
1781788032880112600,9.086112548828124,0.007554531097412109,-0.012811660766601562,-0.0008440017700195312
1781788032928641000,9.13464111328125,-0.2569594383239746,-0.042743563652038574,-0.18129825592041016
1781788032977169200,9.183169189453125,0.15603351593017578,0.024931788444519043,0.2844705581665039
1781788033025697500,9.231697509765626,0.016270160675048828,0.002403736114501953,0.36419010162353516
1781788033074226000,9.280225830078125,0.0745096206665039,-0.08276116847991943,0.5070781707763672
1781788033122754000,9.328754150390624,-0.23139524459838867,-0.009264588356018066,-0.019224166870117188
1781788033171282400,9.377282470703125,0.002247333526611328,-0.11192965507507324,-0.10023975372314453
1781788033219810600,9.425810546875,-0.1963825225830078,-0.05297732353210449,-0.11327838897705078
1781788033268339000,9.4743388671875,-0.32268571853637695,0.08472204208374023,-0.05422401428222656
1781788033316867000,9.5228671875,0.10680007934570312,-0.011515140533447266,-0.01688861846923828
1781788033365395500,9.5713955078125,-0.14934968948364258,0.18356001377105713,-0.058669090270996094
1781788033413923800,9.619923828125,-0.01736927032470703,0.07485425472259521,-0.06167888641357422
1781788033462452000,9.668451904296875,0.265012264251709,-0.08432245254516602,0.17488956451416016
1781788033510980400,9.71698046875,0.04799938201904297,0.04528778791427612,0.034310340881347656
1781788033559508500,9.765508544921875,0.1921224594116211,-0.10660934448242188,-0.013824462890625
1781788033608036900,9.814036865234375,0.42978906631469727,-0.04993540048599243,0.1566314697265625
1781788033656565000,9.86256494140625,0.0928797721862793,-0.010800957679748535,0.02259063720703125
1781788033705093400,9.91109326171875,-0.2569708824157715,0.02888631820678711,-0.1276397705078125
1781788033780230700,9.986230712890626,-0.8173685073852539,-0.07773298025131226,0.15694522857666016
1781788033828758800,10.0347587890625,-1.7278876304626465,-1.1503853797912598,0.9689698219299316
1781788033877287200,10.083287109375,-1.4667534828186035,-4.369175910949707,2.410630226135254
1781788033925815300,10.131815185546875,-1.334251880645752,-3.3636627197265625,-0.42403697967529297
1781788033974343700,10.18034375,-2.7674992084503174,1.7458648681640625,-4.246972560882568
1781788034022871800,10.228871826171876,-5.715240478515625,0.09260916709899902,-5.8098649978637695
1781788034071400200,10.277400146484375,-1.8550771474838257,-3.3538529872894287,-6.190273284912109
1781788034119928300,10.32592822265625,3.0222725868225098,-4.970100402832031,-3.567035675048828
1781788034168456700,10.374456787109375,6.861417770385742,-4.0021467208862305,4.403750419616699
1781788034216984800,10.42298486328125,6.8725104331970215,-1.9327678680419922,7.724030494689941
1781788034265513200,10.47151318359375,5.553036689758301,-1.1075115203857422,9.923091888427734
1781788034314041300,10.520041259765625,2.847156524658203,1.258120059967041,8.553382873535156
1781788034362569700,10.56856982421875,0.16231554746627808,2.6656687259674072,7.385245323181152
1781788034411098000,10.61709814453125,-2.071934461593628,3.638373374938965,6.669940948486328
1781788034459626000,10.6656259765625,-5.170943260192871,3.419365644454956,5.829225063323975
1781788034508154400,10.714154296875,-4.792916297912598,-0.03382444381713867,2.600083827972412
1781788034556682800,10.762682861328125,0.7145688533782959,-1.021324634552002,0.8506827354431152
1781788034605211000,10.8112109375,3.095118999481201,-1.4515337944030762,-0.13006973266601562
1781788034653739300,10.8597392578125,0.29019713401794434,0.10163068771362305,-2.0977635383605957
1781788034750795800,10.956795654296876,1.1400790214538574,0.6605615615844727,1.7630805969238281
1781788034799324200,11.00532421875,-0.9076845645904541,0.6371979713439941,-1.0259666442871094
1781788034847852300,11.053852294921874,-1.5704503059387207,1.054945468902588,-2.472179889678955
1781788034896380700,11.102380615234376,0.6255438327789307,2.256317377090454,-4.184336185455322
1781788034944908800,11.15090869140625,0.24361777305603027,3.2220680713653564,-3.407130718231201
1781788034993437200,11.199437255859374,0.45737898349761963,1.4330878257751465,-1.1485118865966797
1781788035041965300,11.24796533203125,0.9384036064147949,0.10097599029541016,0.05347156524658203
1781788035090493700,11.29649365234375,0.28210657835006714,-3.012516975402832,-0.0843191146850586
1781788035139021800,11.345021728515626,-1.9193999767303467,-3.7550926208496094,3.694087028503418
1781788035187550000,11.393550048828125,-1.4812836647033691,-2.3356056213378906,4.296324729919434
1781788035236078300,11.442078369140624,0.7419089078903198,0.13212966918945312,0.953582763671875
1781788035284606500,11.4906064453125,4.043548107147217,0.9668757915496826,-2.5129013061523438
1781788035333134800,11.539134765625,2.931145191192627,-0.9269089698791504,-1.9288783073425293
1781788035381663000,11.5876630859375,-0.2683795690536499,-1.0997731685638428,-1.7465543746948242
1781788035430191400,11.63619140625,-2.5294346809387207,-1.2635440826416016,0.4825916290283203
1781788035478719500,11.684719482421874,-3.041623115539551,-0.779289722442627,2.0966949462890625
1781788035527248000,11.733247802734375,-1.9956154823303223,-0.02436351776123047,2.312784194946289
1781788035575776000,11.78177587890625,-0.37103939056396484,1.3756647109985352,-0.20424842834472656
1781788035624304400,11.830304443359376,-1.002073049545288,1.1641268730163574,-0.8071146011352539
1781788035672832500,11.87883251953125,-1.3188257217407227,1.8777713775634766,0.017280101776123047
1781788035721361000,11.92736083984375,-0.14471077919006348,0.3072471618652344,0.4410583972930908
1781788035769889000,11.975888916015625,1.5455827713012695,-1.3697881698608398,3.13588809967041
1781788035818417400,12.02441748046875,1.962329387664795,-0.5678577423095703,0.9945088624954224
1781788035866945500,12.072945556640626,-2.859330415725708,0.3934488296508789,1.856123447418213
1781788035915474000,12.121473876953125,-1.9795615673065186,1.1827363967895508,0.8601199984550476
1781788035964002000,12.170001953125,3.3261899948120117,1.8986353874206543,-1.007980465888977
1781788036012530400,12.218530517578126,-2.8174490928649902,2.6830549240112305,2.0742359161376953
1781788036061058800,12.267058837890625,-2.448495388031006,1.8246469497680664,-0.8392094373703003
1781788036109586700,12.315586669921874,0.9253497123718262,-2.5774993896484375,0.3261139392852783
1781788036158115000,12.364114990234375,0.3182501792907715,-0.2853879928588867,0.12472307682037354
1781788036206643500,12.4126435546875,1.4730253219604492,-1.1704177856445312,0.5489820241928101
1781788036255171600,12.461171630859376,0.014012813568115234,0.9420366287231445,-0.01598423719406128
1781788036303700000,12.509699951171875,-2.57545804977417,4.754456520080566,-2.442866325378418
1781788036400756500,12.606756591796875,0.5005948543548584,-0.6615123748779297,-0.14351022243499756
1781788036449284600,12.65528466796875,1.117187738418579,-2.479177474975586,-0.5314200520515442
1781788036497813000,12.70381298828125,1.205906629562378,-0.22291851043701172,-1.3965165615081787
1781788036546341000,12.752341064453125,0.8718622922897339,1.3101787567138672,-0.6788996458053589
1781788036594869500,12.800869384765624,0.2454203963279724,1.250692367553711,3.6955666542053223
1781788036643397600,12.849397705078125,0.258577823638916,-1.2880029678344727,5.1979451179504395
1781788036691926000,12.897926025390625,-1.9908421039581299,-1.6265630722045898,-0.6165386438369751
1781788036740454100,12.9464541015625,0.03592371940612793,-1.138153076171875,-1.930021047592163
1781788036788982300,12.994982177734375,0.9343713521957397,-0.9927186965942383,-1.8928272724151611
1781788036837510700,13.0435107421875,0.2510548532009125,0.04730701446533203,-0.22678354382514954
1781788036886038800,13.092038818359375,-0.5283311009407043,1.8016595840454102,-0.15907299518585205
1781788036934567000,13.14056689453125,-0.9609464406967163,0.661229133605957,-0.1600131094455719
1781788036983095300,13.18909521484375,0.8511984944343567,-0.8853521347045898,1.362879991531372
1781788037031623700,13.237623779296875,1.5262508392333984,0.04881095886230469,-0.13679581880569458
1781788037080151800,13.28615185546875,0.018456637859344482,1.9167370796203613,0.36591705679893494
1781788037128680200,13.33468017578125,-0.7562525272369385,1.191910743713379,-0.04154384136199951
1781788037177208300,13.383208251953125,0.1343044936656952,0.8637266159057617,-0.5589528679847717
1781788037225736700,13.43173681640625,0.10882642865180969,0.19745635986328125,-0.27214106917381287
1781788037274264800,13.480264892578125,-0.6611158847808838,-0.32116222381591797,0.10604830086231232
1781788037322793200,13.528793212890625,0.09228703379631042,-3.5298452377319336,-0.26736751198768616
1781788037419850800,13.625850830078125,0.1299596130847931,1.5384836196899414,0.35163238644599915
1781788037468377900,13.6743779296875,0.40014612674713135,0.6393060684204102,-0.6443958282470703
1781788037516906200,13.72290625,-0.2341042459011078,-0.30382347106933594,0.0010707825422286987
1781788037565434600,13.7714345703125,-0.16623419523239136,0.10176563262939453,0.17256279289722443
1781788037613962800,13.819962646484376,-0.05518484115600586,-0.03105926513671875,-0.2667163014411926
1781788037662491100,13.8684912109375,-0.2500206530094147,0.057221412658691406,0.10201580822467804
1781788037711019300,13.917019287109374,0.11594194173812866,-0.2575521469116211,-0.0531366765499115
1781788037759547600,13.965547607421875,-0.07794314622879028,0.05682849884033203,0.03950749337673187
1781788037808075800,14.01407568359375,0.033076584339141846,-0.1998443603515625,0.05758073925971985
1781788037856604200,14.062604248046876,-0.1885116845369339,0.06486988067626953,-0.16992521286010742
1781788037905132300,14.11113232421875,-0.14080744981765747,0.13729000091552734,-0.31876248121261597
1781788037953660700,14.15966064453125,-0.10707949101924896,-0.08031558990478516,-0.04550653696060181
1781788038002189000,14.20818896484375,-0.08711090683937073,-0.1461963653564453,0.06740586459636688
1781788038050717200,14.25671728515625,0.1691594272851944,0.1027059555053711,0.19404888153076172
1781788038099245600,14.30524560546875,0.20911335945129395,0.31235694885253906,0.06733542680740356
1781788038147773700,14.353773681640625,-0.2551807463169098,0.1620779037475586,-0.13963286578655243
1781788038196302000,14.402302001953124,-0.0662098228931427,0.13631820678710938,-0.049842238426208496
1781788038293358600,14.499358642578125,-0.207826167345047,4.0984930992126465,0.2601766884326935
1781788038341887000,14.547886962890624,0.031392261385917664,-1.2809877395629883,0.03771907091140747
1781788038390415000,14.5964150390625,-0.050566598773002625,-3.519932746887207,-0.39610496163368225
1781788038438943500,14.644943603515625,-0.3782197833061218,-4.189060211181641,-0.813836932182312
1781788038487471600,14.6934716796875,-0.18991845846176147,0.11282920837402344,-0.040021419525146484
1781788038536000000,14.742,0.5381605625152588,1.399393081665039,-0.1627798080444336
1781788038584528100,14.790528076171874,-0.09707722812891006,0.11195850372314453,-0.005569815635681152
1781788038633056300,14.83905615234375,-0.37729156017303467,-1.0261144638061523,0.4639378786087036
1781788038681584600,14.887584716796875,-0.3482871949672699,-1.1844482421875,0.29897361993789673
1781788038730112800,14.93611279296875,-0.17477594316005707,-0.5425939559936523,-0.09279149770736694
1781788038778641200,14.98464111328125,0.27378398180007935,1.2265033721923828,-1.2694727182388306
1781788038827169500,15.03316943359375,-0.2809373736381531,0.27748966217041016,-1.1384739875793457
1781788038875697700,15.08169775390625,-0.2679717540740967,-0.17528438568115234,-0.0558171272277832
1781788038924226000,15.13022607421875,-0.03865617513656616,0.08124732971191406,0.3949136734008789
1781788038972754400,15.17875439453125,0.14891937375068665,-0.24929428100585938,0.6986573934555054
1781788039021282600,15.227282470703125,0.42573726177215576,-0.12324905395507812,0.6762372851371765
1781788039069811000,15.27581103515625,0.7245025038719177,0.0367584228515625,0.5604197978973389
1781788039118339000,15.324339111328126,0.6336305141448975,0.0652780532836914,0.40691787004470825
1781788039166867500,15.372867431640625,0.42287954688072205,0.21152210235595703,0.3167109489440918
1781788039215395600,15.4213955078125,0.2660420835018158,-0.21704483032226562,0.2353878617286682
1781788039263924000,15.469924072265625,0.010973215103149414,0.03407573699951172,0.24085718393325806
1781788039312452000,15.5184521484375,-0.12328174710273743,0.10521507263183594,0.10312825441360474
1781788039360980500,15.56698046875,-0.15201514959335327,-0.23335647583007812,-0.003256380558013916
1781788039409508900,15.6155087890625,-0.08034400641918182,-0.13705730438232422,0.06725925207138062
1781788039458037000,15.664037109375,-0.11575542390346527,-0.09226703643798828,-0.22815054655075073
1781788039506565400,15.7125654296875,-0.1888045370578766,0.0048580169677734375,-0.6061856746673584
1781788039555093500,15.761093505859375,-0.1336980164051056,-0.1939563751220703,-0.6283808946609497
1781788039603622100,15.8096220703125,-0.0044831037521362305,-0.14616870880126953,-0.3330448567867279
1781788039652150300,15.858150390625,0.09032486379146576,-0.0266876220703125,-0.1872413456439972
1781788039700678400,15.906678466796874,0.07659372687339783,0.15893268585205078,0.14595574140548706
1781788039749206800,15.955206787109375,0.008778482675552368,0.0836629867553711,0.1814819574356079
1781788039797735200,16.003735107421875,-0.017925143241882324,-0.012709617614746094,0.07539457082748413
1781788039846263300,16.05226318359375,-0.1444283425807953,-0.08065032958984375,-0.057344794273376465
1781788039943319800,16.14931982421875,-0.0026575326919555664,-0.10782337188720703,0.01075810194015503
1781788039991848200,16.19784814453125,0.04742364585399628,0.033847808837890625,0.04180121421813965
1781788040040376600,16.24637646484375,-0.002469003200531006,0.09584903717041016,0.06591784954071045
1781788040088904700,16.29490478515625,-0.08805058896541595,0.04633617401123047,-0.014806866645812988
1781788040137433000,16.34343310546875,-0.18727581202983856,-0.11669349670410156,-0.31778913736343384
1781788040185961500,16.39196142578125,-0.15986429154872894,0.018576622009277344,-0.2220202088356018
1781788040234489600,16.440489501953124,0.1189432144165039,-0.1466503143310547,0.14335930347442627
1781788040283017700,16.489017822265627,0.1977940797805786,-0.008304595947265625,0.2817382216453552
1781788040331546000,16.537546142578126,0.3504815697669983,0.09916210174560547,0.43090277910232544
1781788040380074200,16.58607421875,-0.24856936931610107,0.09900379180908203,0.19426894187927246
1781788040428602600,16.6346025390625,-0.21096162497997284,-0.09875297546386719,-0.3114175498485565
1781788040477130800,16.683130859375,-0.37887442111968994,0.07327461242675781,-0.3016049861907959
1781788040525659100,16.7316591796875,-0.07515881955623627,-0.16724300384521484,-0.20230716466903687
1781788040574187500,16.7801875,0.22116495668888092,0.10132884979248047,0.2653021812438965
1781788040622716000,16.8287158203125,-0.18780642747879028,0.0732583999633789,0.030669689178466797
1781788040671244000,16.877244140625,0.021076351404190063,-0.05916595458984375,-0.25426360964775085
1781788040719772400,16.9257724609375,0.15705524384975433,-0.07155799865722656,0.25442230701446533
1781788040768300500,16.974300537109375,-0.05776802450418472,0.037174224853515625,-0.22934624552726746
1781788040816829000,17.022828857421874,-0.01987738162279129,0.18036651611328125,0.15581905841827393
1781788040865357300,17.071357421875,0.32910028100013733,-0.2627687454223633,0.010639429092407227
1781788040913885700,17.1198857421875,-0.03224803879857063,-0.1875,0.11921203136444092
1781788040962413600,17.16841357421875,0.44813764095306396,0.32291603088378906,0.7969804406166077
1781788041010942000,17.21694189453125,0.3277803957462311,-0.10421943664550781,0.7735909223556519
1781788041059470300,17.26547021484375,0.09444881975650787,-0.15180397033691406,-0.4994414746761322
1781788041107998500,17.31399853515625,-0.10007156431674957,0.07930755615234375,-0.428977370262146
1781788041156526800,17.36252685546875,-0.4137052893638611,0.31198596954345703,-0.822081446647644
1781788041205055000,17.411054931640624,-0.083107128739357,0.2249279022216797,-1.0108956098556519
1781788041253583600,17.45958349609375,-0.09800536930561066,-0.4378032684326172,-0.47522714734077454
1781788041302111700,17.50811181640625,-1.9833625555038452,0.6746063232421875,-0.4090538024902344
1781788041350640000,17.55664013671875,1.06218421459198,-0.30385684967041016,0.26784443855285645
1781788041399168300,17.605168212890625,-0.7647125720977783,-0.5710420608520508,-0.29629069566726685
1781788041447696600,17.653696533203124,-0.2023923546075821,0.06492805480957031,-0.17986929416656494
1781788041496224800,17.702224853515624,-0.29994097352027893,0.09368610382080078,-0.038467586040496826
1781788041593281500,17.799281494140626,-0.06887432932853699,0.22325992584228516,0.02739274501800537
1781788041641809700,17.8478095703125,-0.22459155321121216,0.09480953216552734,-0.2815895080566406
1781788041690338000,17.896338134765625,0.1289196014404297,0.1493368148803711,-0.10188424587249756
1781788041738866400,17.944866455078124,0.43107831478118896,-0.3149242401123047,0.5706747770309448
1781788041787394600,17.99339453125,0.5442846417427063,-0.15115070343017578,0.6771096587181091
1781788041835923000,18.0419228515625,0.3346891403198242,0.24384593963623047,0.6878782510757446
1781788041884451000,18.090451171875,0.12787991762161255,-0.13167953491210938,0.3976343274116516
1781788041932979200,18.138979248046876,-0.053228914737701416,0.0863809585571289,-0.19936621189117432
1781788041981507600,18.187507568359376,-0.29920095205307007,0.16823387145996094,-0.5204175710678101
1781788042030036000,18.236035888671875,-0.3567817211151123,0.1491413116455078,-0.3759666681289673
1781788042078564000,18.284564208984374,-0.2615947127342224,-0.18138504028320312,-0.31761085987091064
1781788042127092500,18.333092529296874,-0.10779762268066406,-0.14218807220458984,-0.07274442911148071
1781788042175620600,18.38162060546875,-0.06352639198303223,0.09598350524902344,-0.16125017404556274
1781788042224149000,18.43014892578125,-0.10650652647018433,-0.020977020263671875,-0.2805325388908386
1781788042272677400,18.478677490234375,-0.1630745232105255,0.01081085205078125,-0.24690872430801392
1781788042321205500,18.52720556640625,-0.12775805592536926,0.010458946228027344,-0.1868581771850586
1781788042369734000,18.57573388671875,-0.03101515769958496,-0.0033254623413085938,0.09452760219573975
1781788042418262000,18.624261962890625,-0.10353761911392212,-0.0904855728149414,0.08744221925735474
1781788042466790400,18.672790283203124,-0.02064645290374756,-0.02070140838623047,0.06561726331710815
1781788042515318800,18.72131884765625,-0.10274010896682739,0.006793975830078125,-0.029385745525360107
1781788042563847200,18.76984716796875,-0.03649783134460449,-0.040543556213378906,-0.11197918653488159
1781788042612375000,18.818375,0.036961913108825684,0.049866676330566406,-0.020946085453033447
1781788042660903400,18.8669033203125,0.034589171409606934,0.09333610534667969,0.02575206756591797
1781788042709431800,18.915431884765624,-0.009746313095092773,-0.022240638732910156,0.024619996547698975
1781788042757960000,18.9639599609375,-0.023500382900238037,0.06347179412841797,-0.02953571081161499
1781788042806488300,19.01248828125,-0.049658238887786865,-0.12967395782470703,-0.1448286771774292
1781788042855016400,19.061016357421874,0.026093244552612305,0.03319072723388672,-0.08849936723709106
1781788042903545000,19.109545166015625,0.01533210277557373,0.06766128540039062,0.015301346778869629
1781788042952073200,19.1580732421875,0.012374937534332275,-0.013164520263671875,0.08051759004592896
1781788043000601300,19.206601318359375,-0.013889908790588379,0.0152130126953125,0.04537123441696167
1781788043049129700,19.255129638671875,-0.06147885322570801,-0.03151893615722656,0.015958070755004883
1781788043097657900,19.303657958984374,-0.017677605152130127,-0.009507179260253906,-0.019065380096435547
1781788043146186200,19.352186279296873,-0.0455741286277771,0.027524948120117188,0.025980830192565918
1781788043243242500,19.449242431640624,-0.03707247972488403,0.05696678161621094,-0.00880897045135498
1781788043291771000,19.49777099609375,-0.0071863532066345215,-0.0012989044189453125,0.041925132274627686
1781788043340299000,19.546299072265626,-0.0259934663772583,-0.014079093933105469,0.01447904109954834
1781788043388827400,19.594827392578125,-0.007696747779846191,0.026923179626464844,-0.03889399766921997
1781788043437355500,19.64335546875,-0.05210226774215698,-0.007129669189453125,-0.014239013195037842
1781788043485884000,19.6918837890625,0.0033720731735229492,-0.004000663757324219,0.0219804048538208
1781788043534412300,19.740412353515627,0.01164335012435913,0.005127906799316406,0.03831076622009277
1781788043582940400,19.7889404296875,0.031046271324157715,0.03121471405029297,-0.07226276397705078
1781788043631468800,19.83746875,-0.04203653335571289,-0.0055751800537109375,-0.08074319362640381
1781788043679997000,19.885996826171876,-0.04440966248512268,0.051616668701171875,-0.026477456092834473
1781788043728525300,19.934525390625,-0.09786620736122131,0.01122283935546875,-0.08030956983566284
1781788043777053400,19.983053466796875,-0.18075993657112122,-0.04108142852783203,-0.09777164459228516
1781788043825581800,20.031581787109374,-0.10071864724159241,-0.06855583190917969,-0.08606648445129395
1781788043874110000,20.08010986328125,-0.011117994785308838,-0.06145763397216797,0.04009222984313965
1781788043922638300,20.128638427734376,0.05711820721626282,-0.04680442810058594,0.03550964593887329
1781788043971166700,20.177166748046876,0.19376343488693237,0.052154541015625,0.1018141508102417
1781788044019694800,20.22569482421875,0.30059322714805603,0.11138534545898438,0.4335847496986389
1781788044068223200,20.27422314453125,0.23665505647659302,0.012272834777832031,0.3725894093513489
1781788044116751400,20.32275146484375,0.030479252338409424,0.13872432708740234,-0.03426390886306763
1781788044165279700,20.37127978515625,-0.15236243605613708,0.008126258850097656,-0.25308090448379517
1781788044213807900,20.419807861328124,-0.29869842529296875,-0.11988162994384766,-0.33751270174980164
1781788044262336000,20.4683359375,-0.2663096785545349,-0.060817718505859375,-0.24318194389343262
1781788044310864400,20.516864501953126,-0.13418540358543396,-0.038712501525878906,-0.057195305824279785
1781788044359392800,20.565392822265625,-0.02255082130432129,0.04111480712890625,0.08912628889083862
1781788044407921000,20.6139208984375,-0.0171031653881073,0.0700826644897461,0.07918757200241089
1781788044456449000,20.662448974609376,0.012528091669082642,-0.05157661437988281,-0.04944831132888794
1781788044504977400,20.710977294921875,0.022807002067565918,-0.028316497802734375,-0.0884394645690918
1781788044553505800,20.759505859375,0.007589757442474365,0.040436744689941406,-0.02918010950088501
1781788044602034000,20.808033935546874,0.05630040168762207,-0.057175636291503906,0.0682295560836792
1781788044650562300,20.856562255859377,0.06061282753944397,0.022296905517578125,0.07829779386520386
1781788044699090400,20.90509033203125,0.07091838121414185,-0.026865005493164062,0.10321390628814697
1781788044747618800,20.953618896484375,0.03201022744178772,0.024847030639648438,0.031069517135620117
1781788044796147000,21.00214697265625,0.016463547945022583,0.052397727966308594,-0.02825075387954712
1781788044893203200,21.099203125,-0.042471617460250854,-0.03419303894042969,-0.07189524173736572
1781788044941731600,21.147731689453124,-0.08654537796974182,-0.0064334869384765625,-0.016637682914733887
1781788044990259700,21.196259765625,-0.057732224464416504,-0.01962757110595703,-0.01672375202178955
1781788045038788000,21.2447880859375,-0.02819240093231201,-0.02056884765625,0.04247641563415527
1781788045087316200,21.293316162109374,-0.009271323680877686,0.014267921447753906,0.02488797903060913
1781788045135844600,21.3418447265625,-0.03235754370689392,0.02064990997314453,0.010186553001403809
1781788045184372700,21.390372802734376,-0.01716625690460205,0.0206451416015625,0.0027946829795837402
1781788045232901000,21.438901123046875,-0.03160858154296875,0.016239166259765625,-0.007920622825622559
1781788045281429200,21.48742919921875,-0.055781543254852295,-0.021867752075195312,0.01461493968963623
1781788045329957600,21.53595751953125,-0.026080936193466187,-0.0037698745727539062,-0.00577932596206665
1781788045378485800,21.58448583984375,-0.040330737829208374,-0.005340576171875,-0.029437720775604248
1781788045427014000,21.633013916015624,-0.03318411111831665,-0.027540206909179688,-0.04529207944869995
1781788045475542300,21.681542236328124,-0.00026097893714904785,0.011124610900878906,-0.028740763664245605
1781788045524070400,21.7300703125,0.03128126263618469,-0.012551307678222656,0.024721264839172363
1781788045572598800,21.778598876953126,0.032950133085250854,0.0042934417724609375,0.00696718692779541
1781788045621127000,21.827126953125,0.03644615411758423,0.04410743713378906,0.014321506023406982
1781788045669655000,21.875655029296876,0.012760430574417114,-0.012619972229003906,0.008254528045654297
1781788045718183400,21.924183349609375,0.00013682246208190918,-0.013532638549804688,0.060311079025268555
1781788045766711600,21.972711669921875,-0.015653610229492188,0.0047588348388671875,0.028477191925048828
1781788045815240000,22.021239990234374,-0.0020447969436645508,-0.0048885345458984375,-0.002138793468475342
1781788045863768300,22.069768310546873,0.01789817214012146,0.011197090148925781,-0.03484243154525757
1781788045912296400,22.11829638671875,0.01819363236427307,0.01855754852294922,0.048655927181243896
1781788045960824600,22.166824462890624,0.023643910884857178,-0.026045799255371094,0.08718764781951904
1781788046009353000,22.21535302734375,0.01375463604927063,-0.02286243438720703,0.0688018798828125
1781788046057881000,22.263881103515626,-0.017062455415725708,0.017015457153320312,0.02389395236968994
1781788046106409200,22.3124091796875,-0.08791962265968323,0.02030181884765625,-0.10509097576141357
1781788046154937600,22.3609375,-0.07689094543457031,0.007821083068847656,-0.09942764043807983
1781788046203465700,22.4094658203125,-0.08224332332611084,-0.033715248107910156,-0.049259305000305176
1781788046251993900,22.457993896484375,-0.040950268507003784,-0.042545318603515625,-0.005167841911315918
1781788046300522000,22.50652197265625,-0.033796489238739014,0.0002803802490234375,0.007595181465148926
1781788046349050400,22.55505029296875,0.016041070222854614,-0.0034704208374023438,-0.012385964393615723
1781788046397578500,22.60357861328125,0.04442921280860901,0.027860641479492188,0.024187743663787842
1781788046446107000,22.65210693359375,0.05248561501502991,0.038361549377441406,0.010471343994140625
1781788046543163100,22.7491630859375,-0.010050028562545776,-0.028014183044433594,-0.015345633029937744
1781788046591691500,22.79769140625,-0.05094197392463684,-0.006972312927246094,-0.039317786693573
1781788046640219600,22.8462197265625,-0.06198570132255554,0.006012916564941406,-0.0449407696723938
1781788046688747800,22.894747802734376,-0.028693407773971558,-0.0113067626953125,-0.00606924295425415
1781788046737276200,22.943276123046875,0.0006949305534362793,-0.02116680145263672,-0.0064231157302856445
1781788046785804300,22.99180419921875,0.01846081018447876,-0.0014219284057617188,0.042353034019470215
1781788046834332400,23.04033251953125,-0.008087098598480225,0.029221534729003906,0.041533827781677246
1781788046882860800,23.08886083984375,0.1218627393245697,-0.13629436492919922,0.11328005790710449
1781788046931389000,23.137388916015624,0.37431415915489197,-0.09984874725341797,0.384000301361084
1781788046979917300,23.185917236328127,0.41966208815574646,-0.009625434875488281,0.572647213935852
1781788047028445400,23.234445556640626,0.26634591817855835,0.08175182342529297,0.5969607830047607
1781788047076973600,23.2829736328125,0.024159982800483704,0.14241981506347656,0.06668305397033691
1781788047125502000,23.331501953125,-0.17269615828990936,0.13323211669921875,-0.3395731449127197
1781788047174030000,23.380030029296876,-0.4118647575378418,0.10498905181884766,-0.5840469598770142
1781788047222558200,23.42855810546875,-0.4058966636657715,0.03627300262451172,-0.5107192993164062
1781788047271086600,23.477086669921874,-0.23381656408309937,-0.17502498626708984,-0.4802980124950409
1781788047319614700,23.52561474609375,-0.2967970371246338,-0.04254722595214844,-0.6043001413345337
1781788047368142800,23.574142822265625,-0.45537084341049194,-0.047295570373535156,-0.8104012608528137
1781788047416671200,23.622671142578124,-0.16227133572101593,-0.6328020095825195,-0.5828298926353455
1781788047465199400,23.671199462890623,0.2063288539648056,-0.3638038635253906,0.2103794813156128
1781788047513727500,23.7197275390625,0.24861200153827667,0.19274520874023438,-0.08242738246917725
1781788047562255600,23.768255615234374,-0.21307381987571716,2.734015464782715,-1.025792121887207
1781788047610783700,23.81678369140625,0.07863360643386841,-0.9468545913696289,0.9640900492668152
1781788047659312000,23.86531201171875,-0.49001413583755493,-1.072209358215332,0.5574965476989746
1781788047707840300,23.91384033203125,0.13826636970043182,0.4041633605957031,-0.005567073822021484
1781788047756368400,23.962368408203126,0.08158870041370392,-0.23149585723876953,-0.03142571449279785
1781788047804896800,24.010896728515625,0.07294762134552002,0.07679462432861328,0.09887546300888062
1781788047853425200,24.059425048828125,0.007150739431381226,0.3626670837402344,-0.2660531997680664
1781788047901953000,24.107953125,-0.2657373249530792,-0.27532100677490234,-0.195234477519989
1781788047950481200,24.156481201171875,-0.30849993228912354,0.08374691009521484,-0.21532738208770752
1781788047999009500,24.205009521484374,-0.1596626490354538,0.47115421295166016,-0.3058605194091797
1781788048047537700,24.25353759765625,-0.13160869479179382,-0.40198230743408203,0.20750689506530762
1781788048096065800,24.302065673828125,-0.39726459980010986,0.14307498931884766,-0.005288839340209961
1781788048193122300,24.399122314453123,-0.30185702443122864,-0.01227569580078125,0.0584680438041687
1781788048241650400,24.447650390625,0.07528313994407654,0.023466110229492188,-0.23092490434646606
1781788048290178600,24.496178466796874,0.12611353397369385,-0.1042938232421875,0.4143967032432556
1781788048338707000,24.54470703125,0.3726627230644226,-0.24366474151611328,-0.06427597999572754
1781788048387235000,24.593235107421876,-0.2715418040752411,0.5144786834716797,-0.8460118770599365
1781788048435763200,24.64176318359375,-0.12561339139938354,0.27719974517822266,-0.6347854137420654
1781788048484291300,24.690291259765626,-0.38413098454475403,-0.6294422149658203,0.5785843133926392
1781788048532819700,24.73881982421875,0.10266664624214172,0.4412364959716797,0.905971884727478
1781788048581347800,24.787347900390625,0.0016934871673583984,0.17821407318115234,0.34722572565078735
1781788048629876000,24.8358759765625,-0.12805315852165222,-0.14632511138916016,-0.008015096187591553
1781788048678404400,24.884404296875,-0.5094617605209351,0.14834976196289062,-0.6389647126197815
1781788048726932500,24.932932373046874,-0.6114482879638672,-0.07100963592529297,-1.0149351358413696
1781788048775460600,24.981460693359374,0.02476942539215088,0.0949087142944336,-0.5275684595108032
1781788048823988700,25.02998876953125,-0.26020678877830505,0.010366439819335938,0.1765245795249939
1781788048872516900,25.078516845703124,0.08917593955993652,-0.33358097076416016,0.26270973682403564
1781788048921045000,25.127044921875,0.1529628485441208,-0.013182640075683594,0.22040385007858276
1781788048969573000,25.175572998046874,-0.10304343700408936,0.43988037109375,0.13625359535217285
1781788049018101200,25.224101318359374,-0.3414783477783203,0.35577392578125,-0.35765939950942993
1781788049066629600,25.272629638671877,-0.2546626627445221,0.1632680892944336,-0.08738476037979126
1781788049115157800,25.32115771484375,-0.1754131019115448,-0.21178722381591797,-0.07578092813491821
1781788049163686100,25.36968603515625,-0.11297647655010223,-0.595402717590332,0.12995433807373047
1781788049212214000,25.418214111328126,-0.009143084287643433,0.10563087463378906,0.620492160320282
1781788049260742400,25.466742431640625,0.7345631718635559,-0.28449440002441406,0.09393829107284546
1781788049309270500,25.5152705078125,0.25626999139785767,0.24120807647705078,-0.38089197874069214
1781788049357798700,25.563798583984376,0.18187189102172852,0.7689104080200195,-0.21983754634857178
1781788049406326800,25.612326904296875,-0.5558589696884155,0.059037208557128906,-0.2870074510574341
1781788049454855000,25.66085498046875,-1.0623760223388672,0.026380538940429688,-0.33381664752960205
1781788049503383300,25.70938330078125,-0.7356330156326294,-0.4780864715576172,-0.6570602655410767
1781788049551911400,25.757911376953125,0.29802995920181274,-0.3341684341430664,-0.015213072299957275
1781788049600439600,25.806439453125,0.2314876914024353,-0.09337902069091797,0.21025949716567993
1781788049648967700,25.8549677734375,-0.0772380530834198,0.47065162658691406,-0.027940034866333008
1781788049697495800,25.903495849609374,0.12804266810417175,0.41245555877685547,0.2845555543899536
1781788049746024000,25.95202392578125,0.12938883900642395,-0.41196537017822266,0.32899487018585205
1781788049843080400,26.04908056640625,0.3173469305038452,-0.40844154357910156,-0.043197035789489746
1781788049891608300,26.0976083984375,0.12884697318077087,0.3818836212158203,0.36428576707839966
1781788049940136400,26.146136474609374,-0.04898872226476669,0.6880760192871094,-0.1421305537223816
1781788049988664800,26.194664794921874,0.10558927059173584,-0.2641563415527344,0.2236400842666626
1781788050037193000,26.24319287109375,-0.41774696111679077,-0.08265113830566406,-0.06578952074050903
1781788050085721000,26.29172119140625,-0.835064172744751,0.3820610046386719,-1.1385562419891357
1781788050134249200,26.340249267578123,-0.3909149467945099,-0.20076942443847656,-0.8550357818603516
1781788050182777300,26.38877734375,-0.03875983506441116,-0.3657503128051758,0.03896737098693848
1781788050231305700,26.4373056640625,-0.002854958176612854,0.12389087677001953,0.0876849889755249
1781788050279833900,26.485833740234376,-0.04439227283000946,-0.0109405517578125,0.1921953558921814
1781788050328362000,26.534362060546876,-0.28070253133773804,-0.008686065673828125,0.31184911727905273
1781788050376890000,26.58289013671875,0.0007016956806182861,-0.06806087493896484,0.2308000922203064
1781788050425418200,26.631418212890626,0.040335506200790405,-0.052951812744140625,-0.2194240689277649
1781788050473946600,26.679946533203125,-0.13149288296699524,0.03973579406738281,-0.6365251541137695
1781788050522474800,26.728474853515625,-0.05294390022754669,0.3561515808105469,-0.2551001310348511
1781788050571003000,26.7770029296875,-0.17494384944438934,-0.18713665008544922,0.07100588083267212
1781788050619531000,26.825531005859375,-0.10615022480487823,0.1696786880493164,-0.013384103775024414
1781788050668059100,26.87405908203125,0.0101814866065979,0.03287696838378906,0.023845911026000977
1781788050716587300,26.922587158203125,-0.1494644284248352,-0.08528327941894531,-0.015036463737487793
1781788050765115400,26.971115478515625,-0.08160758763551712,-0.055553436279296875,0.10186517238616943
1781788050813643500,27.0196435546875,-0.01689237356185913,-0.07877159118652344,0.009202778339385986
1781788050862171600,27.068171630859375,0.16684845089912415,0.23790645599365234,0.08828961849212646
1781788050910699800,27.11669970703125,0.3415077328681946,-0.09311389923095703,0.04376763105392456
1781788050959228000,27.165227783203125,0.13271905481815338,-0.18253612518310547,0.04621005058288574
1781788051007756000,27.213756103515625,-0.23269949853420258,0.23645591735839844,-0.1579509973526001
1781788051056284200,27.2622841796875,-0.23564167320728302,0.18555259704589844,0.07956337928771973
1781788051104812300,27.310812255859375,-0.26079872250556946,-0.5185461044311523,0.10259401798248291
1781788051153340700,27.359340576171874,-0.4109044075012207,0.7725105285644531,-0.9708544015884399
1781788051201868800,27.407868896484374,0.11976850032806396,-0.3737211227416992,-0.12310582399368286
1781788051250397000,27.45639697265625,-0.31249305605888367,-0.17342281341552734,0.3023577332496643
1781788051298925000,27.504925048828124,0.30828627943992615,0.8183479309082031,-0.24545633792877197
1781788051347453200,27.553453125,-0.07925886660814285,-0.6077756881713867,0.4516785144805908
1781788051395981300,27.601981201171874,-0.06924539804458618,0.042346954345703125,0.2001408338546753
1781788051493037300,27.699037353515624,-0.1358056664466858,-0.07557296752929688,-0.10512381792068481
1781788051541565700,27.747565673828124,-0.31462565064430237,0.11547088623046875,-0.4673593044281006
1781788051590093800,27.79609375,-0.22563233971595764,0.1404428482055664,-0.6060522794723511
1781788051638622000,27.8446220703125,-0.0955539345741272,-0.16317367553710938,0.20879483222961426
1781788051687150000,27.893150146484373,0.1614949107170105,-0.0787191390991211,0.3762407898902893
1781788051735678200,27.94167822265625,0.4322414994239807,0.10286521911621094,0.5310865044593811
1781788051784206300,27.990206298828124,0.3709616959095001,-0.04070472717285156,-0.26332396268844604
1781788051832734500,28.038734375,0.20409546792507172,0.17978954315185547,0.1795501708984375
1781788051881262600,28.0872626953125,-0.03372655808925629,0.028464317321777344,0.1270161271095276
1781788051929790700,28.135790771484373,-0.031564924865961075,0.01863861083984375,0.19040948152542114
1781788051978318800,28.18431884765625,-0.3225545585155487,0.03591156005859375,-0.21489298343658447
1781788052026847000,28.232846923828124,-0.4373728036880493,-0.0009927749633789062,-0.4582515060901642
1781788052075375000,28.281375,-0.25773537158966064,-0.05378246307373047,-0.36734431982040405
1781788052123903200,28.3299033203125,-0.3984370529651642,0.059470176696777344,-0.3662363290786743
1781788052172431400,28.378431396484373,-0.013961192220449448,0.027756690979003906,-0.3412267863750458
1781788052220959500,28.42695947265625,0.05760342627763748,-0.16423511505126953,0.062486231327056885
1781788052269487600,28.475487548828124,0.030346062034368515,0.06486225128173828,-0.0736548900604248
1781788052318015700,28.524015625,0.060780543833971024,0.09397411346435547,-0.1573878526687622
1781788052366544000,28.5725439453125,-0.07103251665830612,0.03122234344482422,-0.17339539527893066
1781788052415072000,28.621072021484373,-0.09660430997610092,0.051550865173339844,0.1860632300376892
1781788052463600000,28.66960009765625,0.00845898874104023,-0.03638172149658203,0.20302242040634155
1781788052512128300,28.718128173828124,0.12260542809963226,0.11465740203857422,0.11081737279891968
1781788052560656400,28.766656494140626,0.03941516578197479,0.17029762268066406,-0.3737350106239319
1781788052609184500,28.8151845703125,-0.1693183332681656,-0.048333168029785156,-0.2705135941505432
1781788052657712600,28.863712646484377,-0.09744398295879364,-0.16750526428222656,0.161263108253479
1781788052706240800,28.91224072265625,0.04853874444961548,-0.041899681091308594,0.0909886360168457
1781788052754769000,28.960768798828123,0.006726779043674469,0.020418167114257812,0.0954541563987732
1781788052803297000,29.009297119140626,-0.00407525897026062,0.05814170837402344,0.17961907386779785
1781788052851825000,29.057824951171874,-0.09436152875423431,-0.13999652862548828,0.09341126680374146
1781788052900353000,29.10635302734375,-0.1062236949801445,-0.10619735717773438,-0.5438189506530762
1781788052948881200,29.154881103515624,0.05653541907668114,0.3204641342163086,0.030411720275878906
1781788052997409300,29.2034091796875,-0.0513029471039772,-0.08624839782714844,0.11745560169219971
1781788053045937400,29.2519375,0.012871913611888885,0.11567401885986328,-0.2883750796318054
1781788053142993700,29.34899365234375,0.2911234200000763,-0.38060665130615234,0.4134572744369507
1781788053191521800,29.397521728515624,0.22257496416568756,0.4274930953979492,0.38083767890930176
1781788053240050000,29.4460498046875,-0.5574263334274292,0.1303081512451172,0.18128329515457153
1781788053288578000,29.494578125,-0.03680649399757385,-0.9522867202758789,0.2198268175125122
1781788053337106200,29.543106201171874,0.4104372262954712,-0.022391319274902344,0.7751266956329346
1781788053385634300,29.59163427734375,0.0674893856048584,0.6475868225097656,-0.6090195775032043
1781788053434162200,29.640162109375,0.042127832770347595,0.10848617553710938,-0.8820133209228516
1781788053482690300,29.688690185546875,-0.27530092000961304,-0.05527019500732422,-0.45903754234313965
1781788053531218400,29.737218505859374,-0.05752450227737427,-0.5733270645141602,0.10405510663986206
1781788053579746600,29.78574658203125,0.11646450310945511,0.5121421813964844,0.13479292392730713
1781788053628274400,29.8342744140625,-0.07753244042396545,0.12491607666015625,-0.35934871435165405
1781788053676802600,29.882802490234376,-0.6049611568450928,-0.12021732330322266,-0.5945944786071777
1781788053725330700,29.93133056640625,-0.009880021214485168,0.1763448715209961,0.5655941963195801
1781788053773858800,29.97985888671875,0.33159446716308594,-0.4230384826660156,0.9968390464782715
1781788053822387000,30.028386962890625,0.07525716722011566,-0.08861541748046875,-0.05451846122741699
1781788053870915000,30.0769150390625,-0.04423712193965912,0.112548828125,-0.3119276165962219
1781788053919443200,30.125443115234376,-0.04863522946834564,-0.33226966857910156,-0.016948580741882324
1781788053967971300,30.173971435546875,0.13335391879081726,0.10504722595214844,-0.05920892953872681
1781788054016499500,30.22249951171875,0.19238698482513428,0.6958751678466797,-0.31074777245521545
1781788054065027600,30.271027587890625,0.27414625883102417,-0.09358978271484375,0.347312867641449
1781788054113555700,30.3195556640625,-0.7027655839920044,-0.6836261749267578,-0.5443039536476135
1781788054162083600,30.36808349609375,0.1107650175690651,0.21248722076416016,0.07843059301376343
1781788054210611700,30.41661181640625,0.12025383114814758,0.06032752990722656,-0.09222453832626343
1781788054259139800,30.465139892578126,-0.3798132538795471,-0.40355777740478516,-0.43142467737197876
1781788054307668000,30.51366796875,-0.31245914101600647,0.23317718505859375,-0.3671937584877014
1781788054356195800,30.56219580078125,-0.36788609623908997,-0.05807209014892578,-0.0939706563949585
1781788054404724000,30.610723876953124,0.301302433013916,0.31008052825927734,0.04693710803985596
1781788054453252400,30.65925244140625,-0.11985364556312561,-0.09205341339111328,0.08105349540710449
1781788054501780200,30.7077802734375,0.0034817643463611603,-0.42004966735839844,0.206698477268219
1781788054550308400,30.756308349609377,0.023187043145298958,0.3128471374511719,-0.06462013721466064
1781788054598836500,30.80483642578125,0.06508223712444305,0.11962318420410156,-0.3042778968811035
1781788054647364600,30.853364501953124,0.05616302043199539,-0.1780242919921875,0.13751673698425293
1781788054695892700,30.901892822265626,-0.09416364133358002,-0.08362293243408203,-0.09568732976913452
1781788054792948500,30.998948486328125,-0.15161432325839996,-0.07137489318847656,-0.0745464563369751
1781788054841476600,31.0474765625,0.17113126814365387,-0.19882488250732422,0.1626518964767456
1781788054890004700,31.096004638671875,0.2873974144458771,0.18731212615966797,0.4692012071609497
1781788054938532900,31.144532958984374,0.07995522767305374,-0.0648031234741211,-0.021683692932128906
1781788054987061000,31.19306103515625,0.21587595343589783,-0.13413238525390625,0.15334099531173706
1781788055035589000,31.241589111328125,-0.30542922019958496,0.21467304229736328,-0.39471203088760376
1781788055084117000,31.290116943359376,-0.32427188754081726,-0.07746124267578125,-0.05826115608215332
1781788055132645000,31.33864501953125,-0.19520163536071777,-0.32906627655029297,0.2831081748008728
1781788055181173200,31.38717333984375,-0.011345237493515015,-0.11919784545898438,0.3106365203857422
1781788055229701400,31.435701416015625,-0.0706281065940857,-0.039956092834472656,0.025394171476364136
1781788055278229500,31.4842294921875,0.41705891489982605,-0.017086029052734375,0.6937237977981567
1781788055326757600,31.532757568359376,0.1954934298992157,0.3406057357788086,-0.3831750452518463
1781788055375285500,31.581285400390627,0.12317273020744324,0.4797048568725586,-0.5512174963951111
1781788055423813600,31.629813720703126,-0.2698075771331787,0.607111930847168,-0.44042038917541504
1781788055472341500,31.678341552734373,0.11083146929740906,-0.09211444854736328,-0.4312202036380768
1781788055520869600,31.72686962890625,0.1402658224105835,-1.120560646057129,0.20718914270401
1781788055569397800,31.775397705078124,0.0393698513507843,-0.1442718505859375,0.428508460521698
1781788055617926000,31.82392578125,0.6174787282943726,0.7904958724975586,0.13738137483596802
1781788055666454000,31.8724541015625,0.31680652499198914,0.14784622192382812,-0.30358874797821045
1781788055714982000,31.92098193359375,-0.294448584318161,-0.23177433013916016,-0.40882381796836853
1781788055763510000,31.969510009765624,-1.0102565288543701,0.2137603759765625,-0.7389952540397644
1781788055812038100,32.0180380859375,-0.47485223412513733,0.09453678131103516,-0.44403114914894104
1781788055860566300,32.066566162109375,-0.1497127115726471,-0.30431461334228516,-0.3423720896244049
1781788055909094100,32.11509423828125,0.12176918983459473,0.3642559051513672,-0.3770213723182678
1781788055957622300,32.16362231445312,-0.4615471661090851,-0.20097732543945312,-0.2702709436416626
1781788056006150400,32.212150390625,0.5639646649360657,-1.1917343139648438,0.3746524453163147
1781788056054678500,32.260678466796875,-0.4167264401912689,1.520939826965332,0.3774769902229309
1781788056103206700,32.30920654296875,0.17879286408424377,0.44031620025634766,0.09699374437332153
1781788056151734300,32.357734375,-0.14956140518188477,-0.3647422790527344,0.6038656830787659
1781788056200262400,32.40626245117188,-0.09216596931219101,0.3476686477661133,0.133161723613739
1781788056248790500,32.45479052734375,-0.025415360927581787,0.2109975814819336,-0.05568283796310425
1781788056297318700,32.50331860351562,0.38650622963905334,0.035729408264160156,0.7923645973205566
1781788056345846500,32.55184643554688,-0.007461771368980408,-0.27665233612060547,1.302764892578125
1781788056442902800,32.64890283203125,-0.08841113746166229,-0.20324039459228516,-0.3084179162979126
1781788056491431000,32.697430908203124,-0.3257359564304352,-0.30149364471435547,-1.13369619846344
1781788056539959000,32.745958984375,-0.37355151772499084,0.26711177825927734,-1.1388053894042969
1781788056588487000,32.79448681640625,-0.26713091135025024,0.2449665069580078,-0.5938711762428284
1781788056637015000,32.84301513671875,-0.007152161560952663,0.02465343475341797,-0.41403645277023315
1781788056685543200,32.891543212890625,0.21625378727912903,0.2733449935913086,-0.34227001667022705
1781788056734071000,32.94007104492187,0.18596400320529938,-0.07170772552490234,0.09030932188034058
1781788056782599000,32.98859887695313,0.011639609932899475,-0.25002098083496094,0.15284377336502075
1781788056831127000,33.037126953125,0.09441143274307251,0.09282112121582031,0.3327599763870239
1781788056879655200,33.0856552734375,-0.10409361124038696,-0.059105873107910156,0.028464555740356445
1781788056928183000,33.13418310546875,-0.02499304711818695,0.11767768859863281,-0.29304981231689453
1781788056976711200,33.18271118164063,-0.0730847418308258,-0.0030107498168945312,-0.34744855761528015
1781788057025239300,33.2312392578125,0.02373749017715454,-0.05242729187011719,-0.2549040913581848
1781788057073767400,33.279767333984374,-0.024432480335235596,-0.059853553771972656,-0.2411937713623047
1781788057122295300,33.32829541015625,0.03907708823680878,0.0091552734375,-0.15560925006866455
1781788057170823400,33.37682348632813,-0.011400207877159119,0.023265838623046875,-0.0022341012954711914
1781788057219351300,33.425351318359375,-0.006549552083015442,0.033753395080566406,0.055268287658691406
1781788057267879400,33.47387939453125,0.02190759778022766,-0.009792327880859375,0.043058812618255615
1781788057316407600,33.52240747070312,0.023319721221923828,0.017871856689453125,0.03139597177505493
1781788057364935400,33.57093530273438,0.06814172863960266,0.05642127990722656,0.06689947843551636
1781788057413463600,33.619463623046876,0.02750086784362793,0.009099006652832031,0.08235204219818115
1781788057461991400,33.66799145507812,0.03245437145233154,0.08844947814941406,0.07352131605148315
1781788057510519600,33.71651953125,-0.011335998773574829,-0.014453887939453125,0.05360531806945801
1781788057559047700,33.76504760742188,-0.057056307792663574,-0.038726806640625,-0.009681880474090576
1781788057607575600,33.813575439453125,-0.050622016191482544,0.02033233642578125,-0.08663201332092285
1781788057656103700,33.862103759765624,0.13027310371398926,-0.012025833129882812,0.01970696449279785
1781788057704631600,33.91063159179687,0.14503967761993408,-0.023133277893066406,0.03247326612472534
1781788057753159700,33.95915966796875,0.1760963797569275,0.08435821533203125,0.19924747943878174
1781788057801687800,34.007687744140625,-0.02457129955291748,0.022416114807128906,0.08031684160232544
1781788057850215700,34.05621557617187,-0.12586387991905212,-0.015005111694335938,-0.1280234456062317
1781788057898743800,34.10474389648437,-0.23054058849811554,0.03435707092285156,-0.1277369260787964
1781788057947271700,34.15327172851563,-0.10776907950639725,-0.06738090515136719,-0.17988425493240356
1781788057995799800,34.2017998046875,-0.33628231287002563,-0.024207115173339844,-0.09777921438217163
1781788058092855800,34.29885571289063,-0.04255349189043045,-0.13269805908203125,0.08526414632797241
1781788058141383700,34.3473837890625,0.046162888407707214,0.09818458557128906,0.14481741189956665
1781788058189911800,34.395911865234375,0.060723334550857544,0.09796428680419922,0.013771474361419678
1781788058238439700,34.44443969726562,0.038282543420791626,0.004428863525390625,-0.11512231826782227
1781788058286967800,34.4929677734375,0.03224429488182068,-0.09167194366455078,-0.1259031891822815
1781788058335496000,34.541495849609376,-0.11924123764038086,0.0704498291015625,-0.14917927980422974
1781788058384023800,34.59002392578125,-0.08026771247386932,-0.009049415588378906,-0.03896462917327881
1781788058432552000,34.63855200195312,-0.10755480825901031,-0.10703372955322266,-0.018935203552246094
1781788058481080000,34.687080078125,-0.02970220148563385,-0.09984397888183594,0.02958524227142334
1781788058529608000,34.73560791015625,-0.015360385179519653,0.16487884521484375,0.0043288469314575195
1781788058578136000,34.784135986328124,-0.023419737815856934,-0.027991294860839844,-0.13322609663009644
1781788058626664000,34.83266381835937,-0.09795019775629044,-0.04884910583496094,-0.05577802658081055
1781788058675191800,34.88119189453125,-0.12245216220617294,0.050597190856933594,-0.036302804946899414
1781788058723720000,34.929719970703125,-0.049941256642341614,-0.047318458557128906,0.10236102342605591
1781788058772247800,34.97824780273437,0.09164728224277496,0.05819225311279297,0.24247056245803833
1781788058820776000,35.02677587890625,0.2031588852405548,0.012567520141601562,0.31977808475494385
1781788058869303800,35.0753037109375,0.25358468294143677,0.022757530212402344,0.35302913188934326
1781788058917832000,35.12383203125,0.2636544704437256,0.07565498352050781,0.31720370054244995
1781788058966359800,35.17235986328125,0.19471809267997742,-0.043478965759277344,0.07648724317550659
1781788059014888000,35.22088793945313,0.10154476761817932,-0.019181251525878906,-0.18829113245010376
1781788059063416000,35.269416015625,-0.10531453788280487,-0.005764961242675781,-0.43873757123947144
1781788059111944000,35.31794384765625,-0.10439826548099518,-0.06470584869384766,-0.4138317108154297
1781788059160472000,35.36647216796875,-0.20446498692035675,-0.011977195739746094,-0.22098273038864136
1781788059209000000,35.415,-0.05098487436771393,-0.011102676391601562,-0.009799778461456299
1781788059257527800,35.46352783203125,-0.05255407094955444,0.031395912170410156,0.11104130744934082
1781788059306056000,35.51205590820312,0.04271411895751953,-0.0018253326416015625,0.12602150440216064
1781788059354584000,35.560583984375,0.0340789258480072,0.03974342346191406,0.15953528881072998
1781788059403112000,35.60911181640625,0.02967655658721924,0.0058040618896484375,0.08488959074020386
1781788059451639800,35.657639892578125,-0.0062208473682403564,0.013485908508300781,0.01638549566268921
1781788059500168000,35.70616796875,-0.016686126589775085,0.01691150665283203,-0.03755998611450195
1781788059548695800,35.75469580078125,-0.06274774670600891,-0.017339706420898438,-0.09988617897033691
1781788059597224000,35.803223876953126,-0.014322683215141296,-0.036932945251464844,-0.049563586711883545
1781788059645751800,35.851751708984374,-0.042598605155944824,0.00896453857421875,0.021565914154052734
1781788059742807800,35.94880786132813,-0.020841971039772034,0.032059669494628906,0.04322409629821777
1781788059791335700,35.997335693359375,0.038627877831459045,0.04575061798095703,0.02268970012664795
1781788059839863800,36.04586376953125,0.007291421294212341,0.013303756713867188,0.03329044580459595
1781788059888391700,36.0943916015625,-0.0792018324136734,0.06744098663330078,-0.027580082416534424
1781788059936919800,36.142919921875,-0.1416669487953186,-0.05245494842529297,-0.030217289924621582
1781788059985447700,36.19144775390625,-0.06866829097270966,-0.1795196533203125,0.13134098052978516
1781788060033975800,36.23997583007812,0.010864883661270142,-0.06606292724609375,0.1727176308631897
1781788060082504000,36.28850390625,0.03990790247917175,0.0846405029296875,0.01270979642868042
1781788060131031600,36.337031494140625,-0.008340597152709961,0.07435989379882812,-0.10411810874938965
1781788060179559700,36.3855595703125,-0.0062291622161865234,0.06392860412597656,-0.1211695671081543
1781788060228087600,36.43408764648437,-0.011206522583961487,0.009633064270019531,-0.0918959379196167
1781788060276615700,36.48261572265625,-0.015986919403076172,-0.0681610107421875,-0.021695494651794434
1781788060325143600,36.5311435546875,0.04842469096183777,0.030153274536132812,0.027079641819000244
1781788060373671700,36.57967163085937,0.029593735933303833,0.026632308959960938,0.01086580753326416
1781788060422199600,36.62819946289063,0.03061044216156006,0.010162353515625,0.02099364995956421
1781788060470727700,36.67672778320313,-0.00804629921913147,-0.016122817993164062,-0.02494758367538452
1781788060519255600,36.725255615234374,-0.028311312198638916,-0.05352020263671875,-0.049113452434539795
1781788060567783700,36.77378369140625,-0.022905737161636353,-0.0028581619262695312,-0.015380918979644775
1781788060616311600,36.8223115234375,-0.004864305257797241,-0.06564712524414062,-0.018451988697052002
1781788060664839400,36.87083935546875,0.026192694902420044,0.012024879455566406,0.006516158580780029
1781788060713367300,36.9193671875,0.019441336393356323,0.040740966796875,-0.01260310411453247
1781788060761895400,36.9678955078125,-0.005468577146530151,0.017393112182617188,-0.012771248817443848
1781788060810423300,37.01642333984375,-0.029826998710632324,-0.043669700622558594,-0.013624966144561768
1781788060858951400,37.064951416015624,0.03030964732170105,0.022474288940429688,0.018747389316558838
1781788060907479300,37.11347924804687,-0.012778505682945251,-0.011715888977050781,0.0293581485748291
1781788060956007200,37.162007080078126,-0.004095897078514099,0.002483367919921875,0.020104408264160156
1781788061004535300,37.210535400390626,-0.004563480615615845,0.021231651306152344,-0.0018009543418884277
1781788061053063200,37.25906323242187,0.0006178170442581177,0.0075321197509765625,0.01569145917892456
1781788061101591300,37.30759130859375,-0.004504188895225525,0.026040077209472656,0.017375946044921875
1781788061150119200,37.356119140625,-0.03518003225326538,-0.006610870361328125,-0.006765127182006836
1781788061198647000,37.40464697265625,-0.03762766718864441,-0.0009527206420898438,-0.01407766342163086
1781788061247175200,37.45317504882812,-0.06616227328777313,-0.03891181945800781,-0.031306684017181396
1781788061295703000,37.501703125,-0.044793322682380676,-0.021834373474121094,-0.01028364896774292
1781788061392759000,37.59875903320312,0.031128883361816406,-0.04970359802246094,-0.01984560489654541
1781788061441287000,37.64728686523438,0.09006793797016144,0.06492424011230469,0.07539701461791992
1781788061489815000,37.69581494140625,0.04674500226974487,0.03165912628173828,0.02833312749862671
1781788061538343000,37.744343017578124,0.031823933124542236,0.0710611343383789,0.010539412498474121
1781788061586870800,37.79287084960937,0.011215195059776306,0.037545204162597656,0.02971041202545166
1781788061635399000,37.84139892578125,-0.008223041892051697,-0.053928375244140625,0.04126042127609253
1781788061683926800,37.8899267578125,-0.016759619116783142,-0.011507034301757812,0.026074349880218506
1781788061732454700,37.93845458984375,-0.008249223232269287,-0.0024652481079101562,0.021623969078063965
1781788061780982500,37.986982421875,0.018643632531166077,0.029290199279785156,0.05503666400909424
1781788061829510400,38.035510498046875,0.08475737273693085,0.01871967315673828,0.02734208106994629
1781788061878038500,38.08403857421875,0.22578352689743042,0.09967422485351562,0.14684247970581055
1781788061926566400,38.13256640625,0.052973806858062744,0.5350341796875,0.2998851537704468
1781788061975094300,38.18109423828125,-0.6458063721656799,0.46298885345458984,-0.040943920612335205
1781788062023622400,38.229622314453124,-0.6638277769088745,-0.8744602203369141,-0.13533753156661987
1781788062072150800,38.27815087890625,-0.14702537655830383,-1.043045997619629,0.03614628314971924
1781788062169206300,38.375206298828125,0.36831507086753845,-0.08112335205078125,0.10101008415222168
1781788062217734100,38.42373413085937,0.449503630399704,0.1933765411376953,0.06717616319656372
1781788062266262000,38.47226196289063,0.8057448267936707,0.033074378967285156,0.3187938332557678
1781788062314790100,38.5207900390625,0.6918741464614868,-0.028095245361328125,0.19844800233840942
1781788062363318000,38.569318115234374,0.8990663290023804,-0.3051891326904297,-0.6461902260780334
1781788062411846100,38.61784619140625,0.9014018774032593,0.1380758285522461,-1.4704504013061523
1781788062460374000,38.6663740234375,0.6144528388977051,0.955143928527832,-1.7200140953063965
1781788062508902000,38.71490185546875,-0.025838740170001984,1.44964599609375,-1.8315889835357666
1781788062557430000,38.76342993164062,0.06021559238433838,1.2612991333007812,0.304505854845047
1781788062605958000,38.8119580078125,-1.204581379890442,-2.807941436767578,2.115677833557129
1781788062654485800,38.86048583984375,-0.11384749412536621,-1.2686748504638672,2.6230525970458984
1781788062703013600,38.909013671875,0.2168595790863037,0.06435203552246094,0.6268339157104492
1781788062751541500,38.95754150390625,1.1697840690612793,1.2376384735107422,-0.29776811599731445
1781788062800069400,39.0060693359375,1.1437193155288696,1.3823060989379883,0.39272916316986084
1781788062848597500,39.05459741210937,1.4342882633209229,0.974614143371582,1.7716329097747803
1781788062897125400,39.10312548828125,0.9293243885040283,0.9052877426147461,2.0045011043548584
1781788062994181400,39.200181396484375,1.1845943927764893,-0.39523792266845703,2.415045738220215
1781788063042709200,39.24870922851562,1.518709421157837,-1.0648860931396484,3.2267379760742188
1781788063091237400,39.2972373046875,1.1910476684570312,-2.1697540283203125,2.421949863433838
1781788063139765200,39.34576513671875,-0.11064505577087402,-0.5644245147705078,1.3550853729248047
1781788063188293000,39.394293212890624,-1.278139591217041,0.014777183532714844,-0.5609153509140015
1781788063236821000,39.44282104492188,-1.9289944171905518,-1.4905204772949219,-2.0598840713500977
1781788063285349000,39.49134912109375,-0.5498561263084412,1.3417339324951172,-1.5817029476165771
1781788063333877000,39.539876953125,-1.2553553581237793,-0.02789783477783203,-3.1173043251037598
1781788063382404900,39.58840478515625,0.42561328411102295,1.8318195343017578,-1.7395585775375366
1781788063430932700,39.6369326171875,0.3067755103111267,0.710026741027832,-0.7579988837242126
1781788063479460900,39.6854609375,0.4025540053844452,-0.8819990158081055,0.6031027436256409
1781788063527988500,39.73398852539062,0.861496090888977,-0.2901144027709961,0.728864312171936
1781788063576516400,39.782516357421876,1.6192619800567627,-0.3373298645019531,-0.29077279567718506
1781788063625044500,39.83104443359375,2.088876962661743,-0.11698627471923828,-0.8609921336174011
1781788063673572400,39.879572265625,2.161799907684326,0.5199489593505859,-0.9937987327575684
1781788063722100200,39.92810034179688,3.8895089626312256,-0.5048503875732422,0.3813138008117676
1781788063770628000,39.976628173828125,2.007274866104126,-0.08380699157714844,1.4093961715698242
1781788063819156200,40.02515625,-0.3721415102481842,1.9607610702514648,1.546623706817627
1781788063867684000,40.07368408203125,-2.5159926414489746,-0.6535158157348633,-0.2338779866695404
1781788063916212000,40.1222119140625,-3.483628273010254,-3.1465606689453125,0.40569692850112915
1781788063964740000,40.170739990234374,-1.6504093408584595,-1.0018959045410156,1.4045400619506836
1781788064013268000,40.21926806640625,-1.6145470142364502,-0.5822792053222656,1.5426284074783325
1781788064061795800,40.2677958984375,0.2374173402786255,2.0830931663513184,-0.942943274974823
1781788064110323700,40.31632373046875,-0.277873158454895,1.6419782638549805,-1.985144019126892
1781788064158851600,40.3648515625,0.5976724624633789,3.346734046936035,-1.8946253061294556
1781788064207379700,40.41337963867188,1.417392373085022,3.477518081665039,0.8211058378219604
1781788064255907600,40.461907470703125,0.5633885860443115,-2.082932472229004,3.588162899017334
1781788064304435200,40.51043530273437,-0.20233094692230225,-10.008188247680664,3.36140513420105
1781788064352963300,40.55896337890625,-0.2789851427078247,-0.7690086364746094,-1.7827558517456055
1781788064401491200,40.6074912109375,-1.0592451095581055,1.6232490539550781,-2.770646333694458
1781788064450019000,40.65601904296875,-2.532545566558838,-3.6692514419555664,-0.4184644818305969
1781788064498547000,40.704546875,-0.9303548336029053,1.3716583251953125,-1.8966368436813354
1781788064547075000,40.753074951171875,0.7260780930519104,2.719087600708008,-1.25642991065979
1781788064644130600,40.85013061523438,0.816348671913147,1.031961441040039,0.756936252117157
1781788064692658700,40.89865869140625,1.3954949378967285,0.9506292343139648,0.5885196924209595
1781788064741186600,40.9471865234375,2.551255464553833,0.44354724884033203,-0.4240143895149231
1781788064789714400,40.99571435546875,2.6241941452026367,-0.5359401702880859,-3.182514190673828
1781788064838242300,41.0442421875,4.587177753448486,-2.900723457336426,0.5856003761291504
1781788064886770200,41.09277026367187,0.12415647506713867,2.288820743560791,1.5444214344024658
1781788064935298000,41.14129809570313,-2.2891035079956055,0.11574554443359375,0.03786879777908325
1781788064983826200,41.189826171875,-4.6688642501831055,-7.294765472412109,-1.7254412174224854
1781788065032354000,41.23835400390625,-3.345489978790283,-2.009427070617676,2.368417739868164
1781788065080882000,41.2868818359375,-0.7781392931938171,2.3157544136047363,1.9176380634307861
1781788065129410000,41.33541015625,-0.20629668235778809,2.99855375289917,-2.9721755981445312
1781788065177938000,41.38393798828125,-0.6822723746299744,4.063356876373291,-2.9997410774230957
1781788065226465800,41.4324658203125,0.9985401630401611,4.106256484985352,-1.2199897766113281
1781788065274993700,41.48099365234375,2.2779364585876465,1.0017995834350586,2.6476998329162598
1781788065323521500,41.529521484375,1.9522435665130615,-5.519824028015137,4.377377986907959
1781788065372049400,41.57804931640625,2.101438045501709,-4.24327278137207,4.926141738891602
1781788065420577300,41.62657739257813,-3.3840956687927246,-1.8733329772949219,-5.984325408935547
1781788065469105200,41.675105224609375,-0.9380474090576172,2.507905960083008,-3.686326026916504
1781788065517633000,41.72363305664062,-2.555992603302002,-5.342595100402832,0.5867581367492676
1781788065566161200,41.7721611328125,0.09324151277542114,0.5368165969848633,-2.9273386001586914
1781788065614689000,41.82068896484375,0.2567567825317383,4.00096321105957,-3.482959747314453
1781788065663217000,41.869216796875,-0.1425805389881134,2.099545955657959,-2.0109174251556396
1781788065711744800,41.91774487304688,0.6388028860092163,0.5043659210205078,-0.0852811336517334
1781788065760272600,41.966272705078126,2.2511372566223145,0.5617170333862305,1.6729075908660889
1781788065808800800,42.01480078125,3.5039913654327393,0.01912689208984375,-0.6391466856002808
1781788065857328600,42.06332861328125,4.456338882446289,-2.545926094055176,-1.4022120237350464
1781788065905856500,42.1118564453125,4.041471004486084,1.7914466857910156,2.528529167175293
1781788065954384000,42.1603837890625,-1.905489444732666,0.33549976348876953,2.2111358642578125
1781788066002911700,42.20891186523438,-3.6128461360931396,-5.56442928314209,-2.2843854427337646
1781788066051439900,42.25743994140625,-4.822144985198975,-5.963913917541504,-1.2698006629943848
1781788066099967700,42.3059677734375,-1.3654447793960571,1.749283790588379,2.673182487487793
1781788066148495600,42.35449560546875,-0.17534005641937256,4.721921443939209,-1.023105263710022
1781788066197023500,42.4030234375,-0.7168194651603699,3.973085880279541,-3.326125144958496
1781788066294079500,42.50007958984375,2.787351608276367,2.6059703826904297,0.9183318614959717
1781788066342607400,42.548607421875,0.6164660453796387,-6.119056701660156,4.10265588760376
1781788066391135200,42.59713525390625,2.985736846923828,-3.9202098846435547,2.800830841064453
1781788066439663000,42.6456630859375,-3.465980291366577,-1.609405517578125,-4.535035610198975
1781788066488191000,42.69419091796875,-0.9469930529594421,-0.813755989074707,-3.54256534576416
1781788066536718800,42.74271875,-2.6882176399230957,-5.585221290588379,0.49942612648010254
1781788066585246700,42.79124682617187,0.6309617161750793,0.9319343566894531,-1.7642316818237305
1781788066633774600,42.839774658203126,-0.0262184739112854,3.8501100540161133,-2.3808305263519287
1781788066682302500,42.88830249023437,-0.08939245343208313,2.693624496459961,-1.8983345031738281
1781788066730830300,42.93683032226563,0.624770998954773,1.962294578552246,-0.45434218645095825
1781788066779358200,42.985358154296875,2.0451619625091553,0.5153121948242188,1.2848396301269531
1781788066827886000,43.03388598632812,3.5622081756591797,0.1419668197631836,-0.7402240633964539
1781788066876414000,43.0824140625,5.035703659057617,-2.194477081298828,-1.9416184425354004
1781788066924942000,43.13094213867188,3.633392095565796,1.7312393188476562,2.7813611030578613
1781788066973470000,43.179469970703124,-3.0406174659729004,1.8950419425964355,3.005558967590332
1781788067021997600,43.22799755859375,-4.362677574157715,-6.746175765991211,-1.9843854904174805
1781788067070525400,43.276525390625,-6.17497444152832,-8.98123836517334,-0.11602294445037842
1781788067119053300,43.32505322265625,-0.5068492889404297,2.8773550987243652,3.2562294006347656
1781788067167581200,43.37358129882813,-0.49761486053466797,4.783692359924316,-0.894134521484375
1781788067216109300,43.422109375,-1.3084490299224854,4.231828689575195,-2.7213428020477295
1781788067264637200,43.47063720703125,0.36331796646118164,4.650143623352051,-1.7194952964782715
1781788067313165000,43.5191650390625,2.648092746734619,2.2990188598632812,2.7331061363220215
1781788067361693000,43.56769287109375,0.8233451843261719,-7.201398849487305,4.1512956619262695
1781788067410220800,43.616220703125,0.08941042423248291,-5.048604965209961,2.620250701904297
1781788067458748700,43.66474877929687,-3.4912939071655273,-0.1869344711303711,-6.962777137756348
1781788067507276500,43.713276611328126,-1.4220361709594727,-2.848565101623535,-2.6191020011901855
1781788067555804400,43.761804443359374,-2.161785125732422,-3.314046859741211,0.4321390390396118
1781788067604332300,43.81033227539063,1.030357837677002,1.5619964599609375,-2.4105324745178223
1781788067701388000,43.90738793945312,1.620906114578247,2.5788722038269043,0.1521100401878357
1781788067749916000,43.955916015625,0.744361937046051,0.6880636215209961,2.0200016498565674
1781788067798443800,44.00444384765625,3.5825161933898926,1.3627920150756836,2.951732635498047
1781788067846971600,44.0529716796875,4.086546421051025,-0.41609764099121094,0.43196654319763184
1781788067895499500,44.10149951171875,3.911961078643799,-1.7082805633544922,-1.5319185256958008
1781788067944027400,44.15002734375,0.846634030342102,2.132864475250244,1.7360963821411133
1781788067992555300,44.19855517578125,-2.6145806312561035,-1.6816701889038086,0.7991393804550171
1781788068041083100,44.24708325195313,-5.918283462524414,-9.61884593963623,-2.1235363483428955
1781788068089611000,44.295611083984376,-3.2318530082702637,-1.8683156967163086,2.2740869522094727
1781788068138139000,44.34413891601562,-1.4683825969696045,4.189238548278809,1.8213958740234375
1781788068186666800,44.39266674804688,-0.7260682582855225,5.357445240020752,-3.136976718902588
1781788068235194600,44.441194580078125,-1.1675913333892822,4.700669765472412,-3.153273820877075
1781788068283722500,44.48972241210937,1.4420868158340454,3.956423282623291,0.5035040378570557
1781788068332250400,44.53825048828125,2.0368502140045166,-2.449488639831543,4.792472839355469
1781788068380778200,44.5867783203125,2.3710527420043945,-7.201436996459961,4.387595176696777
1781788068429306000,44.63530615234375,-2.2783608436584473,-1.7720870971679688,-1.8150426149368286
1781788068477834200,44.68383422851562,-2.4467577934265137,1.0013160705566406,-6.198598861694336
1781788068526362000,44.732362060546876,-1.256126046180725,-6.625958442687988,1.0017924308776855
1781788068574890000,44.780889892578124,-1.4704129695892334,-0.648015022277832,-1.340833067893982
1781788068623417900,44.82941796875,-0.1956169605255127,2.917721748352051,-4.661095142364502
1781788068671945700,44.87794580078125,0.7333747148513794,3.5985708236694336,-3.0659523010253906
1781788068720473300,44.92647338867187,1.0321917533874512,1.3999309539794922,0.6425623297691345
1781788068769001200,44.97500122070313,2.8374080657958984,2.227728843688965,2.136622667312622
1781788068817529000,45.023529052734375,4.147954940795898,0.592656135559082,1.7728866338729858
1781788068866057000,45.07205688476562,3.749753952026367,-2.0525426864624023,-0.25156545639038086
1781788068914584800,45.12058471679688,2.5980098247528076,1.4963111877441406,1.8622984886169434
1781788068963112700,45.16911279296875,-2.2457997798919678,-0.5304412841796875,2.055948495864868
1781788069011640600,45.217640625,-4.76400899887085,-10.8650484085083,-2.334118604660034
1781788069060168200,45.266168212890626,-4.564580917358398,-4.549090385437012,2.8853049278259277
1781788069108696000,45.314696044921874,-1.2662945985794067,3.045572280883789,1.778710126876831
1781788069157224000,45.36322387695313,-0.5059269666671753,4.787318229675293,-2.9466288089752197
1781788069205751800,45.411751708984376,-1.1729971170425415,5.687294006347656,-3.7196297645568848
1781788069254279700,45.46027978515625,0.7716866731643677,5.632723808288574,-1.4227685928344727
1781788069351335400,45.55733544921875,1.3944551944732666,-11.37325382232666,5.517330169677734
1781788069399863600,45.605863525390625,-1.0779976844787598,-4.667478561401367,0.3099784851074219
1781788069448391400,45.65439135742187,-2.777698040008545,1.3344049453735352,-7.085831165313721
1781788069496919000,45.7029189453125,-1.2925924062728882,-4.349390029907227,-0.3751661777496338
1781788069545447000,45.751447021484374,-1.4606654644012451,-2.080293655395508,0.0924224853515625
1781788069593974800,45.79997485351562,0.9471893906593323,3.9548144340515137,-2.777376651763916
1781788069642502700,45.848502685546876,1.1943237781524658,5.778414726257324,-2.3266048431396484
1781788069691030500,45.89703051757812,0.7857319116592407,1.5170011520385742,0.8291501998901367
1781788069739558400,45.94555834960938,1.3126171827316284,0.0300140380859375,2.5303075313568115
1781788069788086000,45.9940859375,4.16196346282959,0.18418216705322266,1.2278012037277222
1781788069836614000,46.04261376953125,3.6009819507598877,-2.8078527450561523,-1.5533051490783691
1781788069885141800,46.09114184570313,4.623440742492676,-1.234090805053711,-0.2718617916107178
1781788069933669600,46.139669677734375,-1.386610507965088,3.5130553245544434,2.025745153427124
1781788069982197500,46.18819750976562,-2.8536875247955322,-2.5402793884277344,0.47698724269866943
1781788070030725600,46.2367255859375,-5.9564056396484375,-9.263203620910645,-2.619481086730957
1781788070079253200,46.285253173828124,-2.4549264907836914,-0.4041566848754883,2.8462793827056885
1781788070127781000,46.33378100585937,-1.2587045431137085,4.932160377502441,1.0757415294647217
1781788070176309000,46.38230908203125,-0.10644745826721191,5.174101829528809,-3.8535590171813965
1781788070224836900,46.4308369140625,-0.09021294116973877,5.284006595611572,-2.91987943649292
1781788070273364700,46.47936474609375,2.0441555976867676,4.351625442504883,0.41287803649902344
1781788070321892600,46.527892578125,1.9745855331420898,-4.070300102233887,3.7876081466674805
1781788070370420500,46.57642041015625,1.629171371459961,-10.213799476623535,3.5032334327697754
1781788070418948400,46.6249482421875,-1.6148829460144043,-1.8034610748291016,-3.2901694774627686
1781788070467476000,46.67347607421875,-1.240946888923645,1.440969467163086,-4.544529914855957
1781788070516003800,46.72200390625,-2.630459785461426,-6.410053253173828,1.0472781658172607
1781788070564531700,46.77053173828125,0.5060698986053467,2.3114571571350098,-1.5790653228759766
1781788070613059600,46.8190595703125,0.6491901874542236,5.443647861480713,-2.8362622261047363
1781788070661587500,46.86758740234375,0.7396354079246521,3.3869543075561523,-2.0039730072021484
1781788070710115000,46.91611499023438,0.6830151677131653,-0.2028360366821289,0.8919092416763306
1781788070758643000,46.964642822265624,2.616098642349243,-0.5338592529296875,1.6468394994735718
1781788070807170800,47.0131708984375,5.695852756500244,1.2181940078735352,-0.6425836086273193
1781788070855698700,47.06169873046875,3.9313695430755615,-3.873109817504883,0.3512144088745117
1781788070952754400,47.15875439453125,-2.212381362915039,-0.7667789459228516,1.7049471139907837
1781788071001282300,47.2072822265625,-5.963994026184082,-10.246673583984375,-2.4275412559509277
1781788071049810200,47.25581005859375,-3.582324981689453,-1.0778608322143555,1.3252776861190796
1781788071098338000,47.30433813476562,-0.7915087938308716,4.664234638214111,1.9221830368041992
1781788071146866000,47.35286596679688,-0.5175579786300659,5.163065433502197,-3.7073402404785156
1781788071195393800,47.401393798828124,-0.4183993339538574,5.2255024909973145,-2.952850818634033
1781788071243921700,47.44992163085937,1.7232029438018799,3.661050796508789,0.2864953279495239
1781788071292449300,47.49844921875,2.1889939308166504,-2.3555374145507812,4.631265163421631
1781788071340977200,47.54697705078125,1.3820992708206177,-10.249293327331543,4.43183708190918
1781788071389505000,47.59550512695313,-2.3795082569122314,-1.7701549530029297,-4.840579032897949
1781788071438032600,47.64403271484375,-0.6499960422515869,0.8613014221191406,-5.407264709472656
1781788071486560500,47.692560546875,-2.825230121612549,-6.988011360168457,1.5405771732330322
1781788071535088400,47.74108837890625,0.6044638156890869,1.8779067993164062,-1.5845470428466797
1781788071583616300,47.7896162109375,0.570688009262085,5.752124786376953,-2.893357038497925
1781788071632144100,47.83814404296875,0.712437629699707,4.303358554840088,-1.735743761062622
1781788071680672000,47.88667211914063,0.6650868654251099,0.09203529357910156,0.9606031179428101
1781788071729199900,47.935199951171874,2.5109670162200928,-0.7823076248168945,2.3215630054473877
1781788071777727700,47.98372778320312,5.55676794052124,1.740262508392334,-0.6259387731552124
1781788071826255600,48.03225561523438,5.123378753662109,-4.560484886169434,-0.8551768660545349
1781788071874783500,48.080783447265624,-0.5040798187255859,2.592393398284912,3.55783748626709
1781788071923311000,48.12931103515625,-2.425541877746582,-0.6291084289550781,0.9842908382415771
1781788071971839000,48.1778388671875,-5.328649520874023,-10.617755889892578,-3.4837119579315186
1781788072020366600,48.22636669921875,-4.14827823638916,-1.8933496475219727,1.3584357500076294
1781788072068894500,48.27489453125,-0.17556774616241455,4.240365028381348,3.0321435928344727
1781788072117422300,48.32342236328125,-0.5252633094787598,4.8836140632629395,-2.9272515773773193
1781788072165950200,48.3719501953125,-0.4191014766693115,5.557445049285889,-4.093526840209961
1781788072214478000,48.42047802734375,1.7657296657562256,4.99909782409668,-1.4344382286071777
1781788072263005700,48.46900561523437,2.3388495445251465,-0.09313488006591797,3.8348002433776855
1781788072311533600,48.51753344726563,2.4660849571228027,-9.528056144714355,4.675299167633057
1781788072360061400,48.5660615234375,-2.291910409927368,-4.068643569946289,-1.0917161703109741
1781788072408589300,48.61458935546875,-2.495398998260498,0.9461202621459961,-6.408594608306885
1781788072457117000,48.66311694335938,-1.3641765117645264,-5.228902816772461,-0.13766443729400635
1781788072554172700,48.76017260742187,1.3418805599212646,4.156256198883057,-2.747101068496704
1781788072602700500,48.808700439453126,1.0698004961013794,5.485438346862793,-2.1297197341918945
1781788072651228400,48.857228515625,0.7780857086181641,1.536849021911621,-0.13962799310684204
1781788072699756300,48.90575634765625,2.626413106918335,-0.10478019714355469,1.5521094799041748
1781788072748284200,48.9542841796875,5.135262489318848,1.3095569610595703,0.6822435855865479
1781788072796811800,49.00281176757812,4.855597019195557,-3.511995315551758,-0.5848660469055176
1781788072845339400,49.05133935546875,0.8855761885643005,1.7113170623779297,2.8557682037353516
1781788072893867300,49.0998671875,-2.947024345397949,0.4551677703857422,2.1779541969299316
1781788072942395100,49.14839501953125,-5.6395463943481445,-11.126440048217773,-3.285430431365967
1781788072990923000,49.19692309570313,-4.579134941101074,-3.257040023803711,2.5167057514190674
1781788073039451000,49.245450927734375,-0.6028640270233154,3.7862257957458496,3.365166425704956
1781788073087978800,49.29397875976562,-0.5106354355812073,4.774415493011475,-3.157543897628784
1781788073136506400,49.34250634765625,-0.8030606508255005,5.610343933105469,-4.2088775634765625
1781788073185034200,49.3910341796875,1.0477921962738037,5.144464015960693,-1.310344934463501
1781788073233562000,49.43956201171875,2.4953150749206543,-0.09500789642333984,4.339595317840576
1781788073282090000,49.488090087890626,1.550739049911499,-10.003000259399414,4.991315841674805
1781788073330617900,49.53661791992187,-1.9509642124176025,-3.669684410095215,-1.2156171798706055
1781788073379145700,49.58514575195313,-2.1016035079956055,1.4627981185913086,-6.128913402557373
1781788073427673300,49.63367333984375,-2.1814815998077393,-6.620451927185059,0.5837626457214355
1781788073476201200,49.682201171875,-0.46438929438591003,0.008048057556152344,-1.3047358989715576
1781788073524728800,49.730728759765626,1.5033615827560425,4.395187854766846,-3.0136232376098633
1781788073573256700,49.77925659179687,1.149025559425354,5.207385063171387,-2.1975855827331543
1781788073621784600,49.82778466796875,0.972011923789978,0.7467880249023438,0.19938552379608154
1781788073670312400,49.8763125,1.2319331169128418,-0.92962646484375,1.271065354347229
1781788073718840000,49.92484008789062,5.472672939300537,1.965561866760254,0.27800309658050537
1781788073767368000,49.97336791992188,5.615048408508301,-2.8992061614990234,-0.09891903400421143
1781788073815895600,50.0218955078125,2.885648012161255,0.5576333999633789,2.7416393756866455
1781788073864423400,50.07042333984375,-2.7267584800720215,2.42934513092041,2.371288776397705
1781788073912951300,50.118951416015626,-4.233761310577393,-8.65162467956543,-2.309814929962158
1781788073961479200,50.167479248046874,-5.584783554077148,-6.326704978942871,-0.4947819709777832
1781788074010006800,50.2160068359375,-0.03589165210723877,3.2429895401000977,3.532485246658325
1781788074107062500,50.3130625,-0.5239851474761963,4.895285129547119,-4.318535804748535
1781788074155590400,50.36159033203125,0.7661148309707642,5.518094062805176,-2.6111974716186523
1781788074204118300,50.4101181640625,3.115386486053467,2.077208995819092,3.3587074279785156
1781788074252646000,50.45864599609375,2.199673891067505,-10.721720695495605,4.629375457763672
1781788074301173800,50.507173828125,-1.5193698406219482,-3.301919937133789,-1.1501164436340332
1781788074349701600,50.55570166015625,-2.7363643646240234,0.973027229309082,-6.310342788696289
1781788074398229500,50.6042294921875,-1.3235304355621338,-7.2988996505737305,0.8300793170928955
1781788074446757000,50.652757080078125,-0.9106233716011047,-0.9193916320800781,-0.7913565635681152
1781788074495284700,50.70128466796875,1.206103801727295,3.8293094635009766,-3.6353118419647217
1781788074543812600,50.7498125,1.1423434019088745,5.8929314613342285,-2.3979291915893555
1781788074592340500,50.798340576171874,0.29758355021476746,1.486480712890625,-0.12031710147857666
1781788074640868000,50.8468681640625,2.049727439880371,-0.6885519027709961,1.429753303527832
1781788074689396000,50.89539599609375,5.441163539886475,0.9065408706665039,0.7756657600402832
1781788074737923800,50.943923828125,4.717065334320068,-3.1225452423095703,-0.14857053756713867
1781788074786451700,50.99245166015625,2.587066411972046,1.4159002304077148,2.1007275581359863
1781788074834979300,51.040979248046874,-2.341521978378296,2.478203296661377,1.0831053256988525
1781788074883507000,51.0895068359375,-4.3419952392578125,-7.688673973083496,-2.8659353256225586
1781788074932034800,51.138034912109376,-6.187808036804199,-7.407008171081543,0.17448151111602783
1781788074980562700,51.18656274414062,-0.27159053087234497,3.125655174255371,4.496417999267578
1781788075029090600,51.23509057617188,-0.6073226928710938,4.735745906829834,-0.9220602512359619
1781788075077618200,51.2836181640625,-0.7010035514831543,4.944801330566406,-4.288275718688965
1781788075126146000,51.33214599609375,0.8866544961929321,5.877342224121094,-1.9052001237869263
1781788075174674000,51.380673828125,3.0512306690216064,2.9162473678588867,3.3248682022094727
1781788075223201500,51.42920141601562,3.0247561931610107,-9.754531860351562,3.367758274078369
1781788075271729400,51.4777294921875,-2.5610971450805664,-5.226036071777344,-0.40004444122314453
1781788075320257300,51.52625732421875,-2.647660493850708,0.21337604522705078,-5.913219451904297
1781788075368785200,51.57478515625,-1.7192890644073486,-6.037687301635742,-0.26138055324554443
1781788075417312800,51.62331274414063,-0.7082581520080566,-0.4760627746582031,-0.8627881407737732
1781788075465840400,51.67184033203125,1.1566622257232666,3.65762996673584,-3.546804428100586
1781788075514368300,51.7203681640625,0.5406989455223083,4.694148540496826,-3.080881118774414
1781788075562896100,51.768896240234376,0.8873884081840515,0.9122428894042969,-0.15475481748580933
1781788075611423700,51.817423828125,2.3431215286254883,0.059062957763671875,1.9017277956008911
1781788075708479500,51.9144794921875,4.93646240234375,-0.8758525848388672,0.5848953723907471
1781788075757007000,51.96300708007813,2.677764892578125,0.594843864440918,-0.0018985271453857422
1781788075805535000,52.011534912109376,-2.5927672386169434,3.076904773712158,1.4426820278167725
1781788075854062800,52.06006274414062,-4.527858257293701,-9.840889930725098,-1.6979188919067383
1781788075902590500,52.10859057617188,-6.556305885314941,-7.449884414672852,1.231172800064087
1781788075951118300,52.157118408203125,0.5737894773483276,2.634779453277588,5.074275970458984
1781788075999646000,52.20564599609375,-0.41705334186553955,5.323901653289795,-1.5820908546447754
1781788076048173800,52.254173828125,-0.4527859687805176,4.977069854736328,-4.844472408294678
1781788076096701400,52.30270141601562,0.30412518978118896,5.7621588706970215,-3.3024120330810547
1781788076145229300,52.35122924804688,2.754909038543701,3.202885627746582,1.7605745792388916
1781788076193757200,52.399757080078125,3.1629714965820312,-9.134618759155273,4.408982276916504
1781788076242284800,52.44828491210937,-0.4750608801841736,-4.081663131713867,3.230755090713501
1781788076290812700,52.49681274414063,-2.7258572578430176,-0.8733558654785156,-6.615915298461914
1781788076339340500,52.545340576171874,-1.6738697290420532,-5.255474090576172,-0.5030719041824341
1781788076387868200,52.5938681640625,-1.8745360374450684,-2.9591903686523438,-0.2179192304611206
1781788076436395800,52.642395751953124,0.8164344429969788,2.7250776290893555,-4.376093864440918
1781788076484923600,52.69092358398437,1.2488062381744385,5.903406143188477,-3.392670154571533
1781788076533451500,52.739451416015626,0.19374044239521027,1.909719467163086,-0.7431249022483826
1781788076581979100,52.787979248046874,1.4163042306900024,1.3603410720825195,0.8100107908248901
1781788076630507000,52.83650708007813,4.425107002258301,-0.5455846786499023,0.8218953609466553
1781788076679034600,52.88503466796875,5.4601240158081055,-0.9434003829956055,1.1390583515167236
1781788076727562500,52.9335625,4.608949184417725,-0.9601964950561523,2.485614776611328
1781788076776090000,52.982090087890626,-1.4589128494262695,2.605348587036133,1.9940917491912842
1781788076824618000,53.03061791992187,-2.9902775287628174,-4.0008087158203125,-0.9827008247375488
1781788076873145900,53.07914575195313,-7.150268077850342,-10.867461204528809,-2.3988354206085205
1781788076921673700,53.127673828125,-2.1521825790405273,0.7759065628051758,4.463174343109131
1781788076970201000,53.176201171875,-0.9806482791900635,5.401791572570801,1.1913411617279053
1781788077018729000,53.22472900390625,0.09598159790039062,5.653059482574463,-4.829901695251465
1781788077067256800,53.2732568359375,0.23060643672943115,5.373974323272705,-2.9848239421844482
1781788077115784400,53.32178442382813,2.041274070739746,4.142606735229492,1.5010733604431152
1781788077164312300,53.370312255859375,2.3320274353027344,-5.894819259643555,4.579409122467041
1781788077212840000,53.41883984375,-0.14891481399536133,-8.292624473571777,3.992363214492798
1781788077309895700,53.515895751953124,-1.4775192737579346,-5.389218330383301,-2.812228202819824
1781788077358423300,53.56442333984375,-2.4701366424560547,-4.103724479675293,1.1214267015457153
1781788077406951000,53.612950927734374,1.7818965911865234,2.821744441986084,-3.5286741256713867
1781788077455478800,53.66147875976562,1.0623565912246704,5.785890102386475,-3.2890877723693848
1781788077504006400,53.71000634765625,0.39572155475616455,2.632761001586914,-0.9412263035774231
1781788077552534300,53.7585341796875,1.1386868953704834,-0.0453338623046875,0.35421741008758545
1781788077601062000,53.807061767578126,3.820676326751709,0.7048778533935547,1.085719108581543
1781788077698117600,53.90411767578125,4.797327995300293,-1.3783655166625977,2.1198740005493164
1781788077746645200,53.952645263671876,-0.8702326416969299,4.210932731628418,1.8067282438278198
1781788077795173000,54.00117309570312,-2.19818115234375,-3.4262847900390625,0.036109209060668945
1781788077843700700,54.04970068359375,-7.593774795532227,-12.91430950164795,-2.9782729148864746
1781788077892228600,54.098228515625,-1.0113513469696045,0.8178443908691406,3.882201910018921
1781788077940756200,54.14675610351563,-0.8299915790557861,4.9175944328308105,1.159912347793579
1781788077989284000,54.1952841796875,-0.36221253871917725,5.184177875518799,-4.633945465087891
1781788078037811700,54.24381176757812,0.540753960609436,7.261198997497559,-3.9562268257141113
1781788078086339600,54.29233959960938,2.2945332527160645,6.8648271560668945,0.7945274114608765
1781788078134867200,54.3408671875,2.0443639755249023,-10.593398094177246,5.123876571655273
1781788078183395000,54.38939501953125,-0.12844717502593994,-5.689709663391113,3.108565330505371
1781788078231922700,54.437922607421875,-3.333747625350952,-0.8333282470703125,-6.405584335327148
1781788078280450600,54.48645043945312,-1.5718045234680176,-7.3730669021606445,-1.9267687797546387
1781788078328978200,54.53497827148438,-0.9414762854576111,-1.4787588119506836,-0.9963635206222534
1781788078377506000,54.583506103515624,0.32461249828338623,1.658050537109375,-4.001260280609131
1781788078426033700,54.63203369140625,0.8780980110168457,5.733928680419922,-3.0913572311401367
1781788078474561500,54.6805615234375,0.7892981171607971,2.376275062561035,-0.4150359034538269
1781788078523089200,54.72908911132812,0.9815919399261475,1.2923707962036133,1.3806222677230835
1781788078571616800,54.77761669921875,4.7669148445129395,1.0158472061157227,2.4368302822113037
1781788078620144600,54.82614453125,4.8242692947387695,-0.09450149536132812,0.8962705135345459
1781788078668672300,54.87467236328125,4.348641395568848,-3.5406618118286133,0.9076117277145386
1781788078717200100,54.9232001953125,-0.07142418622970581,2.8372697830200195,1.7388639450073242
1781788078814255400,55.02025537109375,-7.542577266693115,-10.829601287841797,-2.880840301513672
1781788078862783000,55.06878295898437,-2.1994473934173584,-0.5241832733154297,3.8924131393432617
1781788078911310800,55.117310791015626,-0.6679680347442627,4.223162651062012,1.8594601154327393
1781788078959838500,55.16583837890625,-0.5666667222976685,4.9328179359436035,-4.084169387817383
1781788079008366300,55.21436645507813,-0.3214992880821228,5.590126991271973,-4.056251049041748
1781788079056894000,55.26289404296875,1.4659501314163208,5.216352462768555,-0.5678424835205078
1781788079105421800,55.311421875,2.4028120040893555,0.03955841064453125,4.487780570983887
1781788079153949400,55.359949462890626,2.056910514831543,-10.543376922607422,4.088116645812988
1781788079202477300,55.40847729492187,-1.9099345207214355,-2.354691505432129,-1.7391760349273682
1781788079251005200,55.45700512695313,-2.333747625350952,2.4163784980773926,-4.308724880218506
1781788079299532800,55.50553271484375,-2.309185266494751,-10.12275218963623,0.2837028503417969
1781788079348060400,55.55406030273438,1.1912001371383667,1.6475677490234375,-1.4520483016967773
1781788079396588300,55.60258837890625,-0.10666975378990173,2.916745185852051,-4.089942455291748
1781788079445116000,55.65111596679687,0.26085710525512695,3.6203598976135254,-2.9101054668426514
1781788079493643500,55.6996435546875,0.6909734010696411,1.8483600616455078,-0.33710265159606934
1781788079542171100,55.74817114257812,1.395124912261963,1.8828167915344238,0.22085309028625488
1781788079590699000,55.79669897460938,5.0341033935546875,1.2170295715332031,1.3588807582855225
1781788079639226600,55.8452265625,6.14061975479126,-3.4458980560302734,1.4594968557357788
1781788079687754500,55.89375439453125,2.9841604232788086,1.2698183059692383,1.6105310916900635
1781788079736282000,55.9422822265625,-1.5287013053894043,2.560342788696289,1.6551858186721802
1781788079784810000,55.99081005859375,-5.093423366546631,-10.034794807434082,-1.9056048393249512
1781788079833337600,56.03933764648438,-7.390658378601074,-8.34134292602539,0.528984785079956
1781788079881865200,56.087865234375,0.06075882911682129,2.666879653930664,2.7997586727142334
1781788079930393000,56.13639306640625,-0.9015389680862427,4.873923301696777,-2.5441665649414062
1781788079978920700,56.184920654296874,-0.5107504725456238,6.545471668243408,-3.6582534313201904
1781788080027448600,56.23344848632812,0.9165487289428711,6.860086441040039,-1.9416115283966064
1781788080075976200,56.28197607421875,2.969135046005249,3.7031636238098145,2.9302306175231934
1781788080124503800,56.33050390625,0.17669272422790527,-10.731801986694336,5.910234451293945
1781788080173031700,56.37903173828125,0.9859586954116821,-2.7949142456054688,3.1367814540863037
1781788080221559300,56.427559326171874,-2.724486827850342,-0.8390789031982422,-6.383416175842285
1781788080270087000,56.4760869140625,0.010016083717346191,-3.5545568466186523,-3.762136936187744
1781788080318614800,56.52461474609375,-3.696932792663574,-5.465629577636719,2.053238868713379
1781788080367142400,56.57314233398437,1.483679175376892,1.192305564880371,-2.7764105796813965
1781788080464198000,56.67019799804687,0.6664530038833618,2.894062042236328,-2.1313650608062744
1781788080512725500,56.7187255859375,0.23258736729621887,1.4748106002807617,0.1711055040359497
1781788080561253000,56.767253173828124,1.83939528465271,1.3373584747314453,1.0615947246551514
1781788080609781000,56.81578100585938,4.734241008758545,0.8052511215209961,-0.4077218770980835
1781788080658308600,56.86430859375,5.590008735656738,-5.5568437576293945,1.8763216733932495
1781788080706836200,56.91283618164063,-0.5572777986526489,0.17931556701660156,5.212277412414551
1781788080755364000,56.961364013671876,-0.5260006785392761,-0.7411127090454102,-1.1075557470321655
1781788080803891700,57.0098916015625,-5.7977423667907715,-7.751133918762207,-2.9340262413024902
1781788080852419300,57.05841943359375,-4.955305576324463,-1.5402488708496094,0.5492734909057617
1781788080900947000,57.10694702148437,-1.0018298625946045,2.7272744178771973,0.412095308303833
1781788080949474800,57.15547485351563,-0.1743335723876953,5.346594333648682,-3.2386465072631836
1781788080998002400,57.20400244140625,-0.3323044776916504,5.304526329040527,-2.7796261310577393
1781788081046530300,57.2525302734375,1.4787006378173828,5.739678859710693,-1.5330262184143066
1781788081095058000,57.301057861328125,2.383695602416992,3.7625765800476074,2.7237377166748047
1781788081143585500,57.34958544921875,-0.12691402435302734,-12.207268714904785,6.154098987579346
1781788081192113400,57.39811352539063,0.8040108680725098,-2.756826400756836,4.910988807678223
1781788081240641000,57.44664111328125,-1.0123270750045776,0.21831130981445312,-5.375072956085205
1781788081289168600,57.49516870117188,-1.7593283653259277,1.132859230041504,-5.477945327758789
1781788081337696500,57.543696533203125,-2.7893917560577393,-7.966562271118164,1.8491673469543457
1781788081386224000,57.59222412109375,1.1849119663238525,1.5890369415283203,-2.0001463890075684
1781788081434751700,57.640751708984375,0.7407650947570801,4.54858922958374,-3.004931926727295
1781788081483279600,57.68927954101562,0.7053503394126892,2.9352197647094727,-1.71549391746521
1781788081531807200,57.73780712890625,0.8687545657157898,1.656205177307129,0.33813607692718506
1781788081580334800,57.7863349609375,1.77816641330719,0.24985027313232422,1.8224480152130127
1781788081628862700,57.83486279296875,4.564959526062012,0.7432270050048828,0.9977107048034668
1781788081677390000,57.88339013671875,5.155494689941406,-4.709963798522949,-1.4184396266937256
1781788081725917700,57.93191772460938,4.895692825317383,1.6973190307617188,2.11507511138916
1781788081774445600,57.980445556640625,-1.5440669059753418,4.346948623657227,2.191281318664551
1781788081822973200,58.02897314453125,-2.7391018867492676,-4.64068603515625,-0.7656883597373962
1781788081871500800,58.077500732421875,-6.5259246826171875,-10.513581275939941,-3.120142936706543
1781788081968556300,58.17455639648438,-1.9898624420166016,4.202066898345947,0.22325992584228516
1781788082017084200,58.223084228515624,-0.24694013595581055,4.546607971191406,-4.753484725952148
1781788082065611800,58.27161181640625,0.4057510495185852,5.9009928703308105,-3.496274948120117
1781788082114139400,58.320139404296874,1.5470486879348755,5.921957969665527,-0.0801856517791748
1781788082162667000,58.3686669921875,2.549330472946167,-4.171383857727051,4.514798164367676
1781788082211195000,58.41719482421875,1.940266728401184,-8.945523262023926,4.368964195251465
1781788082259722500,58.46572241210937,-2.2035577297210693,-2.844095230102539,-2.7124545574188232
1781788082308250000,58.51425,-2.0277631282806396,-1.4980535507202148,-4.938630104064941
1781788082356777700,58.56277783203125,-2.8745532035827637,-6.6625471115112305,0.11662673950195312
1781788082405305300,58.61130541992188,1.212913155555725,1.155318260192871,-2.126368999481201
1781788082453833000,58.6598330078125,0.6358486413955688,4.637940883636475,-2.6543221473693848
1781788082502360800,58.70836083984375,0.3594128489494324,4.114958763122559,-1.5339374542236328
1781788082550888400,58.756888427734374,1.0705986022949219,1.6057615280151367,0.9130918979644775
1781788082599416000,58.805416015625,2.044929027557373,0.026273727416992188,2.2818069458007812
1781788082647943700,58.853943603515624,4.221484184265137,1.048304557800293,0.33704519271850586
1781788082696471600,58.90247143554687,5.489805698394775,-5.217433929443359,-1.129574179649353
1781788082744999200,58.950999267578126,1.7917790412902832,0.6597070693969727,2.403264045715332
1781788082793526800,58.99952685546875,-1.6565358638763428,3.8918514251708984,1.4520100355148315
1781788082842054400,59.048054443359376,-3.6596338748931885,-6.127821922302246,-2.363673686981201
1781788082890582300,59.096582275390624,-7.422708511352539,-8.563141822814941,-1.3634380102157593
1781788082939109600,59.14510961914063,-0.7181264758110046,1.5751409530639648,3.7016265392303467
1781788082987637500,59.193637451171874,-1.1527957916259766,3.993412971496582,-0.4620184898376465
1781788083036165000,59.2421650390625,-0.37861549854278564,5.673913478851318,-4.310492515563965
1781788083084692700,59.290692626953124,0.628696084022522,7.043746471405029,-2.924137592315674
1781788083133220400,59.33922045898437,2.520141124725342,4.344645977020264,1.9207191467285156
1781788083181748200,59.387748291015626,1.3466635942459106,-9.071284294128418,5.8971357345581055
1781788083230276000,59.43627612304687,1.3393783569335938,-5.738770484924316,4.423037528991699
1781788083278803500,59.484803466796876,-2.884209632873535,-1.4284191131591797,-4.838936805725098
1781788083327331000,59.5333310546875,-1.3287885189056396,1.4238090515136719,-5.333561420440674
1781788083375859000,59.58185888671875,-2.6377105712890625,-7.215075492858887,2.7336058616638184
1781788083424386600,59.630386474609374,0.12102040648460388,0.7706661224365234,-1.558245301246643
1781788083472914200,59.6789140625,1.2918775081634521,4.866239547729492,-3.6747913360595703
1781788083569969400,59.77596948242188,0.5860267877578735,1.1756553649902344,1.3044809103012085
1781788083618497000,59.8244970703125,2.7061400413513184,0.634368896484375,2.2523574829101562
1781788083667024600,59.87302465820313,4.953498363494873,1.474966049194336,1.3438161611557007
1781788083715552300,59.92155224609375,3.721362590789795,-5.944944381713867,0.3645937442779541
1781788083764080000,59.970080078125,1.0367414951324463,1.166635513305664,1.7259869575500488
1781788083812607700,60.018607666015626,-0.3638034164905548,1.9547233581542969,1.2333089113235474
1781788083861135400,60.06713525390625,-5.354357719421387,-8.622931480407715,-2.2834291458129883
1781788083909663000,60.1156630859375,-6.261743068695068,-4.46958065032959,-0.1912914514541626
1781788083958190600,60.164190673828124,-0.1308441162109375,3.1791701316833496,1.8961501121520996
1781788084006718500,60.21271850585938,-1.5030663013458252,5.045015811920166,-1.5168319940567017
1781788084055246000,60.26124609375,-0.508203387260437,6.156414985656738,-3.008906602859497
1781788084103773700,60.30977368164063,1.7972503900527954,6.272185325622559,-0.905215859413147
1781788084152301300,60.35830126953125,3.0025634765625,1.7611336708068848,4.922754764556885
1781788084200829000,60.40682885742188,-0.24960124492645264,-13.100423812866211,5.281879425048828
1781788084249356500,60.4553564453125,-0.7153944969177246,-4.085799217224121,-1.624432921409607
1781788084297884200,60.50388427734375,-2.4657442569732666,2.3109006881713867,-5.705997467041016
1781788084346412000,60.552412109375,-2.233952045440674,-8.438544273376465,-0.3608287572860718
1781788084394939600,60.60093969726562,0.060309410095214844,1.4019689559936523,-0.9437159299850464
1781788084443467300,60.64946728515625,1.2004668712615967,4.767968654632568,-2.7059288024902344
1781788084491995000,60.69799487304687,0.8671459555625916,4.864921569824219,-1.8574047088623047
1781788084540522500,60.7465224609375,0.6850365400314331,1.1065235137939453,0.8087731599807739
1781788084589050000,60.795050048828124,2.3318850994110107,-0.22261905670166016,1.9069730043411255
1781788084637577700,60.84357763671875,3.5301504135131836,1.0384531021118164,0.6344552040100098
1781788084686105300,60.892105224609374,5.810433387756348,-3.9192123413085938,-1.0828593969345093
1781788084734633000,60.94063305664063,3.1879334449768066,-0.24163246154785156,1.8904632329940796
1781788084783160800,60.989160888671876,-1.1395714282989502,3.842656135559082,2.555717945098877
1781788084831688200,61.03768823242188,-3.1179251670837402,-6.330204010009766,-1.4164960384368896
1781788084880215800,61.0862158203125,-6.828837871551514,-8.480238914489746,-2.375460624694824
1781788084928743400,61.13474340820313,-0.9358335137367249,1.516890525817871,3.510648488998413
1781788084977271000,61.18327099609375,-1.4306674003601074,4.8286261558532715,-0.15479373931884766
1781788085074326800,61.28032690429688,0.7389261722564697,6.351833343505859,-3.349864959716797
1781788085122854100,61.32885424804687,2.0582587718963623,4.495373725891113,1.3168587684631348
1781788085171381800,61.3773818359375,2.0377602577209473,-9.142643928527832,5.165785789489746
1781788085219909400,61.425909423828124,0.31954824924468994,-7.780011177062988,3.371978998184204
1781788085268437200,61.47443725585938,-1.7339707612991333,0.45819950103759766,-5.193149566650391
1781788085316964900,61.52296484375,-1.7177212238311768,-2.3277149200439453,-3.734440565109253
1781788085365492500,61.57149243164063,-2.073577880859375,-4.377286911010742,1.9696681499481201
1781788085414020000,61.62002001953125,0.9534910321235657,2.649704933166504,-2.5913376808166504
1781788085462547500,61.66854736328125,1.0156331062316895,5.337872505187988,-2.6608595848083496
1781788085511075300,61.717075439453126,0.8892350196838379,3.008666515350342,-0.7727444171905518
1781788085559603000,61.76560302734375,0.8974504470825195,-0.05436229705810547,1.1135081052780151
