time,seconds_elapsed,z,y,x
1781788023912075500,0.118075439453125,0.01626427471637726,0.03176496922969818,-0.1101083755493164
1781788023960604000,0.16660400390625,-0.008552107028663158,0.21265730261802673,0.043829549103975296
1781788024009132300,0.21513232421875,0.00603228947147727,0.0703258067369461,0.07719803601503372
1781788024057660700,0.26366064453125,0.030314164236187935,0.048792824149131775,0.07612902671098709
1781788024106189000,0.31218896484375,0.05413788929581642,0.007941242307424545,0.09674570709466934
1781788024154717400,0.360717529296875,0.05024362727999687,0.045967575162649155,0.2589302957057953
1781788024203245800,0.409245849609375,-0.1182023361325264,0.08231402933597565,0.1534034162759781
1781788024251774200,0.457774169921875,-0.2652680277824402,0.14973822236061096,-0.14225514233112335
1781788024300302600,0.506302490234375,-0.5570323467254639,0.07521272450685501,-0.5312232971191406
1781788024348831000,0.5548310546875,-0.5995637774467468,-0.24953825771808624,-0.8258891701698303
1781788024397359600,0.603359619140625,-0.07994692772626877,-0.20456334948539734,-0.6592758297920227
1781788024445888000,0.651887939453125,0.03993528336286545,-0.058566659688949585,-0.036422811448574066
1781788024494416400,0.70041650390625,0.12767073512077332,-0.2885572612285614,0.05169443041086197
1781788024542944800,0.74894482421875,0.20883940160274506,-0.3695732057094574,0.07383827865123749
1781788024591473200,0.79747314453125,0.18577924370765686,-0.4535670876502991,0.05062541738152504
1781788024640001500,0.84600146484375,0.02260199747979641,-0.38041603565216064,0.17799071967601776
1781788024737058300,0.943058349609375,-0.09430225193500519,0.013439024798572063,-0.457843154668808
1781788024785586700,0.991586669921875,0.04741837829351425,0.1115591824054718,-0.3468948304653168
1781788024834115000,1.040114990234375,-0.2173915058374405,-0.651639997959137,0.32039856910705566
1781788024882643500,1.0886435546875,-0.09521854668855667,-0.3908770978450775,0.16241367161273956
1781788024931171800,1.137171875,0.06711876392364502,-0.10758855938911438,-0.036422811448574066
1781788024979700200,1.1857001953125,0.0027488914784044027,-0.19356778264045715,0.09460768103599548
1781788025028228600,1.234228515625,0.034895651042461395,-0.1343138962984085,0.11117739230394363
1781788025076757000,1.282757080078125,0.05955931544303894,-0.025961752980947495,-0.032070402055978775
1781788025125285400,1.331285400390625,0.059864748269319534,-0.18463388085365295,0.06940951198339462
1781788025173813800,1.379813720703125,0.0423787422478199,-0.09338594973087311,-0.04192059487104416
1781788025222342100,1.428342041015625,-0.03275762498378754,-0.1862373948097229,0.04886918142437935
1781788025270870500,1.47687060546875,-0.16050471365451813,-0.04130972921848297,0.14347685873508453
1781788025319399000,1.52539892578125,-0.23976442217826843,0.05322159454226494,0.0709366723895073
1781788025367927300,1.57392724609375,-0.36109745502471924,0.0021380267571657896,0.22159120440483093
1781788025416455700,1.62245556640625,-0.3730856776237488,-0.26015204191207886,0.3041343092918396
1781788025464984000,1.670984130859375,-0.09048434346914291,0.10430516302585602,-0.14882193505764008
1781788025513512400,1.719512451171875,-0.4421897530555725,0.3249036967754364,-0.48357582092285156
1781788025562040800,1.768040771484375,-0.5400044918060303,-0.27542364597320557,-0.0616973415017128
1781788025610569200,1.8165693359375,0.4162279963493347,-0.6788998246192932,0.18570289015769958
1781788025659097600,1.86509765625,0.022067490965127945,-1.4979168176651,0.2067013680934906
1781788025707626000,1.9136259765625,-0.013362666592001915,-2.5694499015808105,-0.019929463043808937
1781788025756154400,1.962154296875,0.794124186038971,-3.0487496852874756,0.02764163166284561
1781788025804682800,2.010682861328125,1.3136646747589111,-3.5899758338928223,0.800385594367981
1781788025853211100,2.059211181640625,0.38385215401649475,-2.270508050918579,-0.287106454372406
1781788025901739500,2.107739501953125,0.7325032353401184,-0.07689260691404343,-2.233703374862671
1781788025950268000,2.156267822265625,-0.35010188817977905,0.6436987519264221,-2.9684975147247314
1781788025998796000,2.204796142578125,-1.0083850622177124,1.004643440246582,-1.7021746635437012
1781788026047324700,2.25332470703125,-0.8210785984992981,0.761366605758667,-1.2771655321121216
1781788026095852800,2.301852783203125,-0.76991868019104,0.5051851868629456,-1.2632683515548706
1781788026144381200,2.350381103515625,-0.08170316368341446,-0.17883066833019257,-1.0929133892059326
1781788026192909800,2.398909912109375,-0.010155626572668552,-0.258853942155838,-0.798323929309845
1781788026241438000,2.44743798828125,-0.12415826320648193,0.4203513264656067,-0.39713847637176514
1781788026289966600,2.495966552734375,-0.1404225379228592,1.2972477674484253,0.41531169414520264
1781788026338494700,2.54449462890625,-0.4670824706554413,1.5251766443252563,0.9999092817306519
1781788026387023000,2.593023193359375,-0.776103675365448,1.7470732927322388,1.0964258909225464
1781788026435551500,2.641551513671875,-0.18089233338832855,0.8918625712394714,1.2472331523895264
1781788026484079900,2.690079833984375,0.07887791097164154,0.20945025980472565,0.931950569152832
1781788026532608300,2.738608154296875,0.23854269087314606,-0.10178534686565399,0.5145008563995361
1781788026581136600,2.78713671875,0.041004300117492676,0.12988512217998505,0.16035200655460358
1781788026629665000,2.8356650390625,0.059635672718286514,0.38324129581451416,-0.033979352563619614
1781788026678193400,2.884193359375,0.03138317912817001,0.20662501454353333,-0.16310089826583862
1781788026726721800,2.9327216796875,-0.04696023091673851,0.08468113094568253,-0.06589704006910324
1781788026775250000,2.98125,-0.04459312930703163,0.095982126891613,-0.08643736690282822
1781788026823778600,3.029778564453125,-0.03543015569448471,0.10125083476305008,0.0011453714687377214
1781788026872306700,3.078306640625,-0.06375901401042938,0.1744018942117691,0.06986765563488007
1781788026920835000,3.1268349609375,0.03413207083940506,0.24602578580379486,0.2612210512161255
1781788026969363500,3.175363525390625,0.04428769648075104,0.1297324001789093,0.22655446827411652
1781788027017891800,3.223891845703125,0.09506583213806152,0.09132428467273712,0.02977965772151947
1781788027066420200,3.272420166015625,0.010537417605519295,0.0524580143392086,-0.08284853398799896
1781788027114948600,3.320948486328125,-0.005039634648710489,-0.03283398225903511,0.04833467677235603
1781788027163477000,3.36947705078125,0.015806125476956367,0.01107192412018776,-0.05451968312263489
1781788027212005000,3.418005126953125,0.020540328696370125,0.006719512399286032,0.025579962879419327
1781788027260533800,3.46653369140625,0.027259841561317444,0.00847574882209301,-0.03214675933122635
1781788027309062000,3.515061767578125,0.04069886729121208,0.09834922850131989,-0.05627591907978058
1781788027357590300,3.56359033203125,0.012446369975805283,0.009010255336761475,0.05978839099407196
1781788027454647000,3.66064697265625,0.020922118797898293,0.00679587060585618,0.004963276442140341
1781788027503175400,3.709175537109375,0.0032070400193333626,-0.0019089524867013097,-0.0371863916516304
1781788027551703800,3.757703857421875,0.003741546766832471,0.0639880821108818,-0.04520399495959282
1781788027600232200,3.806232177734375,-0.013362666592001915,0.02214384824037552,-0.004963276442140341
1781788027648760300,3.85476025390625,-0.008552107028663158,0.02328922040760517,0.003283398225903511
1781788027697288700,3.903288818359375,-0.012751801870763302,0.026648975908756256,0.016035201027989388
1781788027745817000,3.951817138671875,-0.021914774551987648,0.04253146052360535,0.005650499369949102
1781788027794345500,4.000345458984375,-0.012751801870763302,0.01626427471637726,-0.0009162971982732415
1781788027842873900,4.048873779296875,-0.04535670951008797,-0.028405211865901947,0.0009162971982732415
1781788027891402200,4.09740234375,0.012522728182375431,0.02756527252495289,-0.034895651042461395
1781788027939930600,4.1459306640625,0.007941242307424545,-0.013057234697043896,-0.03504836559295654
1781788027988458800,4.194458740234375,0.020769402384757996,-0.047723811119794846,-0.01565340906381607
1781788028036987100,4.242987060546875,0.016340631991624832,0.016875140368938446,-0.04657844081521034
1781788028085515500,4.291515625,0.019013166427612305,-0.058566659688949585,0.015958841890096664
1781788028134044000,4.3400439453125,0.05635227635502815,0.01779143698513508,-0.003512472379952669
1781788028182572300,4.388572265625,0.006337722297757864,-0.03260490670800209,0.017333287745714188
1781788028231100400,4.437100341796875,0.008323032408952713,-0.03130681812763214,0.03581194952130318
1781788028279628800,4.48562890625,0.003970621153712273,-0.09117157012224197,0.03909534588456154
1781788028328157200,4.5341572265625,-0.03168861195445061,-0.35269805788993835,0.2086866796016693
1781788028376685600,4.582685546875,-0.028328854590654373,-0.5086976289749146,0.2611446976661682
1781788028425214000,4.6312138671875,-0.040546149015426636,-0.8245911002159119,0.29504770040512085
1781788028473742000,4.6797421875,0.007101302966475487,-0.6029998660087585,0.13439024984836578
1781788028522270500,4.7282705078125,-0.018860450014472008,-0.1089630052447319,-0.022983787581324577
1781788028570798800,4.776798828125,-0.021380268037319183,0.12034036219120026,-0.12499820441007614
1781788028619327200,4.8253271484375,-0.03306305781006813,0.03000873140990734,-0.07544180005788803
1781788028667855600,4.873855712890625,-0.040088001638650894,0.057955797761678696,-0.06963858753442764
1781788028716384000,4.922384033203125,-0.04390590637922287,0.012675444595515728,-0.04810560122132301
1781788028764912400,4.970912353515625,-0.04344775900244713,0.04711294546723366,-0.05047270283102989
1781788028813440500,5.0194404296875,0.0012980876490473747,0.029703300446271896,-0.06788235157728195
1781788028861969000,5.067968994140625,0.016035201027989388,-0.005345067009329796,-0.047723811119794846
1781788028910497300,5.116497314453125,0.04482220485806465,0.03451386094093323,-0.09094249457120895
1781788028959025400,5.165025390625,0.017486004158854485,0.026648975908756256,-0.08231402933597565
1781788029007553800,5.2135537109375,0.017027854919433594,0.05459604039788246,-0.031001387163996696
1781788029056082200,5.262082275390625,0.02237292192876339,0.029397867619991302,-0.015958841890096664
1781788029104610600,5.310610595703125,0.009850194677710533,0.04833467677235603,0.0034361144062131643
1781788029153139000,5.359138916015625,0.002825249684974551,0.06612611562013626,-0.013897174037992954
1781788029201667000,5.4076669921875,-0.010537417605519295,0.04069886729121208,-0.008399390615522861
1781788029250195500,5.456195556640625,-0.0035888305865228176,0.03306305781006813,-0.0077121676877141
1781788029298723800,5.504723876953125,0.009773836471140385,0.03130681812763214,-0.019624030217528343
1781788029347252200,5.553252197265625,0.012293653562664986,0.04482220485806465,-0.06047561392188072
1781788029395780400,5.6017802734375,0.030161447823047638,0.03825540840625763,0.012675444595515728
1781788029444308700,5.650308837890625,0.006490438245236874,-0.01259908638894558,-0.004123337101191282
1781788029492837000,5.698837158203125,-0.0031306820455938578,0.03940077871084213,-0.048792824149131775
1781788029541365500,5.747365478515625,-0.02611446939408779,-0.0001527161948615685,-0.0066431546583771706
1781788029589893600,5.7958935546875,-0.016569707542657852,-0.0035888305865228176,-0.02756527252495289
1781788029638422000,5.844422119140625,-0.020158538594841957,-0.1438586562871933,-0.07979421317577362
1781788029735478800,5.941478759765625,0.16821688413619995,-0.1611155867576599,0.22250749170780182
1781788029784007200,5.990007080078125,0.030466880649328232,-1.6097050905227661,0.9415717124938965
1781788029832535600,6.03853564453125,-0.7909935116767883,-5.067505359649658,1.6035964488983154
1781788029881063700,6.087063720703125,0.7470875978469849,-5.200597286224365,1.2902227640151978
1781788029929592000,6.135592041015625,1.378645420074463,-1.9268202781677246,-0.821384072303772
1781788029978120400,6.184120361328125,0.3775908052921295,0.7796161770820618,-1.2954151630401611
1781788030026648600,6.232648681640625,0.17172935605049133,0.9498183727264404,-0.9259946346282959
1781788030075177000,6.281177001953125,-0.1233946830034256,0.544967770576477,-0.3571268320083618
1781788030123705300,6.329705322265625,-0.448527455329895,0.26450446248054504,-0.22869250178337097
1781788030172233700,6.378233642578125,-0.2887863218784332,-0.09346231073141098,-0.7529671788215637
1781788030220762000,6.42676220703125,0.6500364542007446,-1.0174716711044312,-0.7556397318840027
1781788030269290200,6.475290283203125,1.092531681060791,-1.6126830577850342,-0.38186684250831604
1781788030317818600,6.523818603515625,0.8053488731384277,-1.2046253681182861,-0.36506807804107666
1781788030366347000,6.572346923828125,0.5800924897193909,-0.6911171674728394,-0.5687150955200195
1781788030414875100,6.620875244140625,0.030314164236187935,-0.6779071688652039,-0.34002259373664856
1781788030463403500,6.669403564453125,-0.7322741746902466,-0.7200568318367004,-0.11659881472587585
1781788030511932000,6.717931884765625,-0.9343177080154419,-0.1908188909292221,0.0011453714687377214
1781788030560460000,6.7664599609375,-0.487546443939209,-0.6371319890022278,0.24281874299049377
1781788030608988400,6.814988525390625,-0.14576761424541473,-0.4515054225921631,0.18616104125976562
1781788030657516800,6.863516845703125,-0.17348559200763702,-0.28237223625183105,0.42936158180236816
1781788030706045000,6.912044921875,-0.2981020212173462,-0.20853395760059357,0.39194610714912415
1781788030754573300,6.9605732421875,-0.11003202199935913,-0.22838707268238068,0.37438374757766724
1781788030803101700,7.009101806640625,-0.47731447219848633,0.14599667489528656,0.34093889594078064
1781788030851630000,7.057630126953125,-0.6810378432273865,-0.5794816017150879,0.1856265366077423
1781788030900158200,7.106158203125,-0.5040398240089417,-0.674700140953064,0.44585493206977844
1781788030948686600,7.1546865234375,-0.2834412455558777,0.16073378920555115,-0.2554178237915039
1781788030997215000,7.203215087890625,0.16966769099235535,-0.48586657643318176,0.2543488144874573
1781788031045743400,7.251743408203125,0.3630063831806183,0.3488801419734955,0.8217658400535583
1781788031094271500,7.300271484375,0.32910341024398804,0.6507236957550049,0.00847574882209301
1781788031142800000,7.3487998046875,0.19624030590057373,0.4745655655860901,0.06841685622930527
1781788031191328300,7.397328369140625,0.13561198115348816,0.11698060482740402,0.09086613357067108
1781788031239856400,7.4458564453125,0.11461350321769714,0.07651081681251526,0.036804601550102234
1781788031288384800,7.494384765625,0.12499820441007614,0.11896591633558273,0.0642935186624527
1781788031336913200,7.5429130859375,0.05719221383333206,0.10545053333044052,-0.001221729558892548
1781788031385441300,7.591441162109375,0.12835796177387238,0.1302669197320938,-0.049861837178468704
1781788031433969700,7.6399697265625,-0.01824958436191082,-0.003970621153712273,0.12324196845293045
1781788031482498000,7.688498046875,-0.015271619893610477,-0.03779725730419159,0.042073313146829605
1781788031531026200,7.737026123046875,0.07475458085536957,0.11888955533504486,-0.15722131729125977
1781788031579554600,7.785554443359375,0.04169152304530144,-0.08544471114873886,-0.0818558782339096
1781788031628083000,7.8340830078125,-0.08063415437936783,-0.09697478264570236,-0.16195552051067352
1781788031676611000,7.882611083984375,-0.14172062277793884,-0.23587016761302948,-0.23709189891815186
1781788031725139500,7.931139404296875,-0.3811032772064209,-0.4079049527645111,-0.07567087560892105
1781788031773667800,7.979667724609375,-0.12270746380090714,-0.2528216540813446,-0.10850485414266586
1781788031822196000,8.028196044921875,0.29420775175094604,0.4321868419647217,-0.2006690800189972
1781788031870724400,8.076724365234375,0.584826648235321,0.9407317638397217,-0.11713331937789917
1781788031919252700,8.125252685546876,0.38705918192863464,1.145753264427185,0.03627009689807892
1781788032016309200,8.222309326171874,-0.11384992301464081,-0.059024810791015625,0.5168679356575012
1781788032064837600,8.270837646484376,0.3494910001754761,0.2836703360080719,-0.008170315995812416
1781788032113365800,8.31936572265625,0.4883863925933838,0.25900667905807495,-0.1251509189605713
1781788032161894100,8.36789404296875,0.11430807411670685,-0.22288928925991058,0.029397867619991302
1781788032210422300,8.41642236328125,0.18845178186893463,-0.04176788032054901,-0.20708316564559937
1781788032258950700,8.46495068359375,0.35185810923576355,0.14805835485458374,-0.251752644777298
1781788032307479000,8.51347900390625,-0.027488915249705315,0.3119991719722748,0.06108647957444191
1781788032356007200,8.562007080078125,-0.3669770061969757,-0.1441640853881836,0.7455604672431946
1781788032453063700,8.659063720703125,0.04192059487104416,-0.04306596517562866,0.01359174121171236
1781788032501592000,8.707592041015625,0.03940077871084213,-0.030390523374080658,-0.026038112118840218
1781788032550120400,8.756120361328126,0.025503603741526604,-0.1156061589717865,-0.09460768103599548
1781788032598648600,8.804648681640625,0.1380554437637329,0.04001164436340332,0.0031306820455938578
1781788032647177000,8.853177001953124,0.3159697949886322,0.11476621776819229,-0.010537417605519295
1781788032695705300,8.901705322265625,0.3396408259868622,0.1314886510372162,0.23846633732318878
1781788032744233500,8.9502333984375,0.02626718580722809,0.0011453714687377214,0.2528216540813446
1781788032792761900,8.998761962890624,0.10025817900896072,0.18639011681079865,-0.017486004158854485
1781788032841290200,9.047290283203125,0.05810851231217384,0.05971203371882439,0.06719512492418289
1781788032889818400,9.095818359375,0.09964732080698013,0.11117739230394363,-0.12255474925041199
1781788032938346800,9.1443466796875,0.062537282705307,0.07231111824512482,0.07574722915887833
1781788032986875000,9.192875,0.019624030217528343,0.09674570709466934,-0.044669486582279205
1781788033035403300,9.2414033203125,-0.23159411549568176,-0.027107125148177147,0.11720968037843704
1781788033083931400,9.289931396484375,-0.09170607477426529,0.11110103130340576,-0.1692095398902893
1781788033132459800,9.338459716796875,0.000305432389723137,0.2733619809150696,-0.08926261961460114
1781788033180988000,9.38698779296875,-0.06276635825634003,0.11217004805803299,-0.039706211537122726
1781788033229516300,9.435516357421875,0.11499529331922531,0.37087127566337585,-0.18173226714134216
1781788033278044700,9.484044677734374,0.017486004158854485,0.173256516456604,-0.12400554865598679
1781788033326572800,9.53257275390625,0.0639880821108818,0.16386447846889496,-0.1156061589717865
1781788033375101200,9.58110107421875,0.0907897800207138,0.20273074507713318,-0.14683662354946136
1781788033423629300,9.62962939453125,0.07192932814359665,0.17088942229747772,-0.1303432732820511
1781788033472157700,9.67815771484375,0.016646064817905426,0.09750928729772568,-0.09239330142736435
1781788033520685800,9.726685791015624,-0.012980876490473747,-0.004123337101191282,-0.08750637620687485
1781788033569214200,9.775214111328125,-0.01908952370285988,0.010079269297420979,0.03565923124551773
1781788033617742600,9.82374267578125,-0.025809036567807198,0.03672824427485466,0.035124726593494415
1781788033666270700,9.872270751953126,0.04436405375599861,0.1308777779340744,0.07422006875276566
1781788033714799000,9.920799072265625,0.10461059212684631,0.22701261937618256,-0.005421424750238657
1781788033780230700,9.986230712890626,-0.16241367161273956,0.7373901605606079,-0.21838416159152985
1781788033828758800,10.0347587890625,-0.7870992422103882,1.1162790060043335,0.18455752730369568
1781788033877287200,10.083287109375,-1.943084478378296,-0.020311253145337105,1.0849722623825073
1781788033925815300,10.131815185546875,-1.3191624879837036,-2.952233076095581,0.8794925808906555
1781788033974343700,10.18034375,1.7081305980682373,-3.7828564643859863,0.46799877285957336
1781788034022871800,10.228871826171876,2.837390661239624,-3.4705519676208496,0.7738129496574402
1781788034071400200,10.277400146484375,2.7007858753204346,-4.187630653381348,0.5703949928283691
1781788034119928300,10.32592822265625,3.4279441833496094,-3.424736976623535,0.2381609082221985
1781788034168456700,10.374456787109375,4.42945671081543,0.07864884287118912,-1.536859393119812
1781788034216984800,10.42298486328125,3.3285257816314697,1.208672285079956,-2.2468369007110596
1781788034265513200,10.47151318359375,2.110919713973999,2.288757562637329,-1.2609776258468628
1781788034314041300,10.520041259765625,1.5745803117752075,3.266904830932617,-1.1100940704345703
1781788034362569700,10.56856982421875,1.388419270515442,3.674198865890503,-0.22617268562316895
1781788034411098000,10.61709814453125,1.7688353061676025,3.9451937675476074,0.7738129496574402
1781788034459626000,10.6656259765625,0.399887353181839,0.5635991096496582,0.2540434002876282
1781788034508154400,10.714154296875,0.5222130417823792,-0.12866339087486267,-0.2585485279560089
1781788034556682800,10.762682861328125,0.15179990231990814,-0.5864301919937134,0.3124573230743408
1781788034605211000,10.8112109375,-0.42684176564216614,-1.4843250513076782,1.0912336111068726
1781788034653739300,10.8597392578125,0.005574141163378954,-1.4259110689163208,0.33276858925819397
1781788034750795800,10.956795654296876,-0.20456334948539734,1.433699607849121,-0.7890082001686096
1781788034799324200,11.00532421875,0.005268708802759647,0.3969093859195709,0.07544180005788803
1781788034847852300,11.053852294921874,-0.48036879301071167,-1.7452406883239746,1.472413182258606
1781788034896380700,11.102380615234376,-1.261664867401123,-2.6315290927886963,1.5178462266921997
1781788034944908800,11.15090869140625,-2.1264965534210205,-1.6662100553512573,-0.558254063129425
1781788034993437200,11.199437255859374,-1.4804308414459229,-0.1539379209280014,-1.9593487977981567
1781788035041965300,11.24796533203125,0.4790706932544708,0.23335035145282745,-0.7382301092147827
1781788035090493700,11.29649365234375,1.2805253267288208,-0.6920334100723267,0.02390008419752121
1781788035139021800,11.345021728515626,0.6378955245018005,0.30711227655410767,0.4004218578338623
1781788035187550000,11.393550048828125,0.41760244965553284,1.0399209260940552,1.152778148651123
1781788035236078300,11.442078369140624,0.05085449293255806,-1.1039854288101196,1.0316742658615112
1781788035284606500,11.4906064453125,-1.3361903429031372,-3.3878560066223145,0.7793871164321899
1781788035333134800,11.539134765625,-1.4488948583602905,-2.067777395248413,0.44379326701164246
1781788035381663000,11.5876630859375,-0.9139300584793091,-1.0419062376022339,0.31528258323669434
1781788035430191400,11.63619140625,-0.26137375831604004,0.9425643682479858,-0.7410553097724915
1781788035478719500,11.684719482421874,0.7327322959899902,2.673755168914795,-0.3361283540725708
1781788035527248000,11.733247802734375,1.6672027111053467,3.0413429737091064,-0.1934150606393814
1781788035575776000,11.78177587890625,2.3379321098327637,1.1937061548233032,0.3206276595592499
1781788035624304400,11.830304443359376,4.12891149520874,0.6453022956848145,0.8303943276405334
1781788035672832500,11.87883251953125,4.54277229309082,1.1547634601593018,0.5537489056587219
1781788035721361000,11.92736083984375,2.982318162918091,2.439641237258911,0.2776380479335785
1781788035769889000,11.975888916015625,0.7449495792388916,2.2582144737243652,-0.03375028073787689
1781788035818417400,12.02441748046875,1.0961968898773193,1.348254919052124,1.3810888528823853
1781788035866945500,12.072945556640626,0.14088068902492523,0.8024472594261169,-0.010537417605519295
1781788035915474000,12.121473876953125,1.5958842039108276,0.15699224174022675,1.8676427602767944
1781788035964002000,12.170001953125,0.39477136731147766,-0.4544070363044739,-0.6964622139930725
1781788036012530400,12.218530517578126,-0.33284494280815125,-0.032910339534282684,-1.6775110960006714
1781788036061058800,12.267058837890625,-0.822300374507904,-0.13072505593299866,-0.1995237022638321
1781788036109586700,12.315586669921874,-0.09476039558649063,0.4771617650985718,-0.28787001967430115
1781788036158115000,12.364114990234375,0.07788526266813278,0.7387645840644836,-0.21311545372009277
1781788036206643500,12.4126435546875,0.2945895493030548,-0.411722868680954,-0.147905632853508
1781788036255171600,12.461171630859376,0.1556941568851471,-1.1746165752410889,-1.0600031614303589
1781788036303700000,12.509699951171875,-0.3557523787021637,-0.769002377986908,-0.45761406421661377
1781788036400756500,12.606756591796875,-0.3128391206264496,-0.04451677203178406,-1.3379465341567993
1781788036449284600,12.65528466796875,0.004581485874950886,0.36453354358673096,-1.117348074913025
1781788036497813000,12.70381298828125,0.4165334105491638,-0.1406516134738922,-1.1342995166778564
1781788036546341000,12.752341064453125,1.8618395328521729,0.4252382516860962,-1.244484305381775
1781788036594869500,12.800869384765624,1.5727477073669434,-0.046425722539424896,-0.9732602834701538
1781788036643397600,12.849397705078125,0.9744820594787598,-0.10102175921201706,-0.3652207851409912
1781788036691926000,12.897926025390625,-0.704861581325531,0.35208719968795776,0.21952952444553375
1781788036740454100,12.9464541015625,-0.9467640519142151,0.7281508445739746,-0.18173226714134216
1781788036788982300,12.994982177734375,-0.10529781877994537,0.7633519172668457,-0.2493855506181717
1781788036837510700,13.0435107421875,0.08643736690282822,0.823445737361908,-0.15370884537696838
1781788036886038800,13.092038818359375,0.08804088830947876,0.10613775253295898,0.37026041746139526
1781788036934567000,13.14056689453125,0.04024071618914604,0.26702427864074707,0.7652608752250671
1781788036983095300,13.18909521484375,0.60406893491745,0.4156171381473541,-0.6262891292572021
1781788037031623700,13.237623779296875,-0.2513708472251892,0.4221075773239136,-1.5042544603347778
1781788037080151800,13.28615185546875,-0.2680932879447937,0.2329685539007187,-0.7288380265235901
1781788037128680200,13.33468017578125,-0.33421939611434937,0.14828743040561676,0.16149736940860748
1781788037177208300,13.383208251953125,-0.34811657667160034,-0.04848739132285118,-0.20044000446796417
1781788037225736700,13.43173681640625,-0.23220497369766235,-0.09705114364624023,0.05688678100705147
1781788037274264800,13.480264892578125,-0.38957902789115906,0.031841326504945755,0.5429824590682983
1781788037322793200,13.528793212890625,-0.3171151876449585,-0.09644027799367905,0.1700494885444641
1781788037419850800,13.625850830078125,0.08651372790336609,-0.01611155830323696,-0.051618073135614395
1781788037468377900,13.6743779296875,0.028405211865901947,0.09170607477426529,-0.039477135986089706
1781788037516906200,13.72290625,0.10094540566205978,0.0758235901594162,-0.05711585655808449
1781788037565434600,13.7714345703125,-0.02977965772151947,0.04787652567028999,-0.04528035223484039
1781788037613962800,13.819962646484376,-0.03817904740571976,0.02237292192876339,-0.016035201027989388
1781788037662491100,13.8684912109375,0.024816380813717842,-0.008323032408952713,0.013897174037992954
1781788037711019300,13.917019287109374,0.011148282326757908,0.029703300446271896,-0.0651334598660469
1781788037759547600,13.965547607421875,-0.0019089524867013097,0.014889828860759735,-0.049861837178468704
1781788037808075800,14.01407568359375,0.005421424750238657,-0.02542724646627903,-0.023136503994464874
1781788037856604200,14.062604248046876,-0.0057268571108579636,-0.062537282705307,0.17256930470466614
1781788037905132300,14.11113232421875,-0.025350889191031456,0.04627300798892975,0.042684175074100494
1781788037953660700,14.15966064453125,-0.002901607658714056,0.0769689604640007,0.047952886670827866
1781788038002189000,14.20818896484375,-0.009086613543331623,0.04848739132285118,-0.010155626572668552
1781788038050717200,14.25671728515625,-0.05177079141139984,-0.01763872057199478,-0.21090106666088104
1781788038099245600,14.30524560546875,-0.06154462695121765,-0.05253437161445618,-0.05345066636800766
1781788038147773700,14.353773681640625,-0.001679878099821508,-0.020311253145337105,0.09010255336761475
1781788038196302000,14.402302001953124,0.06452259421348572,0.07903063297271729,0.00847574882209301
1781788038293358600,14.499358642578125,-0.2574031352996826,0.44089165329933167,0.40897396206855774
1781788038341887000,14.547886962890624,-0.5903244614601135,0.1539379209280014,0.3582721948623657
1781788038390415000,14.5964150390625,-0.3725511431694031,0.164322629570961,0.022067490965127945
1781788038438943500,14.644943603515625,0.07994692772626877,0.15370884537696838,0.05589412897825241
1781788038487471600,14.6934716796875,0.008933897130191326,0.19387321174144745,-0.07460185885429382
1781788038536000000,14.742,-0.1769980639219284,0.13828451931476593,-0.13614648580551147
1781788038584528100,14.790528076171874,-0.20387612283229828,0.11583523452281952,0.10835213959217072
1781788038633056300,14.83905615234375,-0.007864884100854397,0.012675444595515728,0.15890119969844818
1781788038681584600,14.887584716796875,0.2089921087026596,0.054443322122097015,0.14813470840454102
1781788038730112800,14.93611279296875,0.009926552884280682,0.3262781500816345,-0.26221370697021484
1781788038778641200,14.98464111328125,-0.03222311660647392,0.4753291606903076,-0.09117157012224197
1781788038827169500,15.03316943359375,0.02023489587008953,0.6763036847114563,0.014508038759231567
1781788038875697700,15.08169775390625,-0.03428478538990021,0.7399863004684448,0.003512472379952669
1781788038924226000,15.13022607421875,-0.053985174745321274,0.6461422443389893,-0.01824958436191082
1781788038972754400,15.17875439453125,-0.03413207083940506,0.5206858515739441,-0.05818486958742142
1781788039021282600,15.227282470703125,-0.032910339534282684,0.28756460547447205,-0.07765618711709976
1781788039069811000,15.27581103515625,-0.0029779658652842045,0.03527744114398956,-0.02542724646627903
1781788039118339000,15.324339111328126,0.055741410702466965,-0.15554144978523254,0.057268574833869934
1781788039166867500,15.372867431640625,0.024205517023801804,-0.27175846695899963,0.06772962957620621
1781788039215395600,15.4213955078125,0.016569707542657852,-0.39339691400527954,0.022296564653515816
1781788039263924000,15.469924072265625,0.017027854919433594,-0.3787361681461334,0.09315688163042068
1781788039312452000,15.5184521484375,0.008017600513994694,-0.37033677101135254,0.09185878932476044
1781788039360980500,15.56698046875,0.013744457624852657,-0.37751442193984985,0.028787001967430115
1781788039409508900,15.6155087890625,0.02519817277789116,-0.35758498311042786,-0.0025198173243552446
1781788039458037000,15.664037109375,0.030466880649328232,-0.24495677649974823,0.016416991129517555
1781788039506565400,15.7125654296875,0.026343543082475662,-0.12011128664016724,0.0012980876490473747
1781788039555093500,15.761093505859375,0.05322159454226494,0.02542724646627903,-0.04940368980169296
1781788039603622100,15.8096220703125,0.039477135986089706,0.14049890637397766,-0.09323323518037796
1781788039652150300,15.858150390625,0.01847865991294384,0.18028147518634796,-0.06650790572166443
1781788039700678400,15.906678466796874,-0.01611155830323696,0.1649334877729416,-0.008017600513994694
1781788039749206800,15.955206787109375,-0.03565923124551773,0.11774418503046036,0.041615162044763565
1781788039797735200,16.003735107421875,-0.03634645417332649,0.047036588191986084,0.046654798090457916
1781788039846263300,16.05226318359375,0.000305432389723137,-0.02214384824037552,0.012446369975805283
1781788039943319800,16.14931982421875,0.031841326504945755,-0.07597630470991135,-0.05222893878817558
1781788039991848200,16.19784814453125,0.013515383005142212,-0.09674570709466934,-0.02764163166284561
1781788040040376600,16.24637646484375,0.0009162971982732415,-0.1107192412018776,0.016416991129517555
1781788040088904700,16.29490478515625,-0.014966187067329884,-0.07628174126148224,0.0308486707508564
1781788040137433000,16.34343310546875,-0.0057268571108579636,0.01206457894295454,0.021914774551987648
1781788040185961500,16.39196142578125,0.00038179047987796366,0.02871064469218254,-0.008857538923621178
1781788040234489600,16.440489501953124,0.018860450014472008,-0.01649334840476513,-0.04085158184170723
1781788040283017700,16.489017822265627,0.0449749194085598,-0.11621702462434769,-0.03535379841923714
1781788040331546000,16.537546142578126,0.05100720748305321,-0.19158247113227844,0.0011453714687377214
1781788040380074200,16.58607421875,-0.013057234697043896,-0.13477204740047455,0.03321577236056328
1781788040428602600,16.6346025390625,-0.022449281066656113,-0.016875140368938446,0.0206166859716177
1781788040477130800,16.683130859375,-0.019624030217528343,0.11003202199935913,0.06956222653388977
1781788040525659100,16.7316591796875,-0.015347977168858051,0.03061959706246853,-0.04718930274248123
1781788040574187500,16.7801875,0.019471315667033195,-0.008781181648373604,-0.011530072428286076
1781788040622716000,16.8287158203125,-0.0027488914784044027,0.020540328696370125,0.03565923124551773
1781788040671244000,16.877244140625,0.011759147047996521,-0.03764454275369644,-0.016798781231045723
1781788040719772400,16.9257724609375,0.021685699000954628,0.033826638013124466,-0.006185005884617567
1781788040768300500,16.974300537109375,0.05001455545425415,0.01282816007733345,0.003970621153712273
1781788040816829000,17.022828857421874,0.03962985426187515,-0.03657552972435951,-0.07857248187065125
1781788040865357300,17.071357421875,0.03756818547844887,-0.010384701192378998,-0.09560033679008484
1781788040913885700,17.1198857421875,0.06666062027215958,-0.11278090626001358,-0.11720968037843704
1781788040962413600,17.16841357421875,0.1037706509232521,-0.30314165353775024,-0.05734493210911751
1781788041010942000,17.21694189453125,-0.12675444781780243,-0.3746891915798187,0.051618073135614395
1781788041059470300,17.26547021484375,-0.2629009187221527,-0.247629314661026,0.10369429737329483
1781788041107998500,17.31399853515625,-0.15691588819026947,-0.20792309939861298,0.09453132748603821
1781788041156526800,17.36252685546875,0.008933897130191326,-0.01282816007733345,0.02130390889942646
1781788041205055000,17.411054931640624,0.06979130208492279,0.2248746007680893,0.10315979272127151
1781788041253583600,17.45958349609375,0.01740964688360691,0.35468336939811707,0.11064288020133972
1781788041302111700,17.50811181640625,0.08261945843696594,0.7546470761299133,0.33895358443260193
1781788041350640000,17.55664013671875,-0.08048143237829208,0.07170025259256363,-0.013209951110184193
1781788041399168300,17.605168212890625,-0.000839939049910754,0.358348548412323,0.007024944759905338
1781788041447696600,17.653696533203124,-0.03390299528837204,0.3113119602203369,-0.07078395783901215
1781788041496224800,17.702224853515624,-0.018173227086663246,0.4301251769065857,-0.00038179047987796366
1781788041593281500,17.799281494140626,-0.12957969307899475,0.49052441120147705,0.0821613147854805
1781788041641809700,17.8478095703125,-0.14362958073616028,0.45875945687294006,0.12026400119066238
1781788041690338000,17.896338134765625,-0.08575014024972916,0.21746785938739777,0.1089630052447319
1781788041738866400,17.944866455078124,-0.0102319847792387,-0.091400645673275,0.035964664071798325
1781788041787394600,17.99339453125,0.08200860023498535,-0.40950846672058105,-0.004352411720901728
1781788041835923000,18.0419228515625,0.10300707072019577,-0.5986474752426147,-0.0012980876490473747
1781788041884451000,18.090451171875,0.044669486582279205,-0.546113133430481,-0.026038112118840218
1781788041932979200,18.138979248046876,0.03390299528837204,-0.40698865056037903,0.003970621153712273
1781788041981507600,18.187507568359376,0.0461202897131443,-0.22968515753746033,0.06192641705274582
1781788042030036000,18.236035888671875,0.01107192412018776,-0.08323032408952713,0.04711294546723366
1781788042078564000,18.284564208984374,0.010079269297420979,-0.009086613543331623,0.005803215317428112
1781788042127092500,18.333092529296874,0.02542724646627903,0.018555017188191414,-0.014126247726380825
1781788042175620600,18.38162060546875,0.0193185992538929,0.053756099194288254,-0.00847574882209301
1781788042224149000,18.43014892578125,-0.010919207707047462,0.13339759409427643,0.00007635809743078426
1781788042272677400,18.478677490234375,-0.0334448479115963,0.1888335794210434,0.009697478264570236
1781788042321205500,18.52720556640625,-0.025961752980947495,0.17592905461788177,0.008399390615522861
1781788042369734000,18.57573388671875,-0.030161447823047638,0.11430807411670685,0.013973532244563103
1781788042418262000,18.624261962890625,-0.009010255336761475,0.02893971838057041,-0.007254019379615784
1781788042466790400,18.672790283203124,0.0021380267571657896,-0.020769402384757996,-0.011377356946468353
1781788042515318800,18.72131884765625,0.0154243353754282,-0.043371398001909256,-0.022983787581324577
1781788042563847200,18.76984716796875,0.011911863461136818,-0.014049889519810677,-0.023136503994464874
1781788042612375000,18.818375,-0.00045814859913662076,-0.023136503994464874,-0.007483093533664942
1781788042660903400,18.8669033203125,-0.003283398225903511,-0.03962985426187515,0.0027488914784044027
1781788042709431800,18.915431884765624,-0.0017562361899763346,-0.03275762498378754,0.02718348242342472
1781788042757960000,18.9639599609375,-0.01672242395579815,-0.017256930470466614,0.0066431546583771706
1781788042806488300,19.01248828125,0.000305432389723137,0.021838415414094925,-0.012751801870763302
1781788042855016400,19.061016357421874,0.004428769461810589,0.024663666263222694,-0.004352411720901728
1781788042903545000,19.109545166015625,0.0031306820455938578,0.01183550525456667,0.006566796451807022
1781788042952073200,19.1580732421875,0.0032070400193333626,0.005574141163378954,0.011300998739898205
1781788043000601300,19.206601318359375,0.0013744457392022014,-0.0038179049734026194,-0.0011453714687377214
1781788043049129700,19.255129638671875,0.0009162971982732415,0.011224640533328056,-0.004810560029000044
1781788043097657900,19.303657958984374,0.003741546766832471,0.007941242307424545,0.0021380267571657896
1781788043146186200,19.352186279296873,0.00038179047987796366,0.01107192412018776,-0.009926552884280682
1781788043243242500,19.449242431640624,-0.00007635809743078426,0.013668099418282509,-0.010155626572668552
1781788043291771000,19.49777099609375,0.0058795735239982605,0.000610864779446274,-0.009086613543331623
1781788043340299000,19.546299072265626,0.00038179047987796366,-0.00038179047987796366,-0.010690134018659592
1781788043388827400,19.594827392578125,0.005421424750238657,-0.006872228812426329,-0.006185005884617567
1781788043437355500,19.64335546875,0.0019089524867013097,-0.001450803829357028,-0.006185005884617567
1781788043485884000,19.6918837890625,0.0019853105768561363,-0.021991131827235222,-0.011682788841426373
1781788043534412300,19.740412353515627,0.006490438245236874,-0.022220205515623093,-0.00954476185142994
1781788043582940400,19.7889404296875,0.010690134018659592,-0.009926552884280682,-0.010537417605519295
1781788043631468800,19.83746875,-0.000839939049910754,0.014508038759231567,-0.0025198173243552446
1781788043679997000,19.885996826171876,-0.001679878099821508,0.02000582218170166,0.010690134018659592
1781788043728525300,19.934525390625,-0.004963276442140341,0.043142326176166534,0.01672242395579815
1781788043777053400,19.983053466796875,-0.0011453714687377214,0.07964149862527847,0.00007635809743078426
1781788043825581800,20.031581787109374,-0.0035888305865228176,0.11491893976926804,-0.017256930470466614
1781788043874110000,20.08010986328125,-0.007635809946805239,0.12286017835140228,-0.03672824427485466
1781788043922638300,20.128638427734376,0.004046979360282421,0.10919208079576492,-0.051847148686647415
1781788043971166700,20.177166748046876,0.005421424750238657,0.00923932995647192,-0.027870705351233482
1781788044019694800,20.22569482421875,0.008246674202382565,-0.16791145503520966,-0.005803215317428112
1781788044068223200,20.27422314453125,0.005650499369949102,-0.27855435013771057,0.02611446939408779
1781788044116751400,20.32275146484375,0.030466880649328232,-0.3015381395816803,0.041386090219020844
1781788044165279700,20.37127978515625,0.02023489587008953,-0.20425790548324585,0.04062250629067421
1781788044213807900,20.419807861328124,0.017486004158854485,-0.08040507882833481,0.014278964139521122
1781788044262336000,20.4683359375,0.0077121676877141,0.02328922040760517,-0.004963276442140341
1781788044310864400,20.516864501953126,0.0022143847309052944,0.07643445581197739,-0.014431680552661419
1781788044359392800,20.565392822265625,-0.012751801870763302,0.07887791097164154,0.008857538923621178
1781788044407921000,20.6139208984375,-0.01718057133257389,0.07765618711709976,0.01763872057199478
1781788044456449000,20.662448974609376,-0.002901607658714056,0.08040507882833481,-0.004657844081521034
1781788044504977400,20.710977294921875,-0.007177661173045635,0.08437569439411163,0.004505127668380737
1781788044553505800,20.759505859375,0.0031306820455938578,0.04604393243789673,-0.0022143847309052944
1781788044602034000,20.808033935546874,0.005268708802759647,0.003741546766832471,0.005192350596189499
1781788044650562300,20.856562255859377,0.013209951110184193,-0.05047270283102989,-0.005574141163378954
1781788044699090400,20.90509033203125,0.011300998739898205,-0.07719803601503372,-0.0058795735239982605
1781788044747618800,20.953618896484375,0.0034361144062131643,-0.09040798991918564,0.01030834298580885
1781788044796147000,21.00214697265625,0.003970621153712273,-0.0884990319609642,0.016340631991624832
1781788044893203200,21.099203125,0.01030834298580885,-0.06368265300989151,0.0031306820455938578
1781788044941731600,21.147731689453124,-0.001679878099821508,-0.04176788032054901,0.0017562361899763346
1781788044990259700,21.196259765625,0.006490438245236874,-0.040317077189683914,-0.004046979360282421
1781788045038788000,21.2447880859375,0.00954476185142994,-0.03993528336286545,-0.008246674202382565
1781788045087316200,21.293316162109374,0.0034361144062131643,-0.033139415085315704,-0.005192350596189499
1781788045135844600,21.3418447265625,0.0025198173243552446,-0.02848157100379467,-0.0013744457392022014
1781788045184372700,21.390372802734376,0.0025961752980947495,-0.012140937149524689,0.006414080038666725
1781788045232901000,21.438901123046875,-0.0006872228696011007,-0.004657844081521034,0.0015271619195118546
1781788045281429200,21.48742919921875,0.0025961752980947495,0.005268708802759647,-0.000305432389723137
1781788045329957600,21.53595751953125,0.0005345066892914474,0.01672242395579815,-0.0013744457392022014
1781788045378485800,21.58448583984375,0.004810560029000044,0.0256563201546669,-0.007483093533664942
1781788045427014000,21.633013916015624,-0.0010690133785828948,0.05352702736854553,-0.010690134018659592
1781788045475542300,21.681542236328124,-0.006337722297757864,0.057497646659612656,-0.009086613543331623
1781788045524070400,21.7300703125,-0.0006872228696011007,0.04909825697541237,-0.004581485874950886
1781788045572598800,21.778598876953126,-0.002672533504664898,0.043753188103437424,-0.005039634648710489
1781788045621127000,21.827126953125,-0.004199695307761431,0.030925029888749123,0.0023671009112149477
1781788045669655000,21.875655029296876,0.00007635809743078426,0.0191658828407526,-0.0013744457392022014
1781788045718183400,21.924183349609375,0.003970621153712273,0.0057268571108579636,-0.005039634648710489
1781788045766711600,21.972711669921875,-0.00045814859913662076,0.00755945174023509,-0.0035888305865228176
1781788045815240000,22.021239990234374,-0.003741546766832471,0.008628465235233307,-0.004657844081521034
1781788045863768300,22.069768310546873,0.0015271619195118546,-0.011148282326757908,0.008781181648373604
1781788045912296400,22.11829638671875,0.004963276442140341,-0.05123628303408623,0.010842849500477314
1781788045960824600,22.166824462890624,0.010537417605519295,-0.08025235682725906,-0.0006872228696011007
1781788046009353000,22.21535302734375,0.013820815831422806,-0.09789107739925385,-0.005268708802759647
1781788046057881000,22.263881103515626,0.006872228812426329,-0.07452550530433655,-0.0005345066892914474
1781788046106409200,22.3124091796875,-0.00007635809743078426,-0.032910339534282684,0.006337722297757864
1781788046154937600,22.3609375,-0.004199695307761431,0.004505127668380737,0.006185005884617567
1781788046203465700,22.4094658203125,-0.0012980876490473747,0.018325943499803543,0.0023671009112149477
1781788046251993900,22.457993896484375,0.0025198173243552446,0.015500693581998348,-0.0066431546583771706
1781788046300522000,22.50652197265625,0.0015271619195118546,0.014431680552661419,-0.010537417605519295
1781788046349050400,22.55505029296875,0.0025198173243552446,0.009621120058000088,-0.007864884100854397
1781788046397578500,22.60357861328125,-0.002290742937475443,0.00755945174023509,0.001679878099821508
1781788046446107000,22.65210693359375,-0.003359756199643016,-0.006948587018996477,0.012675444595515728
1781788046543163100,22.7491630859375,-0.0009162971982732415,-0.006948587018996477,0.002901607658714056
1781788046591691500,22.79769140625,-0.003894262947142124,0.00755945174023509,0.0015271619195118546
1781788046640219600,22.8462197265625,-0.00679587060585618,0.012904518283903599,0.004810560029000044
1781788046688747800,22.894747802734376,-0.003359756199643016,0.01107192412018776,0.002061668550595641
1781788046737276200,22.943276123046875,0.0029779658652842045,0.0009926552884280682,-0.0035888305865228176
1781788046785804300,22.99180419921875,-0.000305432389723137,-0.017486004158854485,-0.000305432389723137
1781788046834332400,23.04033251953125,0.0017562361899763346,-0.06368265300989151,-0.01107192412018776
1781788046882860800,23.08886083984375,0.04169152304530144,-0.16821688413619995,-0.05352702736854553
1781788046931389000,23.137388916015624,0.07673988491296768,-0.33284494280815125,-0.09804379940032959
1781788046979917300,23.185917236328127,0.07971785217523575,-0.5177842378616333,-0.11659881472587585
1781788047028445400,23.234445556640626,0.06467530876398087,-0.5988765358924866,-0.08498656004667282
1781788047076973600,23.2829736328125,0.028787001967430115,-0.5280162692070007,-0.057955797761678696
1781788047125502000,23.331501953125,0.011148282326757908,-0.34613126516342163,-0.00847574882209301
1781788047174030000,23.380030029296876,0.0038179049734026194,-0.15859577059745789,0.02695440873503685
1781788047222558200,23.42855810546875,-0.017562363296747208,-0.03168861195445061,0.012675444595515728
1781788047271086600,23.477086669921874,-0.015958841890096664,0.04558578506112099,-0.004963276442140341
1781788047319614700,23.52561474609375,0.013209951110184193,0.12728895246982574,0.016416991129517555
1781788047368142800,23.574142822265625,-0.06200277432799339,0.10422880202531815,0.05994110554456711
1781788047416671200,23.622671142578124,-0.1706603467464447,0.24663665890693665,-0.03825540840625763
1781788047465199400,23.671199462890623,-0.4199695289134979,0.05581776797771454,-0.036422811448574066
1781788047513727500,23.7197275390625,0.17692171037197113,0.003665188793092966,-0.1078176349401474
1781788047562255600,23.768255615234374,0.3840048611164093,0.07857248187065125,-0.03825540840625763
1781788047610783700,23.81678369140625,-0.021609341725707054,0.012217295356094837,0.10903936624526978
1781788047659312000,23.86531201171875,-0.03405570983886719,0.06742420047521591,-0.023136503994464874
1781788047707840300,23.91384033203125,0.025732679292559624,-0.034208428114652634,-0.03451386094093323
1781788047756368400,23.962368408203126,0.04451677203178406,0.022220205515623093,-0.0034361144062131643
1781788047804896800,24.010896728515625,-0.018631376326084137,0.1049160286784172,-0.044898562133312225
1781788047853425200,24.059425048828125,-0.0029779658652842045,0.02977965772151947,-0.012980876490473747
1781788047901953000,24.107953125,-0.0191658828407526,0.14278964698314667,-0.008093958720564842
1781788047950481200,24.156481201171875,0.03558287397027016,0.10285435616970062,0.02023489587008953
1781788047999009500,24.205009521484374,0.044669486582279205,0.04993819445371628,0.08391755074262619
1781788048047537700,24.25353759765625,-0.018784092739224434,0.14194969832897186,0.07971785217523575
1781788048096065800,24.302065673828125,-0.013744457624852657,0.11827868968248367,0.08605557680130005
1781788048193122300,24.399122314453123,0.004428769461810589,0.08536835014820099,-0.016798781231045723
1781788048241650400,24.447650390625,-0.04894553869962692,0.03000873140990734,0.005345067009329796
1781788048290178600,24.496178466796874,-0.041386090219020844,-0.2618319094181061,-0.05871937796473503
1781788048338707000,24.54470703125,-0.057955797761678696,0.04192059487104416,0.03023780696094036
1781788048387235000,24.593235107421876,0.11392628401517868,0.000610864779446274,-0.022525638341903687
1781788048435763200,24.64176318359375,0.045967575162649155,0.08368847519159317,-0.04046979174017906
1781788048484291300,24.690291259765626,-0.019624030217528343,0.14546217024326324,-0.012293653562664986
1781788048532819700,24.73881982421875,-0.025350889191031456,-0.13858994841575623,0.005574141163378954
1781788048581347800,24.787347900390625,0.04978547990322113,-0.19158247113227844,0.029397867619991302
1781788048629876000,24.8358759765625,-0.0023671009112149477,-0.12721258401870728,-0.00679587060585618
1781788048678404400,24.884404296875,-0.018173227086663246,0.12072215229272842,0.03779725730419159
1781788048726932500,24.932932373046874,0.020540328696370125,0.3883572816848755,0.06528617441654205
1781788048775460600,24.981460693359374,-0.04482220485806465,0.2864955961704254,0.015577051788568497
1781788048823988700,25.02998876953125,-0.03894263133406639,0.20013457536697388,-0.017486004158854485
1781788048872516900,25.078516845703124,-0.018784092739224434,0.10079269111156464,-0.06551524996757507
1781788048921045000,25.127044921875,-0.005421424750238657,0.0345902182161808,-0.05940660089254379
1781788048969573000,25.175572998046874,-0.022678354755043983,0.1026252806186676,0.03329212963581085
1781788049018101200,25.224101318359374,-0.012446369975805283,0.10529781877994537,0.047494735568761826
1781788049066629600,25.272629638671877,0.03657552972435951,0.11461350321769714,0.05787943676114082
1781788049115157800,25.32115771484375,0.07002037763595581,-0.012370011769235134,0.01779143698513508
1781788049163686100,25.36968603515625,-0.007177661173045635,0.04848739132285118,-0.03672824427485466
1781788049212214000,25.418214111328126,0.013515383005142212,-0.1011744812130928,-0.14332415163516998
1781788049260742400,25.466742431640625,-0.06498073786497116,-0.20196716487407684,-0.07055488228797913
1781788049309270500,25.5152705078125,0.010155626572668552,-0.1291215419769287,-0.0016035200096666813
1781788049357798700,25.563798583984376,0.005803215317428112,-0.18646647036075592,0.10987929999828339
1781788049406326800,25.612326904296875,-0.03000873140990734,0.0058795735239982605,0.15057817101478577
1781788049454855000,25.66085498046875,0.018631376326084137,0.22663083672523499,0.032681263983249664
1781788049503383300,25.70938330078125,0.06001746281981468,0.27924156188964844,-0.11354449391365051
1781788049551911400,25.757911376953125,0.06299543380737305,0.22075125575065613,-0.1778380125761032
1781788049600439600,25.806439453125,-0.11064288020133972,0.22365286946296692,-0.0038179049734026194
1781788049648967700,25.8549677734375,0.00923932995647192,0.14912736415863037,0.03107774630188942
1781788049697495800,25.903495849609374,-0.07116574794054031,-0.10835213959217072,0.08170316368341446
1781788049746024000,25.95202392578125,-0.02496909722685814,-0.12056943774223328,0.019624030217528343
1781788049843080400,26.04908056640625,0.03962985426187515,-0.20173808932304382,-0.15187625586986542
1781788049891608300,26.0976083984375,-0.0308486707508564,-0.1654679924249649,-0.0022143847309052944
1781788049940136400,26.146136474609374,0.08093958348035812,-0.31986406445503235,0.03917170315980911
1781788049988664800,26.194664794921874,0.04917461425065994,-0.2758817970752716,0.04298960790038109
1781788050037193000,26.24319287109375,-0.01206457894295454,-0.029474224895238876,-0.0001527161948615685
1781788050085721000,26.29172119140625,-0.03817904740571976,0.1954767256975174,0.06345357745885849
1781788050134249200,26.340249267578123,0.05123628303408623,0.3260490894317627,0.002672533504664898
1781788050182777300,26.38877734375,-0.03321577236056328,0.24052800238132477,-0.06979130208492279
1781788050231305700,26.4373056640625,-0.043600473552942276,0.2234237939119339,0.02107483521103859
1781788050279833900,26.485833740234376,-0.031612250953912735,0.08391755074262619,0.0371863916516304
1781788050328362000,26.534362060546876,-0.05917752534151077,0.052916161715984344,0.044669486582279205
1781788050376890000,26.58289013671875,-0.028405211865901947,-0.03321577236056328,-0.025121813639998436
1781788050425418200,26.631418212890626,-0.027336198836565018,-0.002825249684974551,-0.026419902220368385
1781788050473946600,26.679946533203125,-0.042684175074100494,0.09407317638397217,0.03627009689807892
1781788050522474800,26.728474853515625,0.023136503994464874,0.049861837178468704,0.018860450014472008
1781788050571003000,26.7770029296875,-0.03061959706246853,0.13660463690757751,0.010613775812089443
1781788050619531000,26.825531005859375,0.05955931544303894,0.05543597787618637,-0.044898562133312225
1781788050668059100,26.87405908203125,0.09964732080698013,0.05933023989200592,-0.025579962879419327
1781788050716587300,26.922587158203125,0.09544762223958969,0.047036588191986084,-0.04818195849657059
1781788050765115400,26.971115478515625,-0.06895136088132858,0.10041090101003647,0.022067490965127945
1781788050813643500,27.0196435546875,-0.05566505342721939,0.1778380125761032,0.007864884100854397
1781788050862171600,27.068171630859375,-0.014508038759231567,-0.026801692321896553,-0.006414080038666725
1781788050910699800,27.11669970703125,-0.006948587018996477,-0.12820523977279663,-0.013209951110184193
1781788050959228000,27.165227783203125,0.08078686892986298,-0.16363540291786194,0.002290742937475443
1781788051007756000,27.213756103515625,0.003970621153712273,-0.09712749719619751,-0.007483093533664942
1781788051056284200,27.2622841796875,-0.05711585655808449,-0.15225805342197418,-0.029856016859412193
1781788051104812300,27.310812255859375,-0.05917752534151077,0.12163844704627991,-0.010919207707047462
1781788051153340700,27.359340576171874,0.014584396965801716,0.06780599057674408,0.003741546766832471
1781788051201868800,27.407868896484374,-0.01183550525456667,0.1409570425748825,0.006185005884617567
1781788051250397000,27.45639697265625,-0.004352411720901728,0.18058690428733826,-0.040088001638650894
1781788051298925000,27.504925048828124,0.05039634555578232,-0.014660755172371864,0.01763872057199478
1781788051347453200,27.553453125,-0.01740964688360691,0.03733910992741585,-0.049632761627435684
1781788051395981300,27.601981201171874,-0.043829549103975296,-0.01847865991294384,-0.06879864633083344
1781788051493037300,27.699037353515624,-0.006414080038666725,0.08376483619213104,-0.003359756199643016
1781788051541565700,27.747565673828124,-0.008170315995812416,0.23968806862831116,0.015729768201708794
1781788051590093800,27.79609375,-0.011224640533328056,0.2606865465641022,0.02893971838057041
1781788051638622000,27.8446220703125,-0.022067490965127945,0.21609342098236084,-0.014202605932950974
1781788051687150000,27.893150146484373,0.014813470654189587,-0.02588539570569992,-0.023976443335413933
1781788051735678200,27.94167822265625,-0.012675444595515728,-0.16470441222190857,-0.05871937796473503
1781788051784206300,27.990206298828124,0.0709366723895073,-0.26503896713256836,0.013362666592001915
1781788051832734500,28.038734375,0.048792824149131775,-0.3161988854408264,0.016187917441129684
1781788051881262600,28.0872626953125,0.02718348242342472,-0.30520331859588623,-0.004046979360282421
1781788051929790700,28.135790771484373,0.00007635809743078426,-0.22739441692829132,-0.0031306820455938578
1781788051978318800,28.18431884765625,0.011300998739898205,-0.11377356201410294,0.015577051788568497
1781788052026847000,28.232846923828124,-0.014508038759231567,0.06291907280683517,0.026190826669335365
1781788052075375000,28.281375,0.006185005884617567,0.03894263133406639,-0.01740964688360691
1781788052123903200,28.3299033203125,-0.009697478264570236,0.15256348252296448,-0.008093958720564842
1781788052172431400,28.378431396484373,-0.020082179456949234,0.13095413148403168,0.004810560029000044
1781788052220959500,28.42695947265625,-0.04298960790038109,0.07353284955024719,-0.005192350596189499
1781788052269487600,28.475487548828124,-0.012293653562664986,0.025045456364750862,0.010079269297420979
1781788052318015700,28.524015625,0.008093958720564842,0.05971203371882439,0.04176788032054901
1781788052366544000,28.5725439453125,-0.0023671009112149477,0.02000582218170166,0.005345067009329796
1781788052415072000,28.621072021484373,-0.00946840364485979,0.01954767294228077,0.002290742937475443
1781788052463600000,28.66960009765625,-0.02084576152265072,-0.06414080411195755,0.015806125476956367
1781788052512128300,28.718128173828124,0.042073313146829605,-0.05940660089254379,-0.010919207707047462
1781788052560656400,28.766656494140626,0.07200568914413452,-0.0016035200096666813,0.03527744114398956
1781788052609184500,28.8151845703125,0.05589412897825241,0.0345902182161808,0.01977674663066864
1781788052657712600,28.863712646484377,0.0017562361899763346,0.04436405375599861,-0.020540328696370125
1781788052706240800,28.91224072265625,0.007406735327094793,0.006490438245236874,0.0102319847792387
1781788052754769000,28.960768798828123,0.0015271619195118546,-0.03764454275369644,0.0057268571108579636
1781788052803297000,29.009297119140626,-0.015729768201708794,-0.10193806141614914,0.004581485874950886
1781788052851825000,29.057824951171874,-0.022220205515623093,-0.04818195849657059,-0.02764163166284561
1781788052900353000,29.10635302734375,-0.0308486707508564,-0.0977383628487587,-0.07299833744764328
1781788052948881200,29.154881103515624,0.0062613640911877155,-0.055512335151433945,-0.005803215317428112
1781788052997409300,29.2034091796875,0.05451968312263489,-0.052916161715984344,-0.015042545273900032
1781788053045937400,29.2519375,0.04413498193025589,0.03550651669502258,-0.019853105768561363
1781788053142993700,29.34899365234375,0.03352120518684387,-0.1547778695821762,-0.19089524447917938
1781788053191521800,29.397521728515624,0.2159406989812851,-0.1101083755493164,-0.07246383279561996
1781788053240050000,29.4460498046875,0.09949459880590439,-0.2599993348121643,-0.04344775900244713
1781788053288578000,29.494578125,0.014737112447619438,-0.28382304310798645,-0.13660463690757751
1781788053337106200,29.543106201171874,-0.08743002265691757,-0.1954767256975174,0.013515383005142212
1781788053385634300,29.59163427734375,-0.04283689334988594,-0.05108356848359108,0.05261072888970375
1781788053434162200,29.640162109375,-0.11614066362380981,0.1014799103140831,0.026190826669335365
1781788053482690300,29.688690185546875,-0.18005239963531494,0.2957349121570587,0.1599702090024948
1781788053531218400,29.737218505859374,0.02328922040760517,0.0487164668738842,-0.01908952370285988
1781788053579746600,29.78574658203125,0.02764163166284561,0.20631958544254303,0.08888082206249237
1781788053628274400,29.8342744140625,0.016798781231045723,0.2003636509180069,0.06467530876398087
1781788053676802600,29.882802490234376,0.05413788929581642,0.2997818887233734,-0.015806125476956367
1781788053725330700,29.93133056640625,0.08910989761352539,0.026648975908756256,-0.0965929925441742
1781788053773858800,29.97985888671875,0.0668896958231926,-0.01259908638894558,-0.0910952091217041
1781788053822387000,30.028386962890625,0.042073313146829605,-0.014584396965801716,-0.04818195849657059
1781788053870915000,30.0769150390625,-0.13179408013820648,0.06788235157728195,0.029397867619991302
1781788053919443200,30.125443115234376,-0.1559995859861374,0.21097742021083832,0.0821613147854805
1781788053967971300,30.173971435546875,-0.0017562361899763346,0.2044106274843216,0.1153007298707962
1781788054016499500,30.22249951171875,0.12408190965652466,-0.21930044889450073,0.013973532244563103
1781788054065027600,30.271027587890625,-0.028787001967430115,-0.1003345400094986,-0.013209951110184193
1781788054113555700,30.3195556640625,-0.12408190965652466,-0.011606430634856224,-0.0012980876490473747
1781788054162083600,30.36808349609375,0.03886627033352852,-0.15271618962287903,-0.05123628303408623
1781788054210611700,30.41661181640625,-0.03222311660647392,-0.01954767294228077,0.07108938694000244
1781788054259139800,30.465139892578126,-0.08865175396203995,0.1130099818110466,0.07597630470991135
1781788054307668000,30.51366796875,-0.033826638013124466,0.07154753804206848,0.046654798090457916
1781788054356195800,30.56219580078125,0.06207913160324097,0.16416990756988525,0.0057268571108579636
1781788054404724000,30.610723876953124,0.07490729540586472,-0.05123628303408623,-0.014431680552661419
1781788054453252400,30.65925244140625,-0.02741255611181259,0.0012980876490473747,0.05283980444073677
1781788054501780200,30.7077802734375,-0.03306305781006813,-0.055512335151433945,-0.0016035200096666813
1781788054550308400,30.756308349609377,-0.005574141163378954,0.018096869811415672,0.041615162044763565
1781788054598836500,30.80483642578125,0.052076224237680435,-0.05253437161445618,0.050778135657310486
1781788054647364600,30.853364501953124,-0.010690134018659592,0.024281874299049377,0.01718057133257389
1781788054695892700,30.901892822265626,0.03329212963581085,0.023441936820745468,0.007254019379615784
1781788054792948500,30.998948486328125,0.011377356946468353,0.072921983897686,-0.020540328696370125
1781788054841476600,31.0474765625,0.07506000995635986,-0.09002619981765747,-0.05169443041086197
1781788054890004700,31.096004638671875,0.08681915700435638,-0.15859577059745789,-0.03428478538990021
1781788054938532900,31.144532958984374,0.033368486911058426,-0.21097742021083832,-0.10545053333044052
1781788054987061000,31.19306103515625,0.07612902671098709,-0.2225838601589203,-0.20189081132411957
1781788055035589000,31.241589111328125,0.14996729791164398,-0.04298960790038109,-0.06551524996757507
1781788055084117000,31.290116943359376,0.13064870238304138,0.024816380813717842,-0.06177370250225067
1781788055132645000,31.33864501953125,0.02764163166284561,0.027259841561317444,-0.12087486684322357
1781788055181173200,31.38717333984375,-0.056657709181308746,0.007406735327094793,-0.04390590637922287
1781788055229701400,31.435701416015625,-0.001679878099821508,-0.19784383475780487,-0.07788526266813278
1781788055278229500,31.4842294921875,-0.01695149764418602,-0.30253079533576965,-0.08888082206249237
1781788055326757600,31.532757568359376,-0.08177952468395233,-0.18387030065059662,0.017333287745714188
1781788055375285500,31.581285400390627,0.0948367565870285,-0.05459604039788246,0.03245219215750694
1781788055423813600,31.629813720703126,0.057726722210645676,0.2012035846710205,0.012675444595515728
1781788055472341500,31.678341552734373,-0.12606722116470337,0.24106250703334808,0.016798781231045723
1781788055520869600,31.72686962890625,-0.3857611119747162,0.24113887548446655,0.08338304609060287
1781788055569397800,31.775397705078124,-0.21410810947418213,0.11972949653863907,0.08177952468395233
1781788055617926000,31.82392578125,0.12698352336883545,-0.1963166743516922,0.0023671009112149477
1781788055666454000,31.8724541015625,0.027030766010284424,-0.2369391769170761,0.03245219215750694
1781788055714982000,31.92098193359375,-0.05406153202056885,0.043600473552942276,0.061162836849689484
1781788055763510000,31.969510009765624,-0.023518294095993042,0.143553227186203,0.01718057133257389
1781788055812038100,32.0180380859375,-0.05566505342721939,0.2663370370864868,-0.045738499611616135
1781788055860566300,32.066566162109375,-0.06505709886550903,0.42798712849617004,-0.0062613640911877155
1781788055909094100,32.11509423828125,0.01870773360133171,0.38667741417884827,0.004352411720901728
1781788055957622300,32.16362231445312,-0.015500693581998348,0.41034841537475586,-0.04436405375599861
1781788056006150400,32.212150390625,-0.26763513684272766,0.2911534309387207,-0.029245151206851006
1781788056054678500,32.260678466796875,0.04130972921848297,0.1969275325536728,0.06750056147575378
1781788056103206700,32.30920654296875,0.026419902220368385,0.05719221383333206,0.1712712198495865
1781788056151734300,32.357734375,-0.05100720748305321,0.14660754799842834,0.09048434346914291
1781788056200262400,32.40626245117188,-0.0591011680662632,0.11957678198814392,0.16355904936790466
1781788056248790500,32.45479052734375,-0.021914774551987648,0.01672242395579815,0.1804341822862625
1781788056297318700,32.50331860351562,0.01908952370285988,-0.32154396176338196,0.17967060208320618
1781788056345846500,32.55184643554688,0.15485422313213348,-0.6981421113014221,0.1297324001789093
1781788056442902800,32.64890283203125,0.052916161715984344,-0.5231293439865112,-0.12530364096164703
1781788056491431000,32.697430908203124,0.10659590363502502,-0.24327689409255981,-0.11400263756513596
1781788056539959000,32.745958984375,0.06452259421348572,-0.05253437161445618,-0.04940368980169296
1781788056588487000,32.79448681640625,0.0022143847309052944,0.09063705801963806,0.00946840364485979
1781788056637015000,32.84301513671875,-0.0475710928440094,0.1727220118045807,0.07170025259256363
1781788056685543200,32.891543212890625,-0.04528035223484039,0.143553227186203,0.10797034949064255
1781788056734071000,32.94007104492187,-0.02283107116818428,0.12644900381565094,0.10315979272127151
1781788056782599000,32.98859887695313,-0.012446369975805283,0.01626427471637726,0.013515383005142212
1781788056831127000,33.037126953125,-0.0027488914784044027,-0.10888664424419403,-0.0062613640911877155
1781788056879655200,33.0856552734375,-0.00603228947147727,-0.14592032134532928,0.03756818547844887
1781788056928183000,33.13418310546875,0.0006872228696011007,-0.14004075527191162,0.09453132748603821
1781788056976711200,33.18271118164063,-0.008399390615522861,-0.07162389904260635,0.07788526266813278
1781788057025239300,33.2312392578125,-0.017944153398275375,-0.0005345066892914474,0.031001387163996696
1781788057073767400,33.279767333984374,-0.01977674663066864,0.07192932814359665,0.0102319847792387
1781788057122295300,33.32829541015625,-0.013133592903614044,0.10422880202531815,-0.0006872228696011007
1781788057170823400,33.37682348632813,-0.01435532234609127,0.10224349051713943,-0.0025961752980947495
1781788057219351300,33.425351318359375,-0.021685699000954628,0.10063996911048889,-0.004046979360282421
1781788057267879400,33.47387939453125,-0.011530072428286076,0.09170607477426529,-0.004199695307761431
1781788057316407600,33.52240747070312,-0.011453714221715927,0.08292489498853683,-0.0062613640911877155
1781788057364935400,33.57093530273438,-0.008246674202382565,0.047036588191986084,0.001450803829357028
1781788057413463600,33.619463623046876,-0.008017600513994694,0.037033677101135254,0.01740964688360691
1781788057461991400,33.66799145507812,0.0035888305865228176,-0.0035888305865228176,0.024663666263222694
1781788057510519600,33.71651953125,0.004046979360282421,-0.018325943499803543,0.004199695307761431
1781788057559047700,33.76504760742188,-0.006185005884617567,0.004657844081521034,-0.015958841890096664
1781788057607575600,33.813575439453125,-0.0010690133785828948,-0.007101302966475487,-0.013133592903614044
1781788057656103700,33.862103759765624,0.008933897130191326,-0.04069886729121208,-0.012140937149524689
1781788057704631600,33.91063159179687,0.020311253145337105,-0.13675735890865326,-0.024510949850082397
1781788057753159700,33.95915966796875,0.037949975579977036,-0.18547381460666656,-0.0154243353754282
1781788057801687800,34.007687744140625,0.020540328696370125,-0.14882193505764008,-0.0022143847309052944
1781788057850215700,34.05621557617187,-0.0011453714687377214,-0.0962875634431839,-0.0021380267571657896
1781788057898743800,34.10474389648437,-0.0010690133785828948,-0.025045456364750862,0.009621120058000088
1781788057947271700,34.15327172851563,-0.004734201822429895,0.02649625949561596,-0.000305432389723137
1781788057995799800,34.2017998046875,-0.005192350596189499,0.056199558079242706,-0.0022143847309052944
1781788058092855800,34.29885571289063,0.004352411720901728,0.015729768201708794,-0.019929463043808937
1781788058141383700,34.3473837890625,0.01435532234609127,-0.03260490670800209,0.004505127668380737
1781788058189911800,34.395911865234375,0.020082179456949234,-0.02626718580722809,0.03000873140990734
1781788058238439700,34.44443969726562,0.012293653562664986,-0.029245151206851006,0.03283398225903511
1781788058286967800,34.4929677734375,-0.02741255611181259,0.006948587018996477,0.0009162971982732415
1781788058335496000,34.541495849609376,-0.01672242395579815,0.039477135986089706,0.024892739951610565
1781788058384023800,34.59002392578125,-0.013744457624852657,0.08147408813238144,0.035124726593494415
1781788058432552000,34.63855200195312,-0.028176138177514076,0.07307469844818115,-0.008323032408952713
1781788058481080000,34.687080078125,-0.013362666592001915,0.07276926934719086,-0.006872228812426329
1781788058529608000,34.73560791015625,-0.005345067009329796,0.06971494108438492,0.004199695307761431
1781788058578136000,34.784135986328124,-0.015195261687040329,0.12385283410549164,0.004123337101191282
1781788058626664000,34.83266381835937,-0.007254019379615784,0.16600249707698822,0.012751801870763302
1781788058675191800,34.88119189453125,-0.018402300775051117,0.1983019858598709,0.004352411720901728
1781788058723720000,34.929719970703125,-0.03000873140990734,0.20196716487407684,0.006414080038666725
1781788058772247800,34.97824780273437,-0.014889828860759735,0.12499820441007614,0.0102319847792387
1781788058820776000,35.02677587890625,0.0034361144062131643,0.0334448479115963,0.010461059398949146
1781788058869303800,35.0753037109375,-0.000305432389723137,-0.08139773458242416,0.013668099418282509
1781788058917832000,35.12383203125,0.016569707542657852,-0.18119776248931885,0.021456625312566757
1781788058966359800,35.17235986328125,0.012140937149524689,-0.21342088282108307,0.011224640533328056
1781788059014888000,35.22088793945313,0.013820815831422806,-0.1836412250995636,0.005803215317428112
1781788059063416000,35.269416015625,0.013973532244563103,-0.08208495378494263,0.010842849500477314
1781788059111944000,35.31794384765625,0.02153298258781433,-0.0386371985077858,-0.020540328696370125
1781788059160472000,35.36647216796875,0.006185005884617567,0.0602465383708477,-0.012980876490473747
1781788059209000000,35.415,-0.008781181648373604,0.08009964227676392,-0.0154243353754282
1781788059257527800,35.46352783203125,-0.006337722297757864,0.07215840369462967,-0.010537417605519295
1781788059306056000,35.51205590820312,0.000305432389723137,0.0360410213470459,-0.008093958720564842
1781788059354584000,35.560583984375,0.0022143847309052944,0.002672533504664898,-0.008628465235233307
1781788059403112000,35.60911181640625,0.000305432389723137,-0.0057268571108579636,-0.0058795735239982605
1781788059451639800,35.657639892578125,-0.004963276442140341,-0.001832594396546483,-0.0016035200096666813
1781788059500168000,35.70616796875,-0.005192350596189499,0.014049889519810677,0.00679587060585618
1781788059548695800,35.75469580078125,-0.000839939049910754,0.022678354755043983,-0.0077121676877141
1781788059597224000,35.803223876953126,0.007101302966475487,0.02237292192876339,-0.017256930470466614
1781788059645751800,35.851751708984374,0.0023671009112149477,0.014049889519810677,-0.016875140368938446
1781788059742807800,35.94880786132813,-0.003283398225903511,0.0034361144062131643,0.003283398225903511
1781788059791335700,35.997335693359375,-0.004581485874950886,0.0006872228696011007,0.013286309316754341
1781788059839863800,36.04586376953125,-0.018555017188191414,0.003283398225903511,0.027717988938093185
1781788059888391700,36.0943916015625,-0.02023489587008953,-0.004276053514331579,0.04894553869962692
1781788059936919800,36.142919921875,0.014584396965801716,-0.03237583488225937,0.028176138177514076
1781788059985447700,36.19144775390625,0.032681263983249664,-0.08674279600381851,-0.021914774551987648
1781788060033975800,36.23997583007812,0.029016077518463135,-0.1245400533080101,-0.04428769648075104
1781788060082504000,36.28850390625,0.018402300775051117,-0.11423171311616898,-0.01824958436191082
1781788060131031600,36.337031494140625,0.010537417605519295,-0.0720820426940918,0.012522728182375431
1781788060179559700,36.3855595703125,-0.0021380267571657896,-0.02260199747979641,0.021609341725707054
1781788060228087600,36.43408764648437,-0.003359756199643016,0.004276053514331579,0.01511890348047018
1781788060276615700,36.48261572265625,-0.004810560029000044,0.018402300775051117,0.004505127668380737
1781788060325143600,36.5311435546875,-0.007406735327094793,0.021609341725707054,0.009392046369612217
1781788060373671700,36.57967163085937,-0.009086613543331623,0.013897174037992954,0.021456625312566757
1781788060422199600,36.62819946289063,-0.01107192412018776,0.010384701192378998,0.02107483521103859
1781788060470727700,36.67672778320313,-0.007788525894284248,0.002443459117785096,0.01206457894295454
1781788060519255600,36.725255615234374,-0.0017562361899763346,-0.0013744457392022014,0.005803215317428112
1781788060567783700,36.77378369140625,0.0016035200096666813,-0.0030543238390237093,-0.0066431546583771706
1781788060616311600,36.8223115234375,0.012140937149524689,-0.005039634648710489,-0.011300998739898205
1781788060664839400,36.87083935546875,0.0034361144062131643,-0.0032070400193333626,-0.011530072428286076
1781788060713367300,36.9193671875,-0.002672533504664898,0.01183550525456667,0.001450803829357028
1781788060761895400,36.9678955078125,-0.00511599238961935,0.01259908638894558,0.002061668550595641
1781788060810423300,37.01642333984375,-0.0006872228696011007,0.011988221667706966,-0.006414080038666725
1781788060858951400,37.064951416015624,0.0032070400193333626,-0.0016035200096666813,-0.008246674202382565
1781788060907479300,37.11347924804687,0.0019089524867013097,-0.0057268571108579636,-0.007024944759905338
1781788060956007200,37.162007080078126,-0.000305432389723137,-0.008093958720564842,-0.0066431546583771706
1781788061004535300,37.210535400390626,0.0021380267571657896,-0.010384701192378998,-0.0012980876490473747
1781788061053063200,37.25906323242187,-0.0012980876490473747,-0.006872228812426329,0.0035888305865228176
1781788061101591300,37.30759130859375,-0.0029779658652842045,-0.006490438245236874,0.00511599238961935
1781788061150119200,37.356119140625,-0.003741546766832471,0.0009926552884280682,0.0066431546583771706
1781788061198647000,37.40464697265625,-0.0031306820455938578,0.007406735327094793,0.0035888305865228176
1781788061247175200,37.45317504882812,0.0016035200096666813,0.016340631991624832,-0.006185005884617567
1781788061295703000,37.501703125,0.0025198173243552446,0.01977674663066864,-0.013744457624852657
1781788061392759000,37.59875903320312,0.01435532234609127,0.028557928279042244,-0.035735588520765305
1781788061441287000,37.64728686523438,0.003741546766832471,0.031154103577136993,-0.028634287416934967
1781788061489815000,37.69581494140625,-0.008781181648373604,0.043600473552942276,-0.011911863461136818
1781788061538343000,37.744343017578124,-0.01107192412018776,0.04802924394607544,0.01206457894295454
1781788061586870800,37.79287084960937,-0.009010255336761475,0.03543015569448471,0.006948587018996477
1781788061635399000,37.84139892578125,-0.006566796451807022,0.026038112118840218,-0.008017600513994694
1781788061683926800,37.8899267578125,0.0031306820455938578,0.004734201822429895,-0.009315688163042068
1781788061732454700,37.93845458984375,0.003970621153712273,-0.008704823441803455,-0.004428769461810589
1781788061780982500,37.986982421875,0.0006872228696011007,-0.019700389355421066,0.006948587018996477
1781788061829510400,38.035510498046875,-0.00022907429956831038,-0.023212861269712448,0.024663666263222694
1781788061878038500,38.08403857421875,-0.04405862092971802,-0.045967575162649155,0.12186752259731293
1781788061926566400,38.13256640625,-0.1340848207473755,-0.09873101860284805,0.3442223072052002
1781788061975094300,38.18109423828125,-0.11384992301464081,-0.22495095431804657,0.36216646432876587
1781788062023622400,38.229622314453124,0.06001746281981468,-0.3748418986797333,0.1029307171702385
1781788062072150800,38.27815087890625,0.18700097501277924,-0.49968740344047546,-0.18173226714134216
1781788062169206300,38.375206298828125,0.19700388610363007,-0.48762279748916626,-0.23877176642417908
1781788062217734100,38.42373413085937,0.1778380125761032,-0.5300015807151794,-0.24258968234062195
1781788062266262000,38.47226196289063,0.10865757614374161,-0.5179370045661926,-0.22823435068130493
1781788062314790100,38.5207900390625,0.07750347256660461,-0.48067423701286316,-0.2860374450683594
1781788062363318000,38.569318115234374,-0.023747367784380913,-0.26687154173851013,-0.3637699782848358
1781788062411846100,38.61784619140625,-0.07170025259256363,0.021456625312566757,-0.16424626111984253
1781788062460374000,38.6663740234375,-0.04245510324835777,0.20166173577308655,0.15989385545253754
1781788062508902000,38.71490185546875,0.16073378920555115,-0.018096869811415672,0.5899426341056824
1781788062557430000,38.76342993164062,0.20822852849960327,-0.0256563201546669,1.008461356163025
1781788062605958000,38.8119580078125,-0.5031998753547668,0.729143500328064,0.4433351159095764
1781788062654485800,38.86048583984375,-0.5466476082801819,0.5237401723861694,0.060551971197128296
1781788062703013600,38.909013671875,-0.38293585181236267,0.5789470672607422,-0.11026109009981155
1781788062751541500,38.95754150390625,-0.1992182731628418,0.6680569648742676,-0.14485131204128265
1781788062800069400,39.0060693359375,-0.07215840369462967,0.6989056468009949,-0.12904518842697144
1781788062848597500,39.05459741210937,0.06406444311141968,0.48876819014549255,-0.02023489587008953
1781788062897125400,39.10312548828125,0.05711585655808449,0.38263043761253357,0.025503603741526604
1781788062994181400,39.200181396484375,0.4615846872329712,0.15210533142089844,0.0206166859716177
1781788063042709200,39.24870922851562,0.47929978370666504,0.1427132785320282,0.04734202101826668
1781788063091237400,39.2972373046875,0.04108065739274025,0.24556763470172882,-0.12759438157081604
1781788063139765200,39.34576513671875,-0.14607304334640503,0.02756527252495289,-0.03390299528837204
1781788063188293000,39.394293212890624,-0.19356778264045715,0.11262819170951843,0.11232276260852814
1781788063236821000,39.44282104492188,0.13958260416984558,0.40721774101257324,-0.1744018942117691
1781788063285349000,39.49134912109375,0.4087449014186859,0.616209864616394,-0.19967642426490784
1781788063333877000,39.539876953125,0.3159697949886322,1.2173007726669312,-0.11804962158203125
1781788063382404900,39.58840478515625,0.36506807804107666,1.2203551530838013,0.051389001309871674
1781788063430932700,39.6369326171875,0.173256516456604,1.1586577892303467,-0.021914774551987648
1781788063479460900,39.6854609375,-0.08338304609060287,1.0794744491577148,-0.43165233731269836
1781788063527988500,39.73398852539062,-0.12774710357189178,0.9823469519615173,-0.5958985686302185
1781788063576516400,39.782516357421876,-0.2012035846710205,1.0600794553756714,-0.6712640523910522
1781788063625044500,39.83104443359375,-0.35071274638175964,1.2315797805786133,-0.5631409883499146
1781788063673572400,39.879572265625,-0.2515999376773834,1.2954914569854736,-0.28496840596199036
1781788063722100200,39.92810034179688,-0.04848739132285118,0.8454368710517883,-0.17562362551689148
1781788063770628000,39.976628173828125,0.35498878359794617,-0.07414371520280838,0.46112653613090515
1781788063819156200,40.02515625,-0.03367391973733902,-0.9299652576446533,0.7535017132759094
1781788063867684000,40.07368408203125,-0.0066431546583771706,-1.5959606170654297,1.0440442562103271
1781788063916212000,40.1222119140625,-0.23892448842525482,-1.4379756450653076,0.9409608244895935
1781788063964740000,40.170739990234374,-0.9049961566925049,-1.3544399738311768,0.60406893491745
1781788064013268000,40.21926806640625,-0.7754928469657898,-0.8484148383140564,0.560850203037262
1781788064061795800,40.2677958984375,-0.4650971591472626,-1.1028399467468262,0.2317468225955963
1781788064110323700,40.31632373046875,0.0038179049734026194,-0.21846051514148712,-0.1957821547985077
1781788064158851600,40.3648515625,0.5020545125007629,0.1637117564678192,-0.0412333719432354
1781788064207379700,40.41337963867188,0.6999746561050415,0.06085740402340889,0.15439607203006744
1781788064255907600,40.461907470703125,0.11453714966773987,0.01107192412018776,0.19494222104549408
1781788064304435200,40.51043530273437,-0.4892263412475586,0.7589231133460999,-0.14080433547496796
1781788064352963300,40.55896337890625,-0.09766200929880142,0.6133846044540405,0.33971717953681946
1781788064401491200,40.6074912109375,0.42447465658187866,0.8229112029075623,-0.07994692772626877
1781788064450019000,40.65601904296875,0.17020219564437866,0.7446441650390625,-0.8062651753425598
1781788064498547000,40.704546875,0.4943423271179199,0.8943060636520386,-0.6029998660087585
1781788064547075000,40.753074951171875,0.1265253722667694,1.4208714962005615,-0.5682569742202759
1781788064644130600,40.85013061523438,-0.08132137358188629,0.6709585785865784,-0.7803797721862793
1781788064692658700,40.89865869140625,-0.35300347208976746,0.7302125096321106,-0.7036398649215698
1781788064741186600,40.9471865234375,-0.7066178321838379,1.0523673295974731,-0.4741837978363037
1781788064789714400,40.99571435546875,-0.33505934476852417,0.6613374948501587,-0.3064250349998474
1781788064838242300,41.0442421875,0.395305871963501,0.18692462146282196,0.38469210267066956
1781788064886770200,41.09277026367187,0.5022835731506348,-1.3972768783569336,1.1320087909698486
1781788064935298000,41.14129809570313,0.25725042819976807,-2.3833653926849365,1.5506038665771484
1781788064983826200,41.189826171875,-0.30169084668159485,-1.241811752319336,0.568027913570404
1781788065032354000,41.23835400390625,-1.2008074522018433,-1.1145991086959839,0.5746710300445557
1781788065080882000,41.2868818359375,-1.0877974033355713,-0.8093958497047424,0.5180897116661072
1781788065129410000,41.33541015625,-0.12240202724933624,-1.0432807207107544,0.1853974610567093
1781788065177938000,41.38393798828125,0.8429170250892639,-0.43203410506248474,-0.1966221034526825
1781788065226465800,41.4324658203125,0.9307288527488708,-0.274812787771225,-0.05894844979047775
1781788065274993700,41.48099365234375,0.30863943696022034,-0.6312524080276489,0.4010327160358429
1781788065323521500,41.529521484375,0.24281874299049377,-0.8157335519790649,0.013362666592001915
1781788065372049400,41.57804931640625,0.005421424750238657,-0.0922405794262886,-0.23922991752624512
1781788065420577300,41.62657739257813,-0.26480987668037415,0.2559523284435272,-0.0034361144062131643
1781788065469105200,41.675105224609375,-0.0870482325553894,0.46922051906585693,0.17638720571994781
1781788065517633000,41.72363305664062,0.2548069655895233,0.47960519790649414,-0.8156571984291077
1781788065566161200,41.7721611328125,0.358348548412323,1.0334304571151733,-0.75571608543396
1781788065614689000,41.82068896484375,-0.106366828083992,1.9855395555496216,-0.48533207178115845
1781788065663217000,41.869216796875,0.1758527010679245,1.2747220993041992,-0.3951531648635864
1781788065711744800,41.91774487304688,-0.019394956529140472,0.8004619479179382,-0.8223767280578613
1781788065760272600,41.966272705078126,-0.6265945434570312,1.3270273208618164,-0.5417606830596924
1781788065808800800,42.01480078125,-0.6506473422050476,0.8851430416107178,-0.5364919900894165
1781788065857328600,42.06332861328125,0.08422297984361649,0.2972620725631714,-0.09445496648550034
1781788065905856500,42.1118564453125,0.7698423266410828,-1.7043126821517944,0.7389936447143555
1781788065954384000,42.1603837890625,0.41874781250953674,-2.7718753814697266,1.5683189630508423
1781788066002911700,42.20891186523438,0.0948367565870285,-2.245309829711914,1.0132719278335571
1781788066051439900,42.25743994140625,-0.8077923059463501,-1.6565889120101929,0.46227192878723145
1781788066099967700,42.3059677734375,-1.284114122390747,-1.0519092082977295,0.4004218578338623
1781788066148495600,42.35449560546875,-0.49197521805763245,-1.4410300254821777,0.7183006405830383
1781788066197023500,42.4030234375,0.6965385675430298,-0.9799798130989075,0.05520690605044365
1781788066294079500,42.50007958984375,0.4059959948062897,-0.4797579348087311,0.32383468747138977
1781788066342607400,42.548607421875,0.3730092942714691,-0.5199986696243286,-0.05994110554456711
1781788066391135200,42.59713525390625,-0.1602756530046463,0.32704174518585205,0.17707443237304688
1781788066439663000,42.6456630859375,-0.42416924238204956,0.567951500415802,-0.06146826967597008
1781788066488191000,42.69419091796875,-0.013515383005142212,0.8605557680130005,-0.06956222653388977
1781788066536718800,42.74271875,0.4105774760246277,0.5251146554946899,-1.0402263402938843
1781788066585246700,42.79124682617187,0.5509236454963684,0.7426588535308838,-0.7539598345756531
1781788066633774600,42.839774658203126,-0.10430516302585602,1.811824917793274,-0.5211440324783325
1781788066682302500,42.88830249023437,0.035124726593494415,1.3070214986801147,-0.4519635736942291
1781788066730830300,42.93683032226563,0.04535670951008797,1.049312949180603,-0.7659480571746826
1781788066779358200,42.985358154296875,-0.8078686594963074,1.5470913648605347,-0.46028661727905273
1781788066827886000,43.03388598632812,-0.6005564332008362,0.7949641346931458,-0.520380437374115
1781788066876414000,43.0824140625,0.34345871210098267,0.06849320977926254,0.022220205515623093
1781788066924942000,43.13094213867188,1.0833686590194702,-1.499062180519104,1.0206023454666138
1781788066973470000,43.179469970703124,0.9321032762527466,-2.6761984825134277,1.9021565914154053
1781788067021997600,43.22799755859375,0.26648977398872375,-1.9557600021362305,1.2722786664962769
1781788067070525400,43.276525390625,-0.9379828572273254,-0.9731075763702393,-0.03153589367866516
1781788067119053300,43.32505322265625,-1.230816125869751,-0.4601338803768158,0.5232056975364685
1781788067167581200,43.37358129882813,-0.5209149122238159,-0.8421534299850464,0.4284452795982361
1781788067216109300,43.422109375,0.6824886798858643,-0.4528798758983612,-0.29390230774879456
1781788067264637200,43.47063720703125,1.0131192207336426,-0.4811323583126068,0.019394956529140472
1781788067313165000,43.5191650390625,0.33750277757644653,-0.5595521330833435,0.34437501430511475
1781788067361693000,43.56769287109375,0.09582941234111786,-0.09521854668855667,-0.1787542998790741
1781788067410220800,43.616220703125,-0.41439539194107056,0.9230930209159851,-0.22044582664966583
1781788067458748700,43.66474877929687,-0.5940660238265991,1.25311279296875,0.018631376326084137
1781788067507276500,43.713276611328126,-0.12774710357189178,1.361846685409546,-0.6562215089797974
1781788067555804400,43.761804443359374,0.5275580883026123,1.173471212387085,-1.1207077503204346
1781788067604332300,43.81033227539063,0.3476584255695343,2.0824379920959473,-0.9302706718444824
1781788067701388000,43.90738793945312,0.04001164436340332,1.5151736736297607,-0.6204095482826233
1781788067749916000,43.955916015625,-0.3863719701766968,1.1848485469818115,-0.9211077094078064
1781788067798443800,44.00444384765625,-0.8504001498222351,0.9395100474357605,-0.3361283540725708
1781788067846971600,44.0529716796875,-0.41439539194107056,0.2622900605201721,-0.5048797130584717
1781788067895499500,44.10149951171875,0.5012909173965454,-0.4350884258747101,0.291229784488678
1781788067944027400,44.15002734375,0.9069051146507263,-1.971184253692627,1.2883901596069336
1781788067992555300,44.19855517578125,0.4949531853199005,-2.568915367126465,1.9328525066375732
1781788068041083100,44.24708325195313,-0.506483256816864,-0.9941060543060303,0.37270388007164
1781788068089611000,44.295611083984376,-1.2576942443847656,-0.8232166767120361,0.5789470672607422
1781788068138139000,44.34413891601562,-1.1755329370498657,-0.5290089249610901,0.6052906513214111
1781788068186666800,44.39266674804688,0.024740023538470268,-0.737695574760437,0.25213444232940674
1781788068235194600,44.441194580078125,1.4090359210968018,-0.7442623972892761,-0.26274821162223816
1781788068283722500,44.48972241210937,0.795040488243103,-0.8035162687301636,0.2381609082221985
1781788068332250400,44.53825048828125,0.16707152128219604,-0.615293562412262,0.12240202724933624
1781788068380778200,44.5867783203125,0.16340632736682892,0.22090397775173187,-0.5727620720863342
1781788068429306000,44.63530615234375,-0.279394268989563,0.7160098552703857,-0.03817904740571976
1781788068477834200,44.68383422851562,-0.4177551567554474,1.1256710290908813,0.3816377818584442
1781788068526362000,44.732362060546876,0.09720385819673538,0.8082504868507385,-0.8818596601486206
1781788068574890000,44.780889892578124,0.6149117350578308,1.3545162677764893,-0.8268818259239197
1781788068623417900,44.82941796875,-0.09071341902017593,2.6248860359191895,-0.809548556804657
1781788068671945700,44.87794580078125,-0.1340084671974182,2.2388193607330322,-0.6891318559646606
1781788068720473300,44.92647338867187,0.16218459606170654,1.4391974210739136,-1.0932189226150513
1781788068769001200,44.97500122070313,-0.6807324290275574,1.4398846626281738,-0.6635518670082092
1781788068817529000,45.023529052734375,-0.9537889957427979,0.8711695075035095,-0.5493201613426208
1781788068866057000,45.07205688476562,0.5032762289047241,-0.05001455545425415,-0.03474293276667595
1781788068914584800,45.12058471679688,1.0761146545410156,-1.574733018875122,1.3688715696334839
1781788068963112700,45.16911279296875,0.34322965145111084,-2.5478405952453613,2.050520420074463
1781788069011640600,45.217640625,-0.13156500458717346,-1.6633847951889038,0.6388118267059326
1781788069060168200,45.266168212890626,-1.2877793312072754,-1.0652718544006348,0.5394699573516846
1781788069108696000,45.314696044921874,-1.4966950416564941,-0.5800924897193909,0.43172869086265564
1781788069157224000,45.36322387695313,-0.39568766951560974,-0.8029053807258606,0.36338818073272705
1781788069205751800,45.411751708984376,1.0104466676712036,-0.6779835224151611,-0.12499820441007614
1781788069254279700,45.46027978515625,1.0309107303619385,-0.7661771774291992,0.3807978332042694
1781788069351335400,45.55733544921875,0.11514800786972046,0.2193768173456192,-0.653167188167572
1781788069399863600,45.605863525390625,-0.33567020297050476,1.169424295425415,-0.14332415163516998
1781788069448391400,45.65439135742187,-0.3546070158481598,1.6365830898284912,-0.010461059398949146
1781788069496919000,45.7029189453125,0.4552469849586487,0.9712749719619751,-1.00762140750885
1781788069545447000,45.751447021484374,0.7809906005859375,0.986393928527832,-1.1477385759353638
1781788069593974800,45.79997485351562,0.46372273564338684,1.8131229877471924,-0.8137482404708862
1781788069642502700,45.848502685546876,0.1453094631433487,1.8598542213439941,-0.2860374450683594
1781788069691030500,45.89703051757812,-0.02496909722685814,1.0506874322891235,-0.5826886296272278
1781788069739558400,45.94555834960938,-0.6459894776344299,1.4537054300308228,-0.5631409883499146
1781788069788086000,45.9940859375,-1.1831687688827515,0.9875392913818359,-0.43715012073516846
1781788069836614000,46.04261376953125,-0.19494222104549408,0.5110647678375244,-0.35132360458374023
1781788069885141800,46.09114184570313,0.5674170255661011,-0.45043641328811646,0.28695371747016907
1781788069933669600,46.139669677734375,0.5834522247314453,-2.3098323345184326,1.4563779830932617
1781788069982197500,46.18819750976562,0.14393500983715057,-2.0029492378234863,1.6013820171356201
1781788070030725600,46.2367255859375,-0.6689732670783997,-1.3170244693756104,0.32444554567337036
1781788070079253200,46.285253173828124,-1.3126720190048218,-0.9334014058113098,0.43608108162879944
1781788070127781000,46.33378100585937,-0.8430697321891785,-0.9317215085029602,0.6853139400482178
1781788070176309000,46.38230908203125,0.4408152997493744,-1.2243257761001587,0.11209368705749512
1781788070224836900,46.4308369140625,1.335503101348877,-0.7132610082626343,-0.041615162044763565
1781788070273364700,46.47936474609375,0.5956695079803467,-0.6138427257537842,0.488004595041275
1781788070321892600,46.527892578125,0.017486004158854485,-0.6417897939682007,0.2808450758457184
1781788070370420500,46.57642041015625,-0.35621052980422974,0.34574946761131287,-0.3333030939102173
1781788070418948400,46.6249482421875,-0.1360701322555542,0.6123155951499939,0.21059563755989075
1781788070467476000,46.67347607421875,0.5531380772590637,0.9698241949081421,-0.1925751268863678
1781788070516003800,46.72200390625,0.5041161775588989,0.5684860348701477,-1.324278473854065
1781788070564531700,46.77053173828125,0.6629409790039062,0.8391754627227783,-0.9545525908470154
1781788070613059600,46.8190595703125,0.05940660089254379,1.8380920886993408,-0.48876819014549255
1781788070661587500,46.86758740234375,-0.150196373462677,1.3946043252944946,-0.6360629796981812
1781788070710115000,46.91611499023438,-0.11614066362380981,1.3388628959655762,-1.1904990673065186
1781788070758643000,46.964642822265624,-1.190651774406433,1.7140865325927734,-0.21265730261802673
1781788070807170800,47.0131708984375,-0.568562388420105,0.5281689763069153,-0.29153522849082947
1781788070855698700,47.06169873046875,0.8452077507972717,-0.2998582422733307,0.3228420317173004
1781788070952754400,47.15875439453125,0.25503605604171753,-2.207818031311035,1.8208352327346802
1781788071001282300,47.2072822265625,-0.3920988440513611,-1.1931716203689575,0.23503021895885468
1781788071049810200,47.25581005859375,-1.206916093826294,-1.1088722944259644,0.4739547073841095
1781788071098338000,47.30433813476562,-1.3395501375198364,-0.5866592526435852,0.5584067702293396
1781788071146866000,47.35286596679688,-0.14996729791164398,-0.9610430002212524,0.4560105502605438
1781788071195393800,47.401393798828124,1.0911571979522705,-0.6878337264060974,0.01779143698513508
1781788071243921700,47.44992163085937,0.8244383931159973,-0.7380773425102234,0.391182541847229
1781788071292449300,47.49844921875,0.1493564397096634,-0.5690969228744507,0.3304014801979065
1781788071340977200,47.54697705078125,-0.2770271897315979,0.3563632369041443,-0.5368737578392029
1781788071389505000,47.59550512695313,-0.3004691004753113,0.9436333775520325,0.15378521382808685
1781788071438032600,47.64403271484375,0.4615083336830139,1.476841926574707,-0.17111849784851074
1781788071486560500,47.692560546875,0.4572322964668274,0.8522327542304993,-1.4833323955535889
1781788071535088400,47.74108837890625,0.614682674407959,1.1026109457015991,-1.0127373933792114
1781788071583616300,47.7896162109375,0.051618073135614395,2.102214813232422,-0.47761988639831543
1781788071632144100,47.83814404296875,-0.2600756883621216,1.6363539695739746,-0.524503767490387
1781788071680672000,47.88667211914063,-0.24113887548446655,1.411173939704895,-1.0833686590194702
1781788071729199900,47.935199951171874,-1.0423643589019775,1.5553381443023682,-0.536644697189331
1781788071777727700,47.98372778320312,-0.58749920129776,0.3402516841888428,-0.3788125216960907
1781788071826255600,48.03225561523438,0.8436806201934814,-0.735633909702301,0.41439539194107056
1781788071874783500,48.080783447265624,0.9524909257888794,-2.271806001663208,1.472718596458435
1781788071923311000,48.12931103515625,0.15523600578308105,-2.3422083854675293,1.7922009229660034
1781788071971839000,48.1778388671875,-0.22853977978229523,-1.422093152999878,0.4396699368953705
1781788072020366600,48.22636669921875,-1.2039381265640259,-1.2424989938735962,0.4718930423259735
1781788072068894500,48.27489453125,-1.4185043573379517,-0.9142354726791382,0.4231765866279602
1781788072117422300,48.32342236328125,-0.14714205265045166,-1.2966368198394775,0.38041603565216064
1781788072165950200,48.3719501953125,1.2096649408340454,-0.8135955333709717,0.013744457624852657
1781788072214478000,48.42047802734375,0.8870519995689392,-0.6281217336654663,0.5713876485824585
1781788072263005700,48.46900561523437,0.05261072888970375,-0.5319868922233582,0.5093848705291748
1781788072311533600,48.51753344726563,0.24526220560073853,-0.011148282326757908,-0.3401753306388855
1781788072360061400,48.5660615234375,-0.3849211633205414,0.5486329197883606,-0.0009926552884280682
1781788072408589300,48.61458935546875,0.06017018109560013,1.4284309148788452,-0.027259841561317444
1781788072457117000,48.66311694335938,0.7257837057113647,0.7350993752479553,-1.0982584953308105
1781788072554172700,48.76017260742187,0.312228262424469,1.7482949495315552,-0.8585704565048218
1781788072602700500,48.808700439453126,-0.015577051788568497,2.0979387760162354,-0.560315728187561
1781788072651228400,48.857228515625,-0.16134466230869293,1.5629738569259644,-0.9824233055114746
1781788072699756300,48.90575634765625,-1.1520146131515503,2.034790515899658,-0.4456258714199066
1781788072748284200,48.9542841796875,-0.6209440231323242,0.6814960241317749,-0.3592648506164551
1781788072796811800,49.00281176757812,0.5034289360046387,-0.0888044685125351,0.030466880649328232
1781788072845339400,49.05133935546875,1.1011601686477661,-1.7812052965164185,1.455919861793518
1781788072893867300,49.0998671875,0.506483256816864,-2.2400412559509277,2.0702970027923584
1781788072942395100,49.14839501953125,-0.19234605133533478,-1.0677915811538696,0.5117519497871399
1781788072990923000,49.19692309570313,-1.2207368612289429,-1.071227788925171,0.32184937596321106
1781788073039451000,49.245450927734375,-1.5344159603118896,-0.7372374534606934,0.31757333874702454
1781788073087978800,49.29397875976562,-0.3185659945011139,-1.0938297510147095,0.3814850449562073
1781788073136506400,49.34250634765625,1.117348074913025,-0.6288089156150818,-0.016187917441129684
1781788073185034200,49.3910341796875,1.08810293674469,-0.6437751054763794,0.4235583543777466
1781788073233562000,49.43956201171875,0.08315397053956985,-0.5051088333129883,0.47204574942588806
1781788073282090000,49.488090087890626,-0.15325069427490234,0.09980003535747528,-0.2703840136528015
1781788073330617900,49.53661791992187,-0.2848920524120331,0.6621774435043335,0.10865757614374161
1781788073379145700,49.58514575195313,-0.02741255611181259,1.4357613325119019,-0.09262236952781677
1781788073427673300,49.63367333984375,0.2810741662979126,0.8126792311668396,-1.4466041326522827
1781788073476201200,49.682201171875,0.6847030520439148,0.986928403377533,-1.096655011177063
1781788073524728800,49.730728759765626,0.2645808160305023,1.9621740579605103,-0.7015781998634338
1781788073573256700,49.77925659179687,-0.19799654185771942,2.20155668258667,-0.5150353908538818
1781788073621784600,49.82778466796875,-0.0694858655333519,1.4970004558563232,-0.9934188723564148
1781788073670312400,49.8763125,-0.8518509268760681,1.9075779914855957,-1.02655827999115
1781788073718840000,49.92484008789062,-0.8478039503097534,0.8303943276405334,-0.2548833191394806
1781788073767368000,49.97336791992188,0.35155269503593445,0.028557928279042244,-0.116751529276371
1781788073815895600,50.0218955078125,0.8763619065284729,-1.5709151029586792,1.089859127998352
1781788073864423400,50.07042333984375,0.693636953830719,-3.238194227218628,2.1765875816345215
1781788073912951300,50.118951416015626,-0.1847866028547287,-1.6792672872543335,0.9626465439796448
1781788073961479200,50.167479248046874,-1.2132538557052612,-1.4002548456192017,0.26969680190086365
1781788074010006800,50.2160068359375,-1.5262455940246582,-1.0069342851638794,0.5164861679077148
1781788074107062500,50.3130625,1.0929898023605347,-0.9912044405937195,-0.046196650713682175
1781788074155590400,50.36159033203125,1.2343286275863647,-0.6960040330886841,0.49510589241981506
1781788074204118300,50.4101181640625,-0.037720900028944016,-0.4333322048187256,0.7005091905593872
1781788074252646000,50.45864599609375,0.15179990231990814,-0.050930850207805634,-0.35010188817977905
1781788074301173800,50.507173828125,-0.22350014746189117,0.43195775151252747,0.12140937149524689
1781788074349701600,50.55570166015625,-0.14194969832897186,1.2074506282806396,0.1398116797208786
1781788074398229500,50.6042294921875,0.3692677617073059,0.4895317554473877,-1.1957677602767944
1781788074446757000,50.652757080078125,0.705472469329834,0.6934078931808472,-1.204319953918457
1781788074495284700,50.70128466796875,0.1314886510372162,1.8642065525054932,-0.808937668800354
1781788074543812600,50.7498125,-0.051389001309871674,1.8598542213439941,-0.5003746151924133
1781788074592340500,50.798340576171874,0.023594651371240616,1.200196623802185,-0.9815833568572998
1781788074640868000,50.8468681640625,-0.9860121011734009,1.716911792755127,-0.8011491298675537
1781788074689396000,50.89539599609375,-0.7019599676132202,0.6141481995582581,-0.4667770564556122
1781788074737923800,50.943923828125,0.5313760042190552,-0.07231111824512482,-0.19868376851081848
1781788074786451700,50.99245166015625,0.7728966474533081,-1.4437025785446167,1.1095595359802246
1781788074834979300,51.040979248046874,0.33689191937446594,-2.607170820236206,2.069075345993042
1781788074883507000,51.0895068359375,0.16500984132289886,-1.4581341743469238,1.2437970638275146
1781788074932034800,51.138034912109376,-1.0012837648391724,-1.0603848695755005,0.32246023416519165
1781788074980562700,51.18656274414062,-1.415450096130371,-1.0840559005737305,0.5251910090446472
1781788075029090600,51.23509057617188,-0.43516480922698975,-1.5165481567382812,0.5394699573516846
1781788075077618200,51.2836181640625,1.1312452554702759,-1.4773001670837402,-0.04558578506112099
1781788075126146000,51.33214599609375,1.3045017719268799,-1.2656354904174805,0.3765217661857605
1781788075174674000,51.380673828125,0.13164135813713074,-0.5843685269355774,0.8402445316314697
1781788075223201500,51.42920141601562,0.1792888194322586,-0.15325069427490234,-0.12469277530908585
1781788075271729400,51.4777294921875,-0.5270236134529114,0.565889835357666,-0.09521854668855667
1781788075320257300,51.52625732421875,-0.31383177638053894,1.1869865655899048,-0.036193739622831345
1781788075368785200,51.57478515625,0.47067132592201233,0.6463713049888611,-1.1436152458190918
1781788075417312800,51.62331274414063,0.77618008852005,0.8967494964599609,-1.033964991569519
1781788075465840400,51.67184033203125,0.27924156188964844,1.9536218643188477,-0.8502474427223206
1781788075514368300,51.7203681640625,0.04955640435218811,2.359236240386963,-0.5352702736854553
1781788075562896100,51.768896240234376,0.08582650125026703,1.4939461946487427,-0.9889137148857117
1781788075611423700,51.817423828125,-0.6296488642692566,1.8146501779556274,-1.1407899856567383
1781788075708479500,51.9144794921875,0.17478369176387787,0.3058905303478241,-0.2658025324344635
1781788075757007000,51.96300708007813,0.6645445227622986,-0.9117920398712158,1.0835977792739868
1781788075805535000,52.011534912109376,1.0045671463012695,-2.9504005908966064,2.402378559112549
1781788075854062800,52.06006274414062,0.011148282326757908,-1.1935534477233887,1.2231804132461548
1781788075902590500,52.10859057617188,-1.4006365537643433,-0.9916626214981079,0.1862373948097229
1781788075951118300,52.157118408203125,-1.7053817510604858,-1.2137882709503174,0.4378373324871063
1781788075999646000,52.20564599609375,-0.5977311730384827,-1.4021637439727783,0.6461422443389893
1781788076048173800,52.254173828125,0.8718567490577698,-1.141248106956482,0.17088942229747772
1781788076096701400,52.30270141601562,1.4024691581726074,-0.9559270143508911,0.25725042819976807
1781788076145229300,52.35122924804688,0.2464839369058609,-0.4673115611076355,0.6272817850112915
1781788076193757200,52.399757080078125,0.28351762890815735,-0.3098611533641815,0.013744457624852657
1781788076242284800,52.44828491210937,-0.3274998664855957,0.34292420744895935,-0.06391172856092453
1781788076290812700,52.49681274414063,-0.4849502742290497,0.746858537197113,0.05871937796473503
1781788076339340500,52.545340576171874,0.35651594400405884,0.3500255048274994,-0.8948405385017395
1781788076387868200,52.5938681640625,0.8386409878730774,0.6245328783988953,-1.232037901878357
1781788076436395800,52.642395751953124,0.2853502035140991,1.824653148651123,-1.062981128692627
1781788076484923600,52.69092358398437,0.13454297184944153,2.182008981704712,-0.4515054225921631
1781788076533451500,52.739451416015626,0.17608177661895752,1.5251766443252563,-0.8071050643920898
1781788076581979100,52.787979248046874,-0.3920224606990814,1.7470732927322388,-1.1964550018310547
1781788076630507000,52.83650708007813,-1.1334595680236816,1.3844486474990845,-0.41729700565338135
1781788076679034600,52.88503466796875,0.21777328848838806,0.2781725525856018,-0.29397866129875183
1781788076727562500,52.9335625,0.9915099143981934,-0.8349757790565491,0.8097012639045715
1781788076776090000,52.982090087890626,0.4517345130443573,-2.3843579292297363,1.9030728340148926
1781788076824618000,53.03061791992187,0.35498878359794617,-1.6611703634262085,1.95438551902771
1781788076873145900,53.07914575195313,-0.6579777002334595,-0.8987348079681396,0.28183773159980774
1781788076921673700,53.127673828125,-1.614973783493042,-0.8360447883605957,0.31894776225090027
1781788076970201000,53.176201171875,-1.114904522895813,-1.0851249694824219,0.6842449307441711
1781788077018729000,53.22472900390625,0.22983787953853607,-1.152854561805725,0.29741477966308594
1781788077067256800,53.2732568359375,1.5648064613342285,-1.1630102396011353,0.03367391973733902
1781788077115784400,53.32178442382813,0.5207622051239014,-0.5761982202529907,0.7873283624649048
1781788077164312300,53.370312255859375,0.05841394513845444,-0.24915647506713867,0.31955865025520325
1781788077212840000,53.41883984375,-0.3148244321346283,0.42394015192985535,-0.38965538144111633
1781788077309895700,53.515895751953124,0.2496146261692047,0.8320741653442383,-0.9001855850219727
1781788077358423300,53.56442333984375,0.7871756553649902,0.6483566164970398,-1.322827696800232
1781788077406951000,53.612950927734374,0.5130500793457031,1.7804417610168457,-1.017166256904602
1781788077455478800,53.66147875976562,-0.0012980876490473747,2.473391532897949,-0.4886154532432556
1781788077504006400,53.71000634765625,-0.06887500733137131,1.810374140739441,-0.8567378520965576
1781788077552534300,53.7585341796875,-0.5958222150802612,1.862373948097229,-1.2509746551513672
1781788077601062000,53.807061767578126,-1.0906226634979248,1.1934770345687866,-0.5694023370742798
1781788077698117600,53.90411767578125,0.7001274228096008,-0.7252492308616638,0.5187005400657654
1781788077746645200,53.952645263671876,0.5267181396484375,-2.6773440837860107,1.877492904663086
1781788077795173000,54.00117309570312,0.49457138776779175,-2.256305456161499,2.236452341079712
1781788077843700700,54.04970068359375,-0.8697187304496765,-1.3439024686813354,0.05543597787618637
1781788077892228600,54.098228515625,-1.5304453372955322,-1.0984876155853271,0.5007563829421997
1781788077940756200,54.14675610351563,-0.7895427346229553,-1.3320670127868652,0.5946004986763
1781788077989284000,54.1952841796875,0.7060832977294922,-1.2774709463119507,0.02893971838057041
1781788078037811700,54.24381176757812,1.5415936708450317,-1.1089487075805664,0.2248746007680893
1781788078086339600,54.29233959960938,0.21861323714256287,-0.4525744318962097,1.3735294342041016
1781788078134867200,54.3408671875,0.04718930274248123,-0.21952952444553375,-0.054672397673130035
1781788078183395000,54.38939501953125,-0.3545306324958801,0.45471248030662537,-0.2796997129917145
1781788078231922700,54.437922607421875,-0.7377719283103943,1.0299943685531616,-0.012140937149524689
1781788078280450600,54.48645043945312,0.1888335794210434,0.861319363117218,-0.9148463606834412
1781788078328978200,54.53497827148438,1.0706168413162231,0.946458637714386,-0.994029700756073
1781788078377506000,54.583506103515624,0.21555891633033752,2.2675299644470215,-1.2371538877487183
1781788078426033700,54.63203369140625,-0.13813179731369019,2.6529858112335205,-0.6521745324134827
1781788078474561500,54.6805615234375,0.15431971848011017,1.5211296081542969,-0.9528726935386658
1781788078523089200,54.72908911132812,-0.4953349828720093,1.3023637533187866,-1.2713623046875
1781788078571616800,54.77761669921875,-1.162322998046875,0.9975422024726868,-0.2835939824581146
1781788078620144600,54.82614453125,0.19074252247810364,0.028787001967430115,-0.5350412130355835
1781788078668672300,54.87467236328125,0.7205150127410889,-0.4237110912799835,0.4101957082748413
1781788078717200100,54.9232001953125,0.6588940024375916,-2.2029311656951904,1.7049999237060547
1781788078814255400,55.02025537109375,-0.6266708970069885,-1.008537769317627,0.2297615110874176
1781788078862783000,55.06878295898437,-1.5722131729125977,-1.1435388326644897,0.5099957585334778
1781788078911310800,55.117310791015626,-1.0521382093429565,-1.3039672374725342,0.7337249517440796
1781788078959838500,55.16583837890625,0.13164135813713074,-1.081230640411377,0.38843363523483276
1781788079008366300,55.21436645507813,1.3885719776153564,-1.0983349084854126,-0.032681263983249664
1781788079056894000,55.26289404296875,0.9726494550704956,-1.0636682510375977,0.5404626131057739
1781788079105421800,55.311421875,-0.05787943676114082,-0.27282747626304626,0.6815723776817322
1781788079153949400,55.359949462890626,-0.057268574833869934,0.09353867173194885,-0.5587121844291687
1781788079202477300,55.40847729492187,-0.47326749563217163,0.5687914490699768,-0.03558287397027016
1781788079251005200,55.45700512695313,-0.0792597085237503,0.792062520980835,0.16294817626476288
1781788079299532800,55.50553271484375,0.2835939824581146,0.35063639283180237,-1.4004838466644287
1781788079348060400,55.55406030273438,0.7975603342056274,0.5563451051712036,-0.6773726940155029
1781788079396588300,55.60258837890625,0.16096286475658417,1.8597015142440796,-0.7847321629524231
1781788079445116000,55.65111596679687,-0.032070402055978775,1.8081597089767456,-0.6472876071929932
1781788079493643500,55.6996435546875,0.1378263682126999,1.6310852766036987,-1.0074687004089355
1781788079542171100,55.74817114257812,-0.5820014476776123,1.7074434757232666,-0.8494074940681458
1781788079590699000,55.79669897460938,-0.9051488637924194,0.9230166673660278,-0.630107045173645
1781788079639226600,55.8452265625,0.6097957491874695,0.18898628652095795,-0.27374377846717834
1781788079687754500,55.89375439453125,0.9040035009384155,-1.2471568584442139,1.075961947441101
1781788079736282000,55.9422822265625,0.4395935535430908,-2.7908120155334473,2.4672064781188965
1781788079784810000,55.99081005859375,0.05612320080399513,-1.2581523656845093,1.3604722023010254
1781788079833337600,56.03933764648438,-1.3597086668014526,-0.8520799875259399,0.2214384824037552
1781788079881865200,56.087865234375,-1.6353613138198853,-0.3522399067878723,0.40981391072273254
1781788079930393000,56.13639306640625,-0.6858484148979187,-0.7088322043418884,0.46433359384536743
1781788079978920700,56.184920654296874,0.830547034740448,-0.6391173005104065,-0.11339177191257477
1781788080027448600,56.23344848632812,1.2251657247543335,-0.7550288438796997,0.38408124446868896
1781788080075976200,56.28197607421875,0.38072147965431213,-0.5395463109016418,0.9247729182243347
1781788080124503800,56.33050390625,0.116751529276371,-0.6291907429695129,-0.5474112033843994
1781788080173031700,56.37903173828125,-0.5865065455436707,0.6010909676551819,-0.4463130831718445
1781788080221559300,56.427559326171874,-0.40691229701042175,0.9112575054168701,0.189444437623024
1781788080270087000,56.4760869140625,-0.08147408813238144,0.7062360644340515,-0.3685041666030884
1781788080318614800,56.52461474609375,0.5417606830596924,0.06986765563488007,-1.1772128343582153
1781788080367142400,56.57314233398437,0.7673225402832031,0.7405971884727478,-0.815199077129364
1781788080464198000,56.67019799804687,0.2755763828754425,1.1512510776519775,-0.5462658405303955
1781788080512725500,56.7187255859375,0.11743875592947006,1.3948333263397217,-0.8581886291503906
1781788080561253000,56.767253173828124,-1.1568251848220825,2.0047054290771484,-0.7712931632995605
1781788080609781000,56.81578100585938,-0.37171122431755066,0.5477929711341858,-0.6193405389785767
1781788080658308600,56.86430859375,1.0257946252822876,-0.95149827003479,0.21655155718326569
1781788080706836200,56.91283618164063,0.4411207437515259,-1.6352086067199707,1.3364194631576538
1781788080755364000,56.961364013671876,0.09560033679008484,-2.9891140460968018,1.7398192882537842
1781788080803891700,57.0098916015625,-0.08109229803085327,-1.6685007810592651,0.9245438575744629
1781788080852419300,57.05841943359375,-1.5896992683410645,-0.6291143894195557,0.37919431924819946
1781788080900947000,57.10694702148437,-1.489593744277954,-0.31177011132240295,0.6614902019500732
1781788080949474800,57.15547485351563,-0.3310123383998871,-0.5155698657035828,0.5195404887199402
1781788080998002400,57.20400244140625,0.978681743144989,-0.4405862092971802,-0.13187043368816376
1781788081046530300,57.2525302734375,1.010293960571289,-0.5414552688598633,0.6840158104896545
1781788081095058000,57.301057861328125,0.06261363625526428,-0.16852232813835144,1.026940107345581
1781788081143585500,57.34958544921875,0.2658788859844208,-0.723798394203186,-0.894076943397522
1781788081192113400,57.39811352539063,-0.06643154472112656,0.7778599262237549,-0.6143009066581726
1781788081240641000,57.44664111328125,-0.28092142939567566,1.0125846862792969,0.12179116904735565
1781788081289168600,57.49516870117188,-0.10743584483861923,1.1154390573501587,-0.3004691004753113
1781788081337696500,57.543696533203125,0.41492989659309387,0.4902953505516052,-1.3346631526947021
1781788081386224000,57.59222412109375,0.7736602425575256,0.7994692921638489,-0.9759328365325928
1781788081434751700,57.640751708984375,0.21899501979351044,1.5935171842575073,-0.714024543762207
1781788081483279600,57.68927954101562,0.08559742569923401,1.352454662322998,-0.366060733795166
1781788081531807200,57.73780712890625,-0.012675444595515728,1.1228457689285278,-0.6054433584213257
1781788081580334800,57.7863349609375,-0.8963677287101746,1.6295582056045532,-0.7303652167320251
1781788081628862700,57.83486279296875,-0.852996289730072,0.7144827246665955,-0.9799034595489502
1781788081677390000,57.88339013671875,0.2992473840713501,0.21662792563438416,-0.6683624386787415
1781788081725917700,57.93191772460938,0.78648841381073,-1.371620535850525,0.34643667936325073
1781788081774445600,57.980445556640625,0.1418733447790146,-2.5545601844787598,1.9314017295837402
1781788081822973200,58.02897314453125,0.020311253145337105,-1.7164536714553833,1.908265233039856
1781788081871500800,58.077500732421875,-0.8518509268760681,-1.3575706481933594,0.3370446562767029
1781788081968556300,58.17455639648438,-0.7730493545532227,-1.279685378074646,0.753043532371521
1781788082017084200,58.223084228515624,0.4169152081012726,-1.1068105697631836,0.2942841053009033
1781788082065611800,58.27161181640625,1.2845722436904907,-0.9965495467185974,0.0461202897131443
1781788082114139400,58.320139404296874,0.5975784659385681,-0.666987955570221,1.0588576793670654
1781788082162667000,58.3686669921875,0.10453423857688904,-0.7083740830421448,0.5751292109489441
1781788082211195000,58.41719482421875,-0.4006509482860565,0.021380268037319183,-0.3554469347000122
1781788082259722500,58.46572241210937,-0.4551706314086914,0.5722275972366333,0.11308634281158447
1781788082308250000,58.51425,0.3615556061267853,0.8971312642097473,-0.43226319551467896
1781788082356777700,58.56277783203125,0.7637336850166321,0.2926805913448334,-1.2988512516021729
1781788082405305300,58.61130541992188,0.9031635522842407,0.7334195375442505,-0.7450259327888489
1781788082453833000,58.6598330078125,0.5281689763069153,1.5245658159255981,-0.5248855352401733
1781788082502360800,58.70836083984375,0.2133445292711258,1.4624103307724,-0.5426006317138672
1781788082550888400,58.756888427734374,-0.2000582218170166,1.2380702495574951,-1.068937063217163
1781788082599416000,58.805416015625,-0.8849903345108032,1.641851782798767,-0.693636953830719
1781788082647943700,58.853943603515624,-0.6355284452438354,0.6472876071929932,-0.4540252387523651
1781788082696471600,58.90247143554687,0.34345871210098267,-0.09590577334165573,-0.17486004531383514
1781788082744999200,58.950999267578126,0.6347648501396179,-1.304730772972107,1.0341176986694336
1781788082793526800,58.99952685546875,-0.02412915788590908,-2.160170555114746,1.9581270217895508
1781788082842054400,59.048054443359376,0.16157373785972595,-0.9402735829353333,1.5428917407989502
1781788082890582300,59.096582275390624,-0.7970257997512817,-1.0052543878555298,0.31612253189086914
1781788082939109600,59.14510961914063,-1.6363539695739746,-0.31154105067253113,0.26908594369888306
1781788082987637500,59.193637451171874,-0.7665589451789856,-0.7686206102371216,0.33971717953681946
1781788083036165000,59.2421650390625,0.5930733680725098,-0.6682860851287842,-0.0007635809597559273
1781788083084692700,59.290692626953124,1.3597086668014526,-0.6077340841293335,0.4061487317085266
1781788083133220400,59.33922045898437,0.3340666890144348,-0.4828122556209564,0.886441171169281
1781788083181748200,59.387748291015626,0.21067199110984802,-0.8681915402412415,-0.24167338013648987
1781788083230276000,59.43627612304687,-0.21616977453231812,0.4730384051799774,-0.37949973344802856
1781788083278803500,59.484803466796876,-0.2611446976661682,0.8100066781044006,-0.0011453714687377214
1781788083327331000,59.5333310546875,0.38033968210220337,1.164919137954712,-0.17172935605049133
1781788083375859000,59.58185888671875,0.526870846748352,0.3580431044101715,-1.406745195388794
1781788083424386600,59.630386474609374,0.873078465461731,0.6923388838768005,-1.074434757232666
1781788083472914200,59.6789140625,0.42707082629203796,1.7801363468170166,-0.617355227470398
1781788083569969400,59.77596948242188,-0.18745912611484528,1.4091123342514038,-1.0937533378601074
1781788083618497000,59.8244970703125,-0.9230930209159851,1.5034146308898926,-0.490677148103714
1781788083667024600,59.87302465820313,-0.4402807950973511,0.2435823380947113,-0.47410741448402405
1781788083715552300,59.92155224609375,0.48678287863731384,-0.13744457066059113,0.09980003535747528
1781788083764080000,59.970080078125,0.6188823580741882,-1.401247501373291,1.2588396072387695
1781788083812607700,60.018607666015626,0.1891390085220337,-2.2970807552337646,2.065868377685547
1781788083861135400,60.06713525390625,-0.10514509677886963,-0.6443859934806824,0.8783472180366516
1781788083909663000,60.1156630859375,-1.195920467376709,-0.39744389057159424,0.24404047429561615
1781788083958190600,60.164190673828124,-1.4898228645324707,0.06666062027215958,0.5294670462608337
1781788084006718500,60.21271850585938,-0.630641520023346,-0.4770853817462921,0.2672533392906189
1781788084055246000,60.26124609375,0.7476221323013306,-0.5493201613426208,-0.005574141163378954
1781788084103773700,60.30977368164063,1.2171480655670166,-0.9757801294326782,0.7051670551300049
1781788084152301300,60.35830126953125,0.09193515032529831,-0.5041161775588989,0.5466476082801819
1781788084200829000,60.40682885742188,-0.261526495218277,0.11407899856567383,-0.4970148503780365
1781788084249356500,60.4553564453125,-0.6136136651039124,0.6860775351524353,-0.04108065739274025
1781788084297884200,60.50388427734375,0.4269181191921234,1.2011892795562744,-0.22510367631912231
1781788084346412000,60.552412109375,0.4503600597381592,0.5868119597434998,-1.5665627717971802
1781788084394939600,60.60093969726562,0.8701768517494202,0.46341729164123535,-0.9033926725387573
1781788084443467300,60.64946728515625,0.6122392416000366,1.4960078001022339,-0.6005564332008362
1781788084491995000,60.69799487304687,0.055512335151433945,1.5135701894760132,-0.6559923887252808
1781788084540522500,60.7465224609375,-0.22075125575065613,1.3431389331817627,-1.1375066041946411
1781788084589050000,60.795050048828124,-0.7601448893547058,1.3836851119995117,-0.9554688930511475
1781788084637577700,60.84357763671875,-0.8650608658790588,1.0110576152801514,-0.34521496295928955
1781788084686105300,60.892105224609374,0.17203480005264282,0.26022839546203613,-0.25931209325790405
1781788084734633000,60.94063305664063,0.737695574760437,-1.3338996171951294,0.9809724688529968
1781788084783160800,60.989160888671876,0.10560324788093567,-2.572580575942993,2.1886520385742188
