time,seconds_elapsed,z,y,x
1781788023912075500,0.118075439453125,0.010079269297420979,0.028557928279042244,-0.10735948383808136
1781788023960604000,0.16660400390625,-0.014737112447619438,0.20952661335468292,0.04657844081521034
1781788024009132300,0.21513232421875,-0.0001527161948615685,0.06711876392364502,0.07994692772626877
1781788024057660700,0.26366064453125,0.024205517023801804,0.04566214233636856,0.07887791097164154
1781788024106189000,0.31218896484375,0.047952886670827866,0.004734201822429895,0.09949459880590439
1781788024154717400,0.360717529296875,0.04413498193025589,0.04283689334988594,0.26167920231819153
1781788024203245800,0.409245849609375,-0.12438733875751495,0.07918334752321243,0.15615230798721313
1781788024251774200,0.457774169921875,-0.27137666940689087,0.14660754799842834,-0.1395062506198883
1781788024300302600,0.506302490234375,-0.5631409883499146,0.0720820426940918,-0.5284743905067444
1781788024348831000,0.5548310546875,-0.6057487726211548,-0.25274530053138733,-0.8231402635574341
1781788024397359600,0.603359619140625,-0.08613193035125732,-0.20769402384757996,-0.6565269231796265
1781788024445888000,0.651887939453125,0.03375028073787689,-0.06177370250225067,-0.03375028073787689
1781788024494416400,0.70041650390625,0.12148573249578476,-0.2917642891407013,0.054443322122097015
1781788024542944800,0.74894482421875,0.2026543915271759,-0.3727802336215973,0.07651081681251526
1781788024591473200,0.79747314453125,0.17967060208320618,-0.45677414536476135,0.05329795181751251
1781788024640001500,0.84600146484375,0.016416991129517555,-0.38354671001434326,0.1807396113872528
1781788024737058300,0.943058349609375,-0.10041090101003647,0.0102319847792387,-0.45509424805641174
1781788024785586700,0.991586669921875,0.04130972921848297,0.10835213959217072,-0.3441459536552429
1781788024834115000,1.040114990234375,-0.22357651591300964,-0.6547706723213196,0.3231474757194519
1781788024882643500,1.0886435546875,-0.10140355676412582,-0.3940841555595398,0.1651625633239746
1781788024931171800,1.137171875,0.060933761298656464,-0.1107192412018776,-0.03367391973733902
1781788024979700200,1.1857001953125,-0.0034361144062131643,-0.19669845700263977,0.09735657274723053
1781788025028228600,1.234228515625,0.028787001967430115,-0.1375209391117096,0.11392628401517868
1781788025076757000,1.282757080078125,0.053374309092760086,-0.02916879393160343,-0.02932151034474373
1781788025125285400,1.331285400390625,0.05367974191904068,-0.18776455521583557,0.07215840369462967
1781788025173813800,1.379813720703125,0.036193739622831345,-0.0965929925441742,-0.03917170315980911
1781788025222342100,1.428342041015625,-0.03894263133406639,-0.1893680840730667,0.051618073135614395
1781788025270870500,1.47687060546875,-0.16661337018013,-0.044440411031246185,0.1461493968963623
1781788025319399000,1.52539892578125,-0.24594943225383759,0.05001455545425415,0.07368556410074234
1781788025367927300,1.57392724609375,-0.3672824501991272,-0.0010690133785828948,0.22434009611606598
1781788025416455700,1.62245556640625,-0.37919431924819946,-0.26335906982421875,0.3068068325519562
1781788025464984000,1.670984130859375,-0.09666935354471207,0.1011744812130928,-0.14607304334640503
1781788025513512400,1.719512451171875,-0.4482983946800232,0.3217730224132538,-0.480903297662735
1781788025562040800,1.768040771484375,-0.5461894869804382,-0.27855435013771057,-0.05894844979047775
1781788025610569200,1.8165693359375,0.41004297137260437,-0.6820304989814758,0.18845178186893463
1781788025659097600,1.86509765625,0.015958841890096664,-1.5010474920272827,0.20937390625476837
1781788025707626000,1.9136259765625,-0.01954767294228077,-2.572580575942993,-0.01718057133257389
1781788025756154400,1.962154296875,0.787939190864563,-3.051880359649658,0.030390523374080658
1781788025804682800,2.010682861328125,1.307479739189148,-3.5931830406188965,0.8031344413757324
1781788025853211100,2.059211181640625,0.3776671588420868,-2.273715019226074,-0.28435754776000977
1781788025901739500,2.107739501953125,0.7263182401657104,-0.08009964227676392,-2.2310309410095215
1781788025950268000,2.156267822265625,-0.356286883354187,0.6405680775642395,-2.9657485485076904
1781788025998796000,2.204796142578125,-1.014493703842163,1.0015127658843994,-1.6994258165359497
1781788026047324700,2.25332470703125,-0.8272636532783508,0.7582359313964844,-1.2744166851043701
1781788026095852800,2.301852783203125,-0.776103675365448,0.5019781589508057,-1.2605195045471191
1781788026144381200,2.350381103515625,-0.08781181275844574,-0.18196134269237518,-1.0902409553527832
1781788026192909800,2.398909912109375,-0.016340631991624832,-0.261984646320343,-0.7955750226974487
1781788026241438000,2.44743798828125,-0.1302669197320938,0.4171442985534668,-0.39446592330932617
1781788026289966600,2.495966552734375,-0.14660754799842834,1.2940406799316406,0.4179842174053192
1781788026338494700,2.54449462890625,-0.47326749563217163,1.5220459699630737,1.0026581287384033
1781788026387023000,2.593023193359375,-0.7822887301445007,1.743866205215454,1.0990984439849854
1781788026435551500,2.641551513671875,-0.1870773434638977,0.8886555433273315,1.2499819993972778
1781788026484079900,2.690079833984375,0.07269290834665298,0.20631958544254303,0.9346994757652283
1781788026532608300,2.738608154296875,0.2323576956987381,-0.1049160286784172,0.5172497630119324
1781788026581136600,2.78713671875,0.034895651042461395,0.12667807936668396,0.16310089826583862
1781788026629665000,2.8356650390625,0.05352702736854553,0.38011062145233154,-0.031230462715029716
1781788026678193400,2.884193359375,0.02519817277789116,0.20349432528018951,-0.16035200655460358
1781788026726721800,2.9327216796875,-0.053145237267017365,0.08155044913291931,-0.0631481483578682
1781788026775250000,2.98125,-0.050778135657310486,0.09277509152889252,-0.08368847519159317
1781788026823778600,3.029778564453125,-0.041615162044763565,0.09812015295028687,0.003894262947142124
1781788026872306700,3.078306640625,-0.06994401663541794,0.17119485139846802,0.07261654734611511
1781788026920835000,3.1268349609375,0.027947064489126205,0.24289511144161224,0.26396992802619934
1781788026969363500,3.175363525390625,0.03810269013047218,0.12660172581672668,0.2292270064353943
1781788027017891800,3.223891845703125,0.08895718306303024,0.08811724185943604,0.03252854943275452
1781788027066420200,3.272420166015625,0.004428769461810589,0.04932733252644539,-0.08009964227676392
1781788027114948600,3.320948486328125,-0.011148282326757908,-0.035964664071798325,0.05108356848359108
1781788027163477000,3.36947705078125,0.009621120058000088,0.007941242307424545,-0.05177079141139984
1781788027212005000,3.418005126953125,0.01435532234609127,0.003512472379952669,0.028328854590654373
1781788027260533800,3.46653369140625,0.02107483521103859,0.005345067009329796,-0.029474224895238876
1781788027309062000,3.515061767578125,0.0345902182161808,0.0951421856880188,-0.053603384643793106
1781788027357590300,3.56359033203125,0.0062613640911877155,0.0058795735239982605,0.062537282705307
1781788027454647000,3.66064697265625,0.014813470654189587,0.0035888305865228176,0.0077121676877141
1781788027503175400,3.709175537109375,-0.002901607658714056,-0.005039634648710489,-0.034437503665685654
1781788027551703800,3.757703857421875,-0.002443459117785096,0.06085740402340889,-0.04245510324835777
1781788027600232200,3.806232177734375,-0.019471315667033195,0.019013166427612305,-0.002290742937475443
1781788027648760300,3.85476025390625,-0.014737112447619438,0.020158538594841957,0.00603228947147727
1781788027697288700,3.903288818359375,-0.018860450014472008,0.023518294095993042,0.018784092739224434
1781788027745817000,3.951817138671875,-0.028099779039621353,0.03940077871084213,0.008399390615522861
1781788027794345500,4.000345458984375,-0.018860450014472008,0.013133592903614044,0.001832594396546483
1781788027842873900,4.048873779296875,-0.05146535858511925,-0.031612250953912735,0.003665188793092966
1781788027891402200,4.09740234375,0.006337722297757864,0.024434590712189674,-0.03214675933122635
1781788027939930600,4.1459306640625,0.0017562361899763346,-0.016187917441129684,-0.0322994738817215
1781788027988458800,4.194458740234375,0.014584396965801716,-0.05085449293255806,-0.012980876490473747
1781788028036987100,4.242987060546875,0.0102319847792387,0.013668099418282509,-0.043829549103975296
1781788028085515500,4.291515625,0.01282816007733345,-0.0616973415017128,0.01870773360133171
1781788028134044000,4.3400439453125,0.05024362727999687,0.014584396965801716,-0.0007635809597559273
1781788028182572300,4.388572265625,0.0001527161948615685,-0.035735588520765305,0.020082179456949234
1781788028231100400,4.437100341796875,0.0022143847309052944,-0.034437503665685654,0.038560837507247925
1781788028279628800,4.48562890625,-0.0022143847309052944,-0.09430225193500519,0.041844237595796585
1781788028328157200,4.5341572265625,-0.03779725730419159,-0.35590508580207825,0.21143557131290436
1781788028376685600,4.582685546875,-0.034437503665685654,-0.5118283033370972,0.26389357447624207
1781788028425214000,4.6312138671875,-0.046654798090457916,-0.8277217745780945,0.2977965772151947
1781788028473742000,4.6797421875,0.0009162971982732415,-0.6061305999755859,0.13713914155960083
1781788028522270500,4.7282705078125,-0.025045456364750862,-0.11217004805803299,-0.02023489587008953
1781788028570798800,4.776798828125,-0.02756527252495289,0.11713331937789917,-0.12232567369937897
1781788028619327200,4.8253271484375,-0.039248060435056686,0.026878049597144127,-0.07269290834665298
1781788028667855600,4.873855712890625,-0.04627300798892975,0.05482511222362518,-0.0668896958231926
1781788028716384000,4.922384033203125,-0.05001455545425415,0.00954476185142994,-0.04535670951008797
1781788028764912400,4.970912353515625,-0.049632761627435684,0.04390590637922287,-0.04780016839504242
1781788028813440500,5.0194404296875,-0.004886918235570192,0.026572618633508682,-0.06520981341600418
1781788028861969000,5.067968994140625,0.009926552884280682,-0.00847574882209301,-0.04505127668380737
1781788028910497300,5.116497314453125,0.0386371985077858,0.03130681812763214,-0.08819360285997391
1781788028959025400,5.165025390625,0.011377356946468353,0.023441936820745468,-0.0795651376247406
1781788029007553800,5.2135537109375,0.010842849500477314,0.05146535858511925,-0.02825249545276165
1781788029056082200,5.262082275390625,0.01626427471637726,0.02626718580722809,-0.013286309316754341
1781788029104610600,5.310610595703125,0.003741546766832471,0.04520399495959282,0.006185005884617567
1781788029153139000,5.359138916015625,-0.003283398225903511,0.06299543380737305,-0.011148282326757908
1781788029201667000,5.4076669921875,-0.016646064817905426,0.03756818547844887,-0.005650499369949102
1781788029250195500,5.456195556640625,-0.009773836471140385,0.029856016859412193,-0.005039634648710489
1781788029298723800,5.504723876953125,0.0035888305865228176,0.028176138177514076,-0.01695149764418602
1781788029347252200,5.553252197265625,0.006108647678047419,0.04169152304530144,-0.057726722210645676
1781788029395780400,5.6017802734375,0.023976443335413933,0.03504836559295654,0.0154243353754282
1781788029444308700,5.650308837890625,0.00038179047987796366,-0.015729768201708794,-0.0013744457392022014
1781788029492837000,5.698837158203125,-0.009315688163042068,0.036193739622831345,-0.04604393243789673
1781788029541365500,5.747365478515625,-0.03222311660647392,-0.003283398225903511,-0.003894262947142124
1781788029589893600,5.7958935546875,-0.022754713892936707,-0.006719512399286032,-0.024816380813717842
1781788029638422000,5.844422119140625,-0.026343543082475662,-0.14706569910049438,-0.07712167501449585
1781788029686950400,5.892950439453125,-0.0031306820455938578,-0.11614066362380981,-0.17898337543010712
1781788029735478800,5.941478759765625,0.162031888961792,-0.16424626111984253,0.22525638341903687
1781788029784007200,5.990007080078125,0.024281874299049377,-1.6128357648849487,0.9443206191062927
1781788029832535600,6.03853564453125,-0.7971785664558411,-5.070635795593262,1.606345295906067
1781788029881063700,6.087063720703125,0.7409026026725769,-5.2038044929504395,1.2929716110229492
1781788029929592000,6.135592041015625,1.3724604845046997,-1.9299509525299072,-0.8186351656913757
1781788029978120400,6.184120361328125,0.37148213386535645,0.7764855027198792,-1.2926661968231201
1781788030026648600,6.232648681640625,0.16554436087608337,0.9466876983642578,-0.9232457280158997
1781788030075177000,6.281177001953125,-0.12957969307899475,0.5418370366096497,-0.3543779253959656
1781788030123705300,6.329705322265625,-0.4546361267566681,0.26129740476608276,-0.22594361007213593
1781788030172233700,6.378233642578125,-0.2948949635028839,-0.09666935354471207,-0.7502946853637695
1781788030220762000,6.42676220703125,0.6438514590263367,-1.0206023454666138,-0.7528908252716064
1781788030269290200,6.475290283203125,1.0863466262817383,-1.6158900260925293,-0.3791179656982422
1781788030317818600,6.523818603515625,0.799163818359375,-1.2078323364257812,-0.3623191714286804
1781788030366347000,6.572346923828125,0.5739074349403381,-0.694247841835022,-0.5659661889076233
1781788030414875100,6.620875244140625,0.02412915788590908,-0.6810378432273865,-0.3372737169265747
1781788030463403500,6.669403564453125,-0.7383828163146973,-0.7231875658035278,-0.11384992301464081
1781788030511932000,6.717931884765625,-0.9405027031898499,-0.194025918841362,0.0038179049734026194
1781788030560460000,6.7664599609375,-0.49373146891593933,-0.6403390169143677,0.24556763470172882
1781788030608988400,6.814988525390625,-0.1519526094198227,-0.4546361267566681,0.18890993297100067
1781788030657516800,6.863516845703125,-0.17967060208320618,-0.28550294041633606,0.43203410506248474
1781788030706045000,6.912044921875,-0.30428701639175415,-0.21166464686393738,0.3946950137615204
1781788030754573300,6.9605732421875,-0.11621702462434769,-0.2315177470445633,0.3771326541900635
1781788030803101700,7.009101806640625,-0.483423113822937,0.14278964698314667,0.3436878025531769
1781788030851630000,7.057630126953125,-0.6872228980064392,-0.5826122760772705,0.18829907476902008
1781788030900158200,7.106158203125,-0.5102248191833496,-0.6779071688652039,0.448527455329895
1781788030948686600,7.1546865234375,-0.28962627053260803,0.15752676129341125,-0.25266894698143005
1781788030997215000,7.203215087890625,0.16355904936790466,-0.4889972507953644,0.25702136754989624
1781788031045743400,7.251743408203125,0.3568977415561676,0.3456731140613556,0.8245147466659546
1781788031094271500,7.300271484375,0.32299473881721497,0.6475930213928223,0.011148282326757908
1781788031142800000,7.3487998046875,0.19013166427612305,0.47143489122390747,0.07116574794054031
1781788031191328300,7.397328369140625,0.129426971077919,0.11377356201410294,0.09361502528190613
1781788031239856400,7.4458564453125,0.10842850059270859,0.07338013499975204,0.03955349326133728
1781788031288384800,7.494384765625,0.11881320178508759,0.11583523452281952,0.06704241037368774
1781788031336913200,7.5429130859375,0.05108356848359108,0.10224349051713943,0.0015271619195118546
1781788031385441300,7.591441162109375,0.1222493126988411,0.12713623046875,-0.04711294546723366
1781788031433969700,7.6399697265625,-0.0243582334369421,-0.007177661173045635,0.1259908676147461
1781788031482498000,7.688498046875,-0.021456625312566757,-0.0409279391169548,0.04474584385752678
1781788031531026200,7.737026123046875,0.06856957077980042,0.11568251997232437,-0.15447242558002472
1781788031579554600,7.785554443359375,0.03558287397027016,-0.08865175396203995,-0.07910698652267456
1781788031628083000,7.8340830078125,-0.08681915700435638,-0.10010546445846558,-0.15928299725055695
1781788031676611000,7.882611083984375,-0.147905632853508,-0.2390008419752121,-0.23441936075687408
1781788031725139500,7.931139404296875,-0.38728827238082886,-0.4110356271266937,-0.072921983897686
1781788031773667800,7.979667724609375,-0.12881611287593842,-0.2559523284435272,-0.10583232343196869
1781788031822196000,8.028196044921875,0.28809911012649536,0.4289797842502594,-0.19792018830776215
1781788031870724400,8.076724365234375,0.5786416530609131,0.9375247359275818,-0.11438442766666412
1781788031919252700,8.125252685546876,0.38095054030418396,1.1425461769104004,0.039018988609313965
1781788032016309200,8.222309326171874,-0.11995857208967209,-0.06215549260377884,0.5196168422698975
1781788032064837600,8.270837646484376,0.3433060050010681,0.2805396616458893,-0.005421424750238657
1781788032113365800,8.31936572265625,0.48220139741897583,0.25579962134361267,-0.12240202724933624
1781788032161894100,8.36789404296875,0.1081230640411377,-0.2260199636220932,0.03214675933122635
1781788032210422300,8.41642236328125,0.18226677179336548,-0.044898562133312225,-0.20433427393436432
1781788032258950700,8.46495068359375,0.3456731140613556,0.14492766559123993,-0.2490801066160202
1781788032307479000,8.51347900390625,-0.03367391973733902,0.30886849761009216,0.06383536756038666
1781788032356007200,8.562007080078125,-0.3730856776237488,-0.14737112820148468,0.7483093738555908
1781788032453063700,8.659063720703125,0.03581194952130318,-0.04627300798892975,0.016340631991624832
1781788032501592000,8.707592041015625,0.03321577236056328,-0.03352120518684387,-0.02328922040760517
1781788032550120400,8.756120361328126,0.019394956529140472,-0.11873684078454971,-0.09185878932476044
1781788032598648600,8.804648681640625,0.13187043368816376,0.036804601550102234,0.0058795735239982605
1781788032647177000,8.853177001953124,0.3098611533641815,0.11163553595542908,-0.007788525894284248
1781788032695705300,8.901705322265625,0.33345580101013184,0.12835796177387238,0.24113887548446655
1781788032744233500,8.9502333984375,0.020082179456949234,-0.0019853105768561363,0.25557056069374084
1781788032792761900,8.998761962890624,0.09407317638397217,0.18325942754745483,-0.014737112447619438
1781788032841290200,9.047290283203125,0.05192350596189499,0.05658135190606117,0.06994401663541794
1781788032889818400,9.095818359375,0.09353867173194885,0.10797034949064255,-0.11988221108913422
1781788032938346800,9.1443466796875,0.05635227635502815,0.0691804364323616,0.07849612087011337
1781788032986875000,9.192875,0.013515383005142212,0.09361502528190613,-0.04199695214629173
1781788033035403300,9.2414033203125,-0.23777911067008972,-0.03023780696094036,0.11995857208967209
1781788033083931400,9.289931396484375,-0.09789107739925385,0.10797034949064255,-0.16646064817905426
1781788033132459800,9.338459716796875,-0.0058795735239982605,0.2701549530029297,-0.08659008145332336
1781788033180988000,9.38698779296875,-0.06887500733137131,0.10903936624526978,-0.03695731982588768
1781788033229516300,9.435516357421875,0.10888664424419403,0.36774060130119324,-0.17898337543010712
1781788033278044700,9.484044677734374,0.011300998739898205,0.1701258420944214,-0.12125665694475174
1781788033326572800,9.53257275390625,0.05787943676114082,0.16073378920555115,-0.11285726726055145
1781788033375101200,9.58110107421875,0.08460476994514465,0.19960007071495056,-0.14408773183822632
1781788033423629300,9.62962939453125,0.06582067906856537,0.1677587330341339,-0.12759438157081604
1781788033472157700,9.67815771484375,0.010537417605519295,0.09430225193500519,-0.0896444097161293
1781788033569214200,9.775214111328125,-0.02519817277789116,0.006872228812426329,0.03840812295675278
1781788033617742600,9.82374267578125,-0.03191768378019333,0.033597562462091446,0.03787361457943916
1781788033666270700,9.872270751953126,0.03825540840625763,0.12774710357189178,0.0769689604640007
1781788033714799000,9.920799072265625,0.09850194305181503,0.22380557656288147,-0.002672533504664898
1781788033780230700,9.986230712890626,-0.16859868168830872,0.7342594861984253,-0.2156352698802948
1781788033828758800,10.0347587890625,-0.7932842969894409,1.1131483316421509,0.18730641901493073
1781788033877287200,10.083287109375,-1.9492695331573486,-0.023441936820745468,1.0877211093902588
1781788033925815300,10.131815185546875,-1.3253475427627563,-2.9553637504577637,0.8822414875030518
1781788033974343700,10.18034375,1.7020219564437866,-3.785987138748169,0.4707476794719696
1781788034022871800,10.228871826171876,2.8312056064605713,-3.4737589359283447,0.7765618562698364
1781788034071400200,10.277400146484375,2.6946773529052734,-4.190761566162109,0.5731438994407654
1781788034119928300,10.32592822265625,3.421835422515869,-3.4279441833496094,0.24090979993343353
1781788034168456700,10.374456787109375,4.423271656036377,0.0755181610584259,-1.5341105461120605
1781788034216984800,10.42298486328125,3.322340726852417,1.205465316772461,-2.2440881729125977
1781788034265513200,10.47151318359375,2.104810953140259,2.2856268882751465,-1.2582287788391113
1781788034314041300,10.520041259765625,1.5684716701507568,3.263697862625122,-1.1073451042175293
1781788034362569700,10.56856982421875,1.3822343349456787,3.6710681915283203,-0.2234237939119339
1781788034411098000,10.61709814453125,1.7627266645431519,3.942063093185425,0.7765618562698364
1781788034459626000,10.6656259765625,0.3937787115573883,0.5603920817375183,0.256792277097702
1781788034508154400,10.714154296875,0.5160280466079712,-0.13179408013820648,-0.25579962134361267
1781788034556682800,10.762682861328125,0.145614892244339,-0.5896372199058533,0.31520622968673706
1781788034605211000,10.8112109375,-0.4329504072666168,-1.4874557256698608,1.093906044960022
1781788034653739300,10.8597392578125,-0.000610864779446274,-1.4290417432785034,0.3355174660682678
1781788034750795800,10.956795654296876,-0.2107483446598053,1.430492639541626,-0.7863357067108154
1781788034799324200,11.00532421875,-0.000839939049910754,0.3937787115573883,0.07819069176912308
1781788034847852300,11.053852294921874,-0.48647743463516235,-1.7484476566314697,1.475085735321045
1781788034896380700,11.102380615234376,-1.2677735090255737,-2.634659767150879,1.5205951929092407
1781788034944908800,11.15090869140625,-2.1326816082000732,-1.66934072971344,-0.5555051565170288
1781788034993437200,11.199437255859374,-1.486615777015686,-0.1571449637413025,-1.9565998315811157
1781788035041965300,11.24796533203125,0.47296205163002014,0.23014330863952637,-0.7354812026023865
1781788035090493700,11.29649365234375,1.2744166851043701,-0.695164144039154,0.026648975908756256
1781788035139021800,11.345021728515626,0.6317868828773499,0.30398157238960266,0.40317076444625854
1781788035187550000,11.393550048828125,0.41149377822875977,1.0367902517318726,1.155527114868164
1781788035236078300,11.442078369140624,0.04474584385752678,-1.1071161031723022,1.0344231128692627
1781788035284606500,11.4906064453125,-1.342298984527588,-3.3910632133483887,0.7821359634399414
1781788035333134800,11.539134765625,-1.4550799131393433,-2.070984363555908,0.4465421438217163
1781788035381663000,11.5876630859375,-0.920115053653717,-1.0450369119644165,0.3180314898490906
1781788035430191400,11.63619140625,-0.2675587832927704,0.939357340335846,-0.73830646276474
1781788035478719500,11.684719482421874,0.7265473008155823,2.6705482006073,-0.33337944746017456
1781788035527248000,11.733247802734375,1.661094069480896,3.038212299346924,-0.19074252247810364
1781788035575776000,11.78177587890625,2.3318235874176025,1.1905754804611206,0.32337653636932373
1781788035624304400,11.830304443359376,4.1227264404296875,0.6421716213226318,0.8330668210983276
1781788035672832500,11.87883251953125,4.53666353225708,1.1516327857971191,0.5564978122711182
1781788035721361000,11.92736083984375,2.976133108139038,2.4365105628967285,0.28038692474365234
1781788035769889000,11.975888916015625,0.7387645840644836,2.2550837993621826,-0.031001387163996696
1781788035818417400,12.02441748046875,1.0900118350982666,1.3451242446899414,1.3838378190994263
1781788035866945500,12.072945556640626,0.13477204740047455,0.799240231513977,-0.007788525894284248
1781788035915474000,12.121473876953125,1.5896992683410645,0.15378521382808685,1.8703151941299438
1781788035964002000,12.170001953125,0.388662725687027,-0.4575377106666565,-0.6937133073806763
1781788036012530400,12.218530517578126,-0.3390299379825592,-0.0360410213470459,-1.6747621297836304
1781788036061058800,12.267058837890625,-0.828485369682312,-0.13393209874629974,-0.19685117900371552
1781788036109586700,12.315586669921874,-0.10094540566205978,0.4740310609340668,-0.2851211428642273
1781788036158115000,12.364114990234375,0.07170025259256363,0.735633909702301,-0.21036656200885773
1781788036206643500,12.4126435546875,0.28848087787628174,-0.41492989659309387,-0.14515674114227295
1781788036255171600,12.461171630859376,0.14950916171073914,-1.1777472496032715,-1.0572541952133179
1781788036303700000,12.509699951171875,-0.3618610203266144,-0.7721330523490906,-0.4548651874065399
1781788036400756500,12.606756591796875,-0.31902414560317993,-0.04764745384454727,-1.3351976871490479
1781788036449284600,12.65528466796875,-0.0016035200096666813,0.36140286922454834,-1.1145991086959839
1781788036497813000,12.70381298828125,0.41034841537475586,-0.14378230273723602,-1.131550669670105
1781788036546341000,12.752341064453125,1.8556544780731201,0.4221075773239136,-1.2417353391647339
1781788036594869500,12.800869384765624,1.5666390657424927,-0.049632761627435684,-0.9705114364624023
1781788036643397600,12.849397705078125,0.9683734178543091,-0.10422880202531815,-0.36247187852859497
1781788036691926000,12.897926025390625,-0.711046576499939,0.34895649552345276,0.22220206260681152
1781788036740454100,12.9464541015625,-0.952949047088623,0.7249437570571899,-0.17898337543010712
1781788036788982300,12.994982177734375,-0.11140646785497665,0.7601448893547058,-0.24663665890693665
1781788036837510700,13.0435107421875,0.08025235682725906,0.8202387094497681,-0.1510363221168518
1781788036886038800,13.092038818359375,0.0818558782339096,0.10300707072019577,0.3730092942714691
1781788036934567000,13.14056689453125,0.03405570983886719,0.26389357447624207,0.7680097222328186
1781788036983095300,13.18909521484375,0.5978838801383972,0.4124864339828491,-0.6235402226448059
1781788037031623700,13.237623779296875,-0.25755587220191956,0.4189005196094513,-1.5015056133270264
1781788037080151800,13.28615185546875,-0.27427828311920166,0.22983787953853607,-0.7260891199111938
1781788037128680200,13.33468017578125,-0.3404043912887573,0.14515674114227295,0.16416990756988525
1781788037177208300,13.383208251953125,-0.3543015718460083,-0.05169443041086197,-0.19769111275672913
1781788037225736700,13.43173681640625,-0.2383899837732315,-0.10018182545900345,0.059635672718286514
1781788037274264800,13.480264892578125,-0.39568766951560974,0.02871064469218254,0.5457313060760498
1781788037322793200,13.528793212890625,-0.32330018281936646,-0.09957095980644226,0.1727220118045807
1781788037419850800,13.625850830078125,0.08040507882833481,-0.0193185992538929,-0.04886918142437935
1781788037468377900,13.6743779296875,0.022220205515623093,0.08857539296150208,-0.036804601550102234
1781788037516906200,13.72290625,0.0948367565870285,0.07269290834665298,-0.05436696484684944
1781788037565434600,13.7714345703125,-0.03588830679655075,0.04474584385752678,-0.04253146052360535
1781788037613962800,13.819962646484376,-0.04436405375599861,0.0191658828407526,-0.013286309316754341
1781788037662491100,13.8684912109375,0.01870773360133171,-0.011453714221715927,0.016646064817905426
1781788037711019300,13.917019287109374,0.005039634648710489,0.02649625949561596,-0.06246092543005943
1781788037759547600,13.965547607421875,-0.008093958720564842,0.011759147047996521,-0.04718930274248123
1781788037808075800,14.01407568359375,-0.0007635809597559273,-0.028557928279042244,-0.020387612283229828
1781788037856604200,14.062604248046876,-0.01183550525456667,-0.0657443255186081,0.17531819641590118
1781788037905132300,14.11113232421875,-0.03153589367866516,0.043142326176166534,0.04543306678533554
1781788037953660700,14.15966064453125,-0.009010255336761475,0.07376192510128021,0.05070177838206291
1781788038002189000,14.20818896484375,-0.015271619893610477,0.04535670951008797,-0.007483093533664942
1781788038050717200,14.25671728515625,-0.05787943676114082,-0.020769402384757996,-0.208152174949646
1781788038099245600,14.30524560546875,-0.06765327602624893,-0.055741410702466965,-0.05070177838206291
1781788038147773700,14.353773681640625,-0.007788525894284248,-0.023441936820745468,0.09285144507884979
1781788038196302000,14.402302001953124,0.05841394513845444,0.07589995115995407,0.011224640533328056
1781788038293358600,14.499358642578125,-0.2635118067264557,0.43776097893714905,0.411722868680954
1781788038341887000,14.547886962890624,-0.5964331030845642,0.15073087811470032,0.3610210716724396
1781788038390415000,14.5964150390625,-0.3787361681461334,0.1611155867576599,0.024816380813717842
1781788038438943500,14.644943603515625,0.07376192510128021,0.1505018174648285,0.05864302068948746
1781788038487471600,14.6934716796875,0.002825249684974551,0.19074252247810364,-0.07185296714305878
1781788038536000000,14.742,-0.18310672044754028,0.13515383005142212,-0.13339759409427643
1781788038584528100,14.790528076171874,-0.20998476445674896,0.11262819170951843,0.11102467030286789
1781788038633056300,14.83905615234375,-0.014049889519810677,0.00954476185142994,0.16165009140968323
1781788038681584600,14.887584716796875,0.20280711352825165,0.0513126403093338,0.15088360011577606
1781788038730112800,14.93611279296875,0.0038179049734026194,0.3231474757194519,-0.2594648003578186
1781788038778641200,14.98464111328125,-0.0383317656815052,0.472198486328125,-0.08842267841100693
1781788038827169500,15.03316943359375,0.014049889519810677,0.6731730103492737,0.017256930470466614
1781788038875697700,15.08169775390625,-0.04046979174017906,0.7368556261062622,0.0062613640911877155
1781788038924226000,15.13022607421875,-0.060093823820352554,0.6430115103721619,-0.015500693581998348
1781788038972754400,15.17875439453125,-0.040317077189683914,0.5175551772117615,-0.05543597787618637
1781788039021282600,15.227282470703125,-0.03909534588456154,0.28443390130996704,-0.07490729540586472
1781788039069811000,15.27581103515625,-0.009162971749901772,0.03214675933122635,-0.022754713892936707
1781788039118339000,15.324339111328126,0.049632761627435684,-0.15867212414741516,0.06001746281981468
1781788039166867500,15.372867431640625,0.018096869811415672,-0.27488914132118225,0.07047852128744125
1781788039215395600,15.4213955078125,0.010384701192378998,-0.3966039717197418,0.025045456364750862
1781788039263924000,15.469924072265625,0.010842849500477314,-0.3819431960582733,0.09590577334165573
1781788039312452000,15.5184521484375,0.001832594396546483,-0.37346744537353516,0.09453132748603821
1781788039360980500,15.56698046875,0.00755945174023509,-0.38072147965431213,0.03153589367866516
1781788039409508900,15.6155087890625,0.01908952370285988,-0.36079201102256775,0.00022907429956831038
1781788039458037000,15.664037109375,0.024281874299049377,-0.24816381931304932,0.0191658828407526
1781788039506565400,15.7125654296875,0.020158538594841957,-0.12324196845293045,0.004046979360282421
1781788039555093500,15.761093505859375,0.047036588191986084,0.022220205515623093,-0.046654798090457916
1781788039603622100,15.8096220703125,0.033368486911058426,0.13729186356067657,-0.09056070446968079
1781788039652150300,15.858150390625,0.012370011769235134,0.17715078592300415,-0.06375901401042938
1781788039700678400,15.906678466796874,-0.022220205515623093,0.1617264449596405,-0.005268708802759647
1781788039749206800,15.955206787109375,-0.04176788032054901,0.11461350321769714,0.04436405375599861
1781788039797735200,16.003735107421875,-0.04253146052360535,0.043829549103975296,0.04932733252644539
1781788039846263300,16.05226318359375,-0.0058795735239982605,-0.025274530053138733,0.01511890348047018
1781788039943319800,16.14931982421875,0.0256563201546669,-0.07918334752321243,-0.049480047076940536
1781788039991848200,16.19784814453125,0.007330377586185932,-0.09995274990797043,-0.024892739951610565
1781788040040376600,16.24637646484375,-0.005268708802759647,-0.11384992301464081,0.0191658828407526
1781788040088904700,16.29490478515625,-0.021151192486286163,-0.07941242307424545,0.033597562462091446
1781788040137433000,16.34343310546875,-0.01183550525456667,0.008933897130191326,0.024663666263222694
1781788040185961500,16.39196142578125,-0.0057268571108579636,0.025503603741526604,-0.006108647678047419
1781788040234489600,16.440489501953124,0.012675444595515728,-0.019700389355421066,-0.03810269013047218
1781788040283017700,16.489017822265627,0.03886627033352852,-0.1193477064371109,-0.03260490670800209
1781788040331546000,16.537546142578126,0.04482220485806465,-0.19471314549446106,0.003894262947142124
1781788040380074200,16.58607421875,-0.0191658828407526,-0.13790272176265717,0.03588830679655075
1781788040428602600,16.6346025390625,-0.028557928279042244,-0.02000582218170166,0.023365577682852745
1781788040477130800,16.683130859375,-0.025809036567807198,0.10690133273601532,0.07231111824512482
1781788040525659100,16.7316591796875,-0.02153298258781433,0.027488915249705315,-0.044440411031246185
1781788040574187500,16.7801875,0.013286309316754341,-0.011988221667706966,-0.008781181648373604
1781788040622716000,16.8287158203125,-0.008933897130191326,0.017333287745714188,0.0383317656815052
1781788040671244000,16.877244140625,0.005650499369949102,-0.040775224566459656,-0.014049889519810677
1781788040719772400,16.9257724609375,0.015500693581998348,0.030695954337716103,-0.0034361144062131643
1781788040768300500,16.974300537109375,0.043829549103975296,0.009621120058000088,0.006719512399286032
1781788040816829000,17.022828857421874,0.0334448479115963,-0.039706211537122726,-0.07589995115995407
1781788040865357300,17.071357421875,0.03138317912817001,-0.01359174121171236,-0.09285144507884979
1781788040913885700,17.1198857421875,0.06047561392188072,-0.11591159552335739,-0.114460788667202
1781788040962413600,17.16841357421875,0.09758564829826355,-0.30627232789993286,-0.05459604039788246
1781788041010942000,17.21694189453125,-0.1329394429922104,-0.3778962194919586,0.05436696484684944
1781788041059470300,17.26547021484375,-0.2690095901489258,-0.2508363425731659,0.10644318908452988
1781788041107998500,17.31399853515625,-0.16310089826583862,-0.21113014221191406,0.09728021919727325
1781788041156526800,17.36252685546875,0.002825249684974551,-0.016035201027989388,0.024052800610661507
1781788041205055000,17.411054931640624,0.06368265300989151,0.22174391150474548,0.10590868443250656
1781788041253583600,17.45958349609375,0.011224640533328056,0.3514763116836548,0.11339177191257477
1781788041302111700,17.50811181640625,0.07651081681251526,0.7515164017677307,0.34170249104499817
1781788041350640000,17.55664013671875,-0.08659008145332336,0.06856957077980042,-0.010537417605519295
1781788041399168300,17.605168212890625,-0.006948587018996477,0.3551415205001831,0.009773836471140385
1781788041447696600,17.653696533203124,-0.040088001638650894,0.308104932308197,-0.0680350661277771
1781788041496224800,17.702224853515624,-0.024281874299049377,0.4269944727420807,0.002290742937475443
1781788041593281500,17.799281494140626,-0.1357647031545639,0.48731738328933716,0.08491020649671555
1781788041641809700,17.8478095703125,-0.14981459081172943,0.4555523991584778,0.12301289290189743
1781788041690338000,17.896338134765625,-0.09185878932476044,0.21426081657409668,0.11163553595542908
1781788041738866400,17.944866455078124,-0.016340631991624832,-0.09453132748603821,0.03871355578303337
1781788041787394600,17.99339453125,0.07589995115995407,-0.41271552443504333,-0.0016035200096666813
1781788041835923000,18.0419228515625,0.09689842909574509,-0.6018545031547546,0.001450803829357028
1781788041884451000,18.090451171875,0.03848448023200035,-0.5493201613426208,-0.023365577682852745
1781788041932979200,18.138979248046876,0.027717988938093185,-0.41011935472488403,0.006719512399286032
1781788041981507600,18.187507568359376,0.03993528336286545,-0.2328922003507614,0.064598947763443
1781788042030036000,18.236035888671875,0.004886918235570192,-0.08636100590229034,0.049861837178468704
1781788042078564000,18.284564208984374,0.003894262947142124,-0.012217295356094837,0.008552107028663158
1781788042127092500,18.333092529296874,0.0193185992538929,0.0154243353754282,-0.011377356946468353
1781788042175620600,18.38162060546875,0.013209951110184193,0.050549060106277466,-0.0057268571108579636
1781788042224149000,18.43014892578125,-0.017104214057326317,0.1302669197320938,0.002825249684974551
1781788042272677400,18.478677490234375,-0.03955349326133728,0.18570289015769958,0.012446369975805283
1781788042321205500,18.52720556640625,-0.03214675933122635,0.1727220118045807,0.011148282326757908
1781788042369734000,18.57573388671875,-0.03627009689807892,0.11117739230394363,0.01672242395579815
1781788042418262000,18.624261962890625,-0.01511890348047018,0.025809036567807198,-0.004505127668380737
1781788042466790400,18.672790283203124,-0.004046979360282421,-0.023976443335413933,-0.008704823441803455
1781788042515318800,18.72131884765625,0.009315688163042068,-0.04657844081521034,-0.020311253145337105
1781788042563847200,18.76984716796875,0.0057268571108579636,-0.017256930470466614,-0.020387612283229828
1781788042612375000,18.818375,-0.006566796451807022,-0.02626718580722809,-0.004734201822429895
1781788042660903400,18.8669033203125,-0.009392046369612217,-0.04276053607463837,0.0054977829568088055
1781788042709431800,18.915431884765624,-0.007941242307424545,-0.03588830679655075,0.029932374134659767
1781788042757960000,18.9639599609375,-0.02283107116818428,-0.020387612283229828,0.009392046369612217
1781788042806488300,19.01248828125,-0.0058795735239982605,0.01870773360133171,-0.01000291109085083
1781788042855016400,19.061016357421874,-0.001679878099821508,0.02153298258781433,-0.0016035200096666813
1781788042903545000,19.109545166015625,-0.0030543238390237093,0.008704823441803455,0.009315688163042068
1781788042952073200,19.1580732421875,-0.002901607658714056,0.002443459117785096,0.014049889519810677
1781788043049129700,19.255129638671875,-0.005268708802759647,0.008093958720564842,-0.002061668550595641
1781788043097657900,19.303657958984374,-0.002443459117785096,0.004734201822429895,0.004886918235570192
1781788043146186200,19.352186279296873,-0.0057268571108579636,0.007941242307424545,-0.007177661173045635
1781788043243242500,19.449242431640624,-0.0062613640911877155,0.010537417605519295,-0.007483093533664942
1781788043291771000,19.49777099609375,-0.00022907429956831038,-0.0025961752980947495,-0.006337722297757864
1781788043340299000,19.546299072265626,-0.0057268571108579636,-0.003512472379952669,-0.007941242307424545
1781788043388827400,19.594827392578125,-0.0007635809597559273,-0.01000291109085083,-0.0034361144062131643
1781788043437355500,19.64335546875,-0.004276053514331579,-0.004657844081521034,-0.0034361144062131643
1781788043485884000,19.6918837890625,-0.004123337101191282,-0.02519817277789116,-0.008933897130191326
1781788043534412300,19.740412353515627,0.00038179047987796366,-0.02542724646627903,-0.006872228812426329
1781788043582940400,19.7889404296875,0.004505127668380737,-0.013057234697043896,-0.007788525894284248
1781788043631468800,19.83746875,-0.006948587018996477,0.011377356946468353,0.00022907429956831038
1781788043679997000,19.885996826171876,-0.007788525894284248,0.016875140368938446,0.013439024798572063
1781788043728525300,19.934525390625,-0.011148282326757908,0.03993528336286545,0.019394956529140472
1781788043777053400,19.983053466796875,-0.007330377586185932,0.07651081681251526,0.002825249684974551
1781788043825581800,20.031581787109374,-0.009773836471140385,0.11178825795650482,-0.014508038759231567
1781788043874110000,20.08010986328125,-0.013820815831422806,0.11972949653863907,-0.033979352563619614
1781788043922638300,20.128638427734376,-0.002061668550595641,0.10606139898300171,-0.04909825697541237
1781788043971166700,20.177166748046876,-0.0007635809597559273,0.006108647678047419,-0.02519817277789116
1781788044019694800,20.22569482421875,0.002061668550595641,-0.17104214429855347,-0.0030543238390237093
1781788044068223200,20.27422314453125,-0.00045814859913662076,-0.28176137804985046,0.028863361105322838
1781788044116751400,20.32275146484375,0.024281874299049377,-0.3046688139438629,0.04413498193025589
1781788044165279700,20.37127978515625,0.014049889519810677,-0.20746494829654694,0.043371398001909256
1781788044213807900,20.419807861328124,0.011377356946468353,-0.08353576064109802,0.01695149764418602
1781788044262336000,20.4683359375,0.0016035200096666813,0.020158538594841957,-0.0022143847309052944
1781788044310864400,20.516864501953126,-0.003894262947142124,0.07330377399921417,-0.011759147047996521
1781788044359392800,20.565392822265625,-0.01893680728971958,0.07574722915887833,0.011606430634856224
1781788044407921000,20.6139208984375,-0.023365577682852745,0.07452550530433655,0.020387612283229828
1781788044456449000,20.662448974609376,-0.009010255336761475,0.07719803601503372,-0.0019853105768561363
1781788044504977400,20.710977294921875,-0.013286309316754341,0.08124501258134842,0.007177661173045635
1781788044553505800,20.759505859375,-0.0030543238390237093,0.042913250625133514,0.00045814859913662076
1781788044602034000,20.808033935546874,-0.000839939049910754,0.000610864779446274,0.007941242307424545
1781788044650562300,20.856562255859377,0.007101302966475487,-0.053603384643793106,-0.002825249684974551
1781788044699090400,20.90509033203125,0.00511599238961935,-0.08040507882833481,-0.0032070400193333626
1781788044747618800,20.953618896484375,-0.002672533504664898,-0.09361502528190613,0.013057234697043896
1781788044796147000,21.00214697265625,-0.0022143847309052944,-0.09162971377372742,0.01908952370285988
1781788044893203200,21.099203125,0.004123337101191282,-0.06681333482265472,0.0058795735239982605
1781788044941731600,21.147731689453124,-0.007788525894284248,-0.0449749194085598,0.004505127668380737
1781788044990259700,21.196259765625,0.00038179047987796366,-0.0435241162776947,-0.0013744457392022014
1781788045038788000,21.2447880859375,0.0034361144062131643,-0.043142326176166534,-0.0054977829568088055
1781788045087316200,21.293316162109374,-0.002672533504664898,-0.03627009689807892,-0.002443459117785096
1781788045135844600,21.3418447265625,-0.003665188793092966,-0.031612250953912735,0.0013744457392022014
1781788045184372700,21.390372802734376,-0.003512472379952669,-0.015271619893610477,0.009162971749901772
1781788045232901000,21.438901123046875,-0.006872228812426329,-0.007788525894284248,0.004276053514331579
1781788045281429200,21.48742919921875,-0.003512472379952669,0.002061668550595641,0.002443459117785096
1781788045329957600,21.53595751953125,-0.005650499369949102,0.01359174121171236,0.0013744457392022014
1781788045378485800,21.58448583984375,-0.0013744457392022014,0.022449281066656113,-0.004734201822429895
1781788045427014000,21.633013916015624,-0.007177661173045635,0.050319984555244446,-0.007941242307424545
1781788045475542300,21.681542236328124,-0.012446369975805283,0.05436696484684944,-0.006337722297757864
1781788045524070400,21.7300703125,-0.006872228812426329,0.045967575162649155,-0.001832594396546483
1781788045572598800,21.778598876953126,-0.008781181648373604,0.040546149015426636,-0.002290742937475443
1781788045621127000,21.827126953125,-0.010384701192378998,0.027717988938093185,0.00511599238961935
1781788045669655000,21.875655029296876,-0.006108647678047419,0.016035201027989388,0.0013744457392022014
1781788045718183400,21.924183349609375,-0.0022143847309052944,0.0025961752980947495,-0.002290742937475443
1781788045766711600,21.972711669921875,-0.006566796451807022,0.004428769461810589,-0.000839939049910754
1781788045815240000,22.021239990234374,-0.009926552884280682,0.0054977829568088055,-0.0019853105768561363
1781788045863768300,22.069768310546873,-0.004657844081521034,-0.014278964139521122,0.011453714221715927
1781788045912296400,22.11829638671875,-0.001221729558892548,-0.05436696484684944,0.01359174121171236
1781788045960824600,22.166824462890624,0.004428769461810589,-0.08345939964056015,0.002061668550595641
1781788046009353000,22.21535302734375,0.0077121676877141,-0.10102175921201706,-0.0025961752980947495
1781788046057881000,22.263881103515626,0.0007635809597559273,-0.07773254066705704,0.0022143847309052944
1781788046106409200,22.3124091796875,-0.0062613640911877155,-0.0360410213470459,0.009010255336761475
1781788046154937600,22.3609375,-0.010384701192378998,0.0013744457392022014,0.008933897130191326
1781788046203465700,22.4094658203125,-0.007483093533664942,0.01511890348047018,0.00511599238961935
1781788046251993900,22.457993896484375,-0.003665188793092966,0.012370011769235134,-0.003894262947142124
1781788046300522000,22.50652197265625,-0.004657844081521034,0.011224640533328056,-0.007788525894284248
1781788046349050400,22.55505029296875,-0.003665188793092966,0.006490438245236874,-0.00511599238961935
1781788046397578500,22.60357861328125,-0.008399390615522861,0.004428769461810589,0.004428769461810589
1781788046446107000,22.65210693359375,-0.00954476185142994,-0.010155626572668552,0.0154243353754282
1781788046543163100,22.7491630859375,-0.007101302966475487,-0.010155626572668552,0.005650499369949102
1781788046591691500,22.79769140625,-0.01000291109085083,0.004428769461810589,0.004276053514331579
1781788046640219600,22.8462197265625,-0.012980876490473747,0.009773836471140385,0.00755945174023509
1781788046688747800,22.894747802734376,-0.00954476185142994,0.007941242307424545,0.004734201822429895
1781788046737276200,22.943276123046875,-0.0032070400193333626,-0.0022143847309052944,-0.000839939049910754
1781788046785804300,22.99180419921875,-0.006490438245236874,-0.0206166859716177,0.002443459117785096
1781788046834332400,23.04033251953125,-0.004428769461810589,-0.06681333482265472,-0.008323032408952713
1781788046882860800,23.08886083984375,0.03558287397027016,-0.17142392694950104,-0.05085449293255806
1781788046931389000,23.137388916015624,0.070631243288517,-0.33597561717033386,-0.09529490768909454
1781788046979917300,23.185917236328127,0.07353284955024719,-0.5209149122238159,-0.11384992301464081
1781788047028445400,23.234445556640626,0.05849030241370201,-0.6020836234092712,-0.08223766833543777
1781788047076973600,23.2829736328125,0.02260199747979641,-0.5312232971191406,-0.05520690605044365
1781788047125502000,23.331501953125,0.005039634648710489,-0.34926193952560425,-0.0057268571108579636
1781788047174030000,23.380030029296876,-0.002290742937475443,-0.1617264449596405,0.029703300446271896
1781788047222558200,23.42855810546875,-0.02367101050913334,-0.03481929376721382,0.0154243353754282
1781788047271086600,23.477086669921874,-0.02214384824037552,0.0423787422478199,-0.0022143847309052944
1781788047319614700,23.52561474609375,0.007101302966475487,0.12415826320648193,0.0191658828407526
1781788047368142800,23.574142822265625,-0.06818778067827225,0.10102175921201706,0.06268999725580215
1781788047416671200,23.622671142578124,-0.17676898837089539,0.24350596964359283,-0.03558287397027016
1781788047465199400,23.671199462890623,-0.42615455389022827,0.052687086164951324,-0.03375028073787689
1781788047513727500,23.7197275390625,0.17081306874752045,0.00045814859913662076,-0.10506874322891235
1781788047562255600,23.768255615234374,0.3778962194919586,0.07536543905735016,-0.03558287397027016
1781788047610783700,23.81678369140625,-0.027717988938093185,0.009010255336761475,0.11178825795650482
1781788047659312000,23.86531201171875,-0.04016435891389847,0.0642935186624527,-0.020387612283229828
1781788047707840300,23.91384033203125,0.01954767294228077,-0.03741546720266342,-0.03176496922969818
1781788047756368400,23.962368408203126,0.0383317656815052,0.01908952370285988,-0.0007635809597559273
1781788047804896800,24.010896728515625,-0.024816380813717842,0.10178534686565399,-0.04214967042207718
1781788047853425200,24.059425048828125,-0.009162971749901772,0.026648975908756256,-0.0102319847792387
1781788047901953000,24.107953125,-0.025274530053138733,0.13965895771980286,-0.005345067009329796
1781788047950481200,24.156481201171875,0.029474224895238876,0.09972367435693741,0.022983787581324577
1781788047999009500,24.205009521484374,0.03848448023200035,0.046807512640953064,0.08659008145332336
1781788048047537700,24.25353759765625,-0.024892739951610565,0.13881902396678925,0.0824667438864708
1781788048096065800,24.302065673828125,-0.019929463043808937,0.11507165431976318,0.0888044685125351
1781788048193122300,24.399122314453123,-0.001679878099821508,0.08223766833543777,-0.014049889519810677
1781788048241650400,24.447650390625,-0.05513054504990578,0.026878049597144127,0.008093958720564842
1781788048290178600,24.496178466796874,-0.047494735568761826,-0.2649625837802887,-0.055970486253499985
1781788048338707000,24.54470703125,-0.06414080411195755,0.03871355578303337,0.03298669680953026
1781788048387235000,24.593235107421876,0.10774127393960953,-0.0025961752980947495,-0.01977674663066864
1781788048435763200,24.64176318359375,0.039858926087617874,0.08048143237829208,-0.037720900028944016
1781788048484291300,24.690291259765626,-0.025809036567807198,0.14233149588108063,-0.00954476185142994
1781788048532819700,24.73881982421875,-0.03153589367866516,-0.14172062277793884,0.008323032408952713
1781788048581347800,24.787347900390625,0.043600473552942276,-0.19471314549446106,0.03214675933122635
1781788048629876000,24.8358759765625,-0.008552107028663158,-0.1303432732820511,-0.004046979360282421
1781788048678404400,24.884404296875,-0.024281874299049377,0.11751510947942734,0.040546149015426636
1781788048726932500,24.932932373046874,0.014431680552661419,0.38522660732269287,0.0680350661277771
1781788048775460600,24.981460693359374,-0.050930850207805634,0.28328853845596313,0.018325943499803543
1781788048823988700,25.02998876953125,-0.04505127668380737,0.1969275325536728,-0.014813470654189587
1781788048872516900,25.078516845703124,-0.024892739951610565,0.09758564829826355,-0.06276635825634003
1781788048921045000,25.127044921875,-0.011606430634856224,0.03138317912817001,-0.056657709181308746
1781788048969573000,25.175572998046874,-0.028863361105322838,0.09941824525594711,0.0360410213470459
1781788049018101200,25.224101318359374,-0.018555017188191414,0.10216713696718216,0.05024362727999687
1781788049066629600,25.272629638671877,0.030390523374080658,0.11140646785497665,0.06062832847237587
1781788049115157800,25.32115771484375,0.06391172856092453,-0.015500693581998348,0.020540328696370125
1781788049163686100,25.36968603515625,-0.013286309316754341,0.04535670951008797,-0.033979352563619614
1781788049212214000,25.418214111328126,0.007330377586185932,-0.10430516302585602,-0.1406516134738922
1781788049260742400,25.466742431640625,-0.07108938694000244,-0.20509785413742065,-0.06780599057674408
1781788049309270500,25.5152705078125,0.004046979360282421,-0.1323285847902298,0.0010690133785828948
1781788049357798700,25.563798583984376,-0.00038179047987796366,-0.18959715962409973,0.11262819170951843
1781788049406326800,25.612326904296875,-0.036193739622831345,0.002672533504664898,0.1533270627260208
1781788049454855000,25.66085498046875,0.012446369975805283,0.2234237939119339,0.03543015569448471
1781788049503383300,25.70938330078125,0.0539088174700737,0.2761108875274658,-0.11079560220241547
1781788049551911400,25.757911376953125,0.056810423731803894,0.2176205813884735,-0.17508912086486816
1781788049600439600,25.806439453125,-0.11682789027690887,0.2205221801996231,-0.0010690133785828948
1781788049648967700,25.8549677734375,0.0030543238390237093,0.14599667489528656,0.033826638013124466
1781788049697495800,25.903495849609374,-0.07735075056552887,-0.1115591824054718,0.0844520553946495
1781788049746024000,25.95202392578125,-0.031154103577136993,-0.12377647310495377,0.02237292192876339
1781788049843080400,26.04908056640625,0.0334448479115963,-0.20486877858638763,-0.14920371770858765
1781788049891608300,26.0976083984375,-0.037033677101135254,-0.16859868168830872,0.00045814859913662076
1781788049940136400,26.146136474609374,0.07475458085536957,-0.32299473881721497,0.04192059487104416
1781788049988664800,26.194664794921874,0.04298960790038109,-0.2790125012397766,0.04566214233636856
1781788050037193000,26.24319287109375,-0.018173227086663246,-0.03260490670800209,0.0025961752980947495
1781788050085721000,26.29172119140625,-0.04436405375599861,0.1922696828842163,0.06620246917009354
1781788050134249200,26.340249267578123,0.04505127668380737,0.3229183852672577,0.005345067009329796
1781788050182777300,26.38877734375,-0.03932442143559456,0.23739732801914215,-0.06704241037368774
1781788050231305700,26.4373056640625,-0.049709122627973557,0.2202931046485901,0.023823726922273636
1781788050279833900,26.485833740234376,-0.037720900028944016,0.08078686892986298,0.03993528336286545
1781788050328362000,26.534362060546876,-0.06536252796649933,0.049709122627973557,0.04741837829351425
1781788050376890000,26.58289013671875,-0.0345902182161808,-0.036422811448574066,-0.02237292192876339
1781788050425418200,26.631418212890626,-0.0334448479115963,-0.005955931730568409,-0.02367101050913334
1781788050473946600,26.679946533203125,-0.04886918142437935,0.09086613357067108,0.03894263133406639
1781788050522474800,26.728474853515625,0.01695149764418602,0.046654798090457916,0.021609341725707054
1781788050571003000,26.7770029296875,-0.036804601550102234,0.13339759409427643,0.013286309316754341
1781788050619531000,26.825531005859375,0.053374309092760086,0.05230529606342316,-0.04214967042207718
1781788050668059100,26.87405908203125,0.09346231073141098,0.056199558079242706,-0.02283107116818428
1781788050716587300,26.922587158203125,0.08933897316455841,0.043829549103975296,-0.04543306678533554
1781788050765115400,26.971115478515625,-0.07513637095689774,0.09728021919727325,0.024816380813717842
1781788050813643500,27.0196435546875,-0.061850059777498245,0.1747073233127594,0.010613775812089443
1781788050862171600,27.068171630859375,-0.0206166859716177,-0.029932374134659767,-0.003665188793092966
1781788050910699800,27.11669970703125,-0.013057234697043896,-0.13133592903614044,-0.010537417605519295
1781788050959228000,27.165227783203125,0.0746782198548317,-0.16676609218120575,0.005039634648710489
1781788051007756000,27.213756103515625,-0.0022143847309052944,-0.1003345400094986,-0.004734201822429895
1781788051056284200,27.2622841796875,-0.06330086290836334,-0.1553887277841568,-0.027107125148177147
1781788051104812300,27.310812255859375,-0.06536252796649933,0.1185077652335167,-0.008170315995812416
1781788051153340700,27.359340576171874,0.008399390615522861,0.064598947763443,0.006490438245236874
1781788051201868800,27.407868896484374,-0.017944153398275375,0.1378263682126999,0.008933897130191326
1781788051250397000,27.45639697265625,-0.010537417605519295,0.17737986147403717,-0.03741546720266342
1781788051298925000,27.504925048828124,0.044211339205503464,-0.017867794260382652,0.020387612283229828
1781788051347453200,27.553453125,-0.023594651371240616,0.034208428114652634,-0.046883873641490936
1781788051395981300,27.601981201171874,-0.04993819445371628,-0.021609341725707054,-0.06612611562013626
1781788051493037300,27.699037353515624,-0.01259908638894558,0.08063415437936783,-0.000610864779446274
1781788051541565700,27.747565673828124,-0.014278964139521122,0.23655737936496735,0.01847865991294384
1781788051590093800,27.79609375,-0.017333287745714188,0.25755587220191956,0.031612250953912735
1781788051638622000,27.8446220703125,-0.02825249545276165,0.21296273171901703,-0.011453714221715927
1781788051687150000,27.893150146484373,0.008704823441803455,-0.02909243479371071,-0.021227551624178886
1781788051735678200,27.94167822265625,-0.018784092739224434,-0.16783510148525238,-0.055970486253499985
1781788051784206300,27.990206298828124,0.06475166976451874,-0.268169641494751,0.01611155830323696
1781788051832734500,28.038734375,0.04260781779885292,-0.31932955980300903,0.01893680728971958
1781788051881262600,28.0872626953125,0.020998476073145866,-0.30833399295806885,-0.0013744457392022014
1781788051929790700,28.135790771484373,-0.006108647678047419,-0.23052509129047394,-0.00038179047987796366
1781788051978318800,28.18431884765625,0.00511599238961935,-0.11690424382686615,0.018325943499803543
1781788052026847000,28.232846923828124,-0.0206166859716177,0.05971203371882439,0.02893971838057041
1781788052075375000,28.281375,0,0.03581194952130318,-0.014660755172371864
1781788052123903200,28.3299033203125,-0.01588248461484909,0.14943279325962067,-0.005345067009329796
1781788052172431400,28.378431396484373,-0.02626718580722809,0.12782345712184906,0.00755945174023509
1781788052220959500,28.42695947265625,-0.04909825697541237,0.07040216773748398,-0.002443459117785096
1781788052269487600,28.475487548828124,-0.01847865991294384,0.021838415414094925,0.01282816007733345
1781788052318015700,28.524015625,0.0019853105768561363,0.05658135190606117,0.044440411031246185
1781788052366544000,28.5725439453125,-0.008552107028663158,0.016875140368938446,0.008093958720564842
1781788052415072000,28.621072021484373,-0.01565340906381607,0.016340631991624832,0.005039634648710489
1781788052463600000,28.66960009765625,-0.027030766010284424,-0.06734783947467804,0.018555017188191414
1781788052512128300,28.718128173828124,0.03588830679655075,-0.062537282705307,-0.008170315995812416
1781788052560656400,28.766656494140626,0.06582067906856537,-0.004734201822429895,0.03802633285522461
1781788052609184500,28.8151845703125,0.049709122627973557,0.03138317912817001,0.022449281066656113
1781788052657712600,28.863712646484377,-0.004428769461810589,0.041157014667987823,-0.017867794260382652
1781788052706240800,28.91224072265625,0.001221729558892548,0.003283398225903511,0.012980876490473747
1781788052754769000,28.960768798828123,-0.004657844081521034,-0.040775224566459656,0.008399390615522861
1781788052803297000,29.009297119140626,-0.021838415414094925,-0.10506874322891235,0.007330377586185932
1781788052851825000,29.057824951171874,-0.028328854590654373,-0.0513126403093338,-0.024892739951610565
1781788052900353000,29.10635302734375,-0.037033677101135254,-0.10094540566205978,-0.07024945318698883
1781788052948881200,29.154881103515624,0.0001527161948615685,-0.05864302068948746,-0.0030543238390237093
1781788052997409300,29.2034091796875,0.04841103404760361,-0.05604684352874756,-0.012370011769235134
1781788053045937400,29.2519375,0.03802633285522461,0.03237583488225937,-0.017104214057326317
1781788053142993700,29.34899365234375,0.027336198836565018,-0.1579848974943161,-0.18814635276794434
1781788053191521800,29.397521728515624,0.20975568890571594,-0.11323905736207962,-0.06979130208492279
1781788053240050000,29.4460498046875,0.09330959618091583,-0.2631300091743469,-0.04069886729121208
1781788053288578000,29.494578125,0.008552107028663158,-0.28695371747016907,-0.13393209874629974
1781788053337106200,29.543106201171874,-0.09361502528190613,-0.19868376851081848,0.01626427471637726
1781788053385634300,29.59163427734375,-0.049021899700164795,-0.054214250296354294,0.0553596206009388
1781788053434162200,29.640162109375,-0.12232567369937897,0.09834922850131989,0.02893971838057041
1781788053482690300,29.688690185546875,-0.18616104125976562,0.2926042377948761,0.16271910071372986
1781788053531218400,29.737218505859374,0.017104214057326317,0.04558578506112099,-0.016340631991624832
1781788053579746600,29.78574658203125,0.02153298258781433,0.20318889617919922,0.09162971377372742
1781788053628274400,29.8342744140625,0.010613775812089443,0.1971566081047058,0.06742420047521591
1781788053676802600,29.882802490234376,0.04802924394607544,0.2966512143611908,-0.013057234697043896
1781788053725330700,29.93133056640625,0.08292489498853683,0.023441936820745468,-0.09384410083293915
1781788053773858800,29.97985888671875,0.060704685747623444,-0.015729768201708794,-0.08834631741046906
1781788053822387000,30.028386962890625,0.03588830679655075,-0.017715077847242355,-0.04543306678533554
1781788053870915000,30.0769150390625,-0.13790272176265717,0.06475166976451874,0.03214675933122635
1781788053919443200,30.125443115234376,-0.16210824251174927,0.2078467458486557,0.08491020649671555
1781788053967971300,30.173971435546875,-0.007941242307424545,0.2012035846710205,0.11804962158203125
1781788054016499500,30.22249951171875,0.1178968995809555,-0.22250749170780182,0.01672242395579815
1781788054065027600,30.271027587890625,-0.03497200831770897,-0.10346522182226181,-0.010537417605519295
1781788054113555700,30.3195556640625,-0.1302669197320938,-0.014813470654189587,0.001450803829357028
1781788054162083600,30.36808349609375,0.03275762498378754,-0.15592323243618011,-0.04848739132285118
1781788054210611700,30.41661181640625,-0.0383317656815052,-0.022754713892936707,0.07376192510128021
1781788054259139800,30.465139892578126,-0.0948367565870285,0.10980294644832611,0.07864884287118912
1781788054307668000,30.51366796875,-0.03993528336286545,0.06841685622930527,0.04932733252644539
1781788054356195800,30.56219580078125,0.055970486253499985,0.16103923320770264,0.008399390615522861
1781788054404724000,30.610723876953124,0.06879864633083344,-0.05436696484684944,-0.011759147047996521
1781788054453252400,30.65925244140625,-0.033597562462091446,-0.001832594396546483,0.05558869615197182
1781788054501780200,30.7077802734375,-0.039248060435056686,-0.05864302068948746,0.0010690133785828948
1781788054550308400,30.756308349609377,-0.011759147047996521,0.014889828860759735,0.04436405375599861
1781788054598836500,30.80483642578125,0.045967575162649155,-0.055741410702466965,0.05352702736854553
1781788054647364600,30.853364501953124,-0.016875140368938446,0.021151192486286163,0.019929463043808937
1781788054695892700,30.901892822265626,0.027107125148177147,0.020311253145337105,0.01000291109085083
1781788054792948500,30.998948486328125,0.005268708802759647,0.06979130208492279,-0.017867794260382652
1781788054841476600,31.0474765625,0.06887500733137131,-0.09323323518037796,-0.049021899700164795
1781788054890004700,31.096004638671875,0.08063415437936783,-0.1617264449596405,-0.03153589367866516
1781788054938532900,31.144532958984374,0.027259841561317444,-0.2141844630241394,-0.10277800261974335
1781788054987061000,31.19306103515625,0.07002037763595581,-0.22579088807106018,-0.19914191961288452
1781788055035589000,31.241589111328125,0.14378230273723602,-0.046196650713682175,-0.06276635825634003
1781788055084117000,31.290116943359376,0.12446369975805283,0.021609341725707054,-0.059024810791015625
1781788055132645000,31.33864501953125,0.02153298258781433,0.024052800610661507,-0.11812597513198853
1781788055181173200,31.38717333984375,-0.06276635825634003,0.004276053514331579,-0.041157014667987823
1781788055229701400,31.435701416015625,-0.007788525894284248,-0.2009745091199875,-0.07513637095689774
1781788055278229500,31.4842294921875,-0.02306014485657215,-0.30566146969795227,-0.08613193035125732
1781788055326757600,31.532757568359376,-0.08796452730894089,-0.1870773434638977,0.02000582218170166
1781788055375285500,31.581285400390627,0.08872810751199722,-0.05780307948589325,0.03520108386874199
1781788055423813600,31.629813720703126,0.05154171586036682,0.1980729103088379,0.0154243353754282
1781788055472341500,31.678341552734373,-0.13217586278915405,0.2378554791212082,0.01954767294228077
1781788055520869600,31.72686962890625,-0.39194610714912415,0.23800818622112274,0.08613193035125732
1781788055569397800,31.775397705078124,-0.2202931046485901,0.11652245372533798,0.08452841639518738
1781788055617926000,31.82392578125,0.1207985132932663,-0.1995237022638321,0.00511599238961935
1781788055666454000,31.8724541015625,0.020922118797898293,-0.24006985127925873,0.03520108386874199
1781788055714982000,31.92098193359375,-0.0602465383708477,0.04046979174017906,0.06391172856092453
1781788055763510000,31.969510009765624,-0.029703300446271896,0.14034618437290192,0.019929463043808937
1781788055812038100,32.0180380859375,-0.061850059777498245,0.2631300091743469,-0.04298960790038109
1781788055860566300,32.066566162109375,-0.07124210149049759,0.42478010058403015,-0.003512472379952669
1781788055909094100,32.11509423828125,0.01259908638894558,0.383470356464386,0.007101302966475487
1781788055957622300,32.16362231445312,-0.021609341725707054,0.40721774101257324,-0.04169152304530144
1781788056006150400,32.212150390625,-0.2738201320171356,0.2879463732242584,-0.02649625949561596
1781788056054678500,32.260678466796875,0.03520108386874199,0.19379685819149017,0.07024945318698883
1781788056103206700,32.30920654296875,0.020311253145337105,0.053985174745321274,0.17394374310970306
1781788056151734300,32.357734375,-0.05719221383333206,0.14340050518512726,0.09323323518037796
1781788056200262400,32.40626245117188,-0.06520981341600418,0.1164461001753807,0.1663079410791397
1781788056248790500,32.45479052734375,-0.028099779039621353,0.01359174121171236,0.18310672044754028
1781788056297318700,32.50331860351562,0.012980876490473747,-0.32475098967552185,0.18241949379444122
1781788056345846500,32.55184643554688,0.14866921305656433,-0.7012727856636047,0.13240493834018707
1781788056442902800,32.64890283203125,0.046807512640953064,-0.5263363718986511,-0.12255474925041199
1781788056491431000,32.697430908203124,0.10041090101003647,-0.24640758335590363,-0.11133010685443878
1781788056539959000,32.745958984375,0.05841394513845444,-0.055741410702466965,-0.046654798090457916
1781788056588487000,32.79448681640625,-0.003894262947142124,0.08750637620687485,0.012217295356094837
1781788056637015000,32.84301513671875,-0.053756099194288254,0.16959133744239807,0.0743727833032608
1781788056685543200,32.891543212890625,-0.05146535858511925,0.14034618437290192,0.1107192412018776
1781788056734071000,32.94007104492187,-0.02893971838057041,0.12324196845293045,0.10590868443250656
1781788056782599000,32.98859887695313,-0.018555017188191414,0.013057234697043896,0.01626427471637726
1781788056831127000,33.037126953125,-0.008933897130191326,-0.11201732605695724,-0.003512472379952669
1781788056879655200,33.0856552734375,-0.012217295356094837,-0.1490510106086731,0.040317077189683914
1781788056928183000,33.13418310546875,-0.0054977829568088055,-0.14317142963409424,0.09728021919727325
1781788056976711200,33.18271118164063,-0.014508038759231567,-0.07475458085536957,0.08063415437936783
1781788057025239300,33.2312392578125,-0.024052800610661507,-0.003665188793092966,0.03375028073787689
1781788057073767400,33.279767333984374,-0.02588539570569992,0.06879864633083344,0.012980876490473747
1781788057122295300,33.32829541015625,-0.0193185992538929,0.10102175921201706,0.002061668550595641
1781788057170823400,33.37682348632813,-0.020540328696370125,0.09911280870437622,0.0001527161948615685
1781788057219351300,33.425351318359375,-0.027870705351233482,0.09750928729772568,-0.0013744457392022014
1781788057267879400,33.47387939453125,-0.017715077847242355,0.08857539296150208,-0.001450803829357028
1781788057316407600,33.52240747070312,-0.017562363296747208,0.07979421317577362,-0.003512472379952669
1781788057364935400,33.57093530273438,-0.014431680552661419,0.043829549103975296,0.004123337101191282
1781788057413463600,33.619463623046876,-0.014202605932950974,0.033826638013124466,0.020158538594841957
1781788057461991400,33.66799145507812,-0.0025961752980947495,-0.006719512399286032,0.027336198836565018
1781788057510519600,33.71651953125,-0.002061668550595641,-0.02153298258781433,0.006948587018996477
1781788057559047700,33.76504760742188,-0.012370011769235134,0.001450803829357028,-0.013209951110184193
1781788057607575600,33.813575439453125,-0.007177661173045635,-0.0102319847792387,-0.010384701192378998
1781788057656103700,33.862103759765624,0.002825249684974551,-0.043829549103975296,-0.009392046369612217
1781788057704631600,33.91063159179687,0.014202605932950974,-0.13988803327083588,-0.02176205813884735
1781788057753159700,33.95915966796875,0.03176496922969818,-0.18860450387001038,-0.012675444595515728
1781788057801687800,34.007687744140625,0.014431680552661419,-0.1519526094198227,0.00045814859913662076
1781788057850215700,34.05621557617187,-0.007330377586185932,-0.09941824525594711,0.000610864779446274
1781788057898743800,34.10474389648437,-0.007177661173045635,-0.02825249545276165,0.012370011769235134
1781788057947271700,34.15327172851563,-0.010842849500477314,0.023365577682852745,0.002443459117785096
1781788057995799800,34.2017998046875,-0.011377356946468353,0.05299251899123192,0.00045814859913662076
1781788058092855800,34.29885571289063,-0.001832594396546483,0.01259908638894558,-0.017256930470466614
1781788058141383700,34.3473837890625,0.008170315995812416,-0.03581194952130318,0.007177661173045635
1781788058189911800,34.395911865234375,0.013897174037992954,-0.029474224895238876,0.03275762498378754
1781788058238439700,34.44443969726562,0.006108647678047419,-0.03237583488225937,0.03558287397027016
1781788058286967800,34.4929677734375,-0.033597562462091446,0.0038179049734026194,0.003665188793092966
1781788058335496000,34.541495849609376,-0.02283107116818428,0.03627009689807892,0.02764163166284561
1781788058384023800,34.59002392578125,-0.019929463043808937,0.07834340631961823,0.03787361457943916
1781788058432552000,34.63855200195312,-0.03436114266514778,0.06986765563488007,-0.005650499369949102
1781788058481080000,34.687080078125,-0.01954767294228077,0.06963858753442764,-0.004123337101191282
1781788058529608000,34.73560791015625,-0.011453714221715927,0.0665842592716217,0.006948587018996477
1781788058578136000,34.784135986328124,-0.021380268037319183,0.12072215229272842,0.006872228812426329
1781788058626664000,34.83266381835937,-0.013439024798572063,0.1628718227148056,0.015500693581998348
1781788058675191800,34.88119189453125,-0.02458730712532997,0.19509494304656982,0.007101302966475487
1781788058723720000,34.929719970703125,-0.036193739622831345,0.19876012206077576,0.009162971749901772
1781788058772247800,34.97824780273437,-0.020998476073145866,0.12179116904735565,0.012980876490473747
1781788058820776000,35.02677587890625,-0.002672533504664898,0.030314164236187935,0.013209951110184193
1781788058869303800,35.0753037109375,-0.006490438245236874,-0.08452841639518738,0.016340631991624832
1781788058917832000,35.12383203125,0.010384701192378998,-0.18432845175266266,0.024205517023801804
1781788058966359800,35.17235986328125,0.005955931730568409,-0.21662792563438416,0.013897174037992954
1781788059014888000,35.22088793945313,0.0077121676877141,-0.18677189946174622,0.008552107028663158
1781788059063416000,35.269416015625,0.007788525894284248,-0.08529199659824371,0.01359174121171236
1781788059111944000,35.31794384765625,0.0154243353754282,-0.04176788032054901,-0.017867794260382652
1781788059160472000,35.36647216796875,0,0.057039499282836914,-0.0102319847792387
1781788059209000000,35.415,-0.014889828860759735,0.0769689604640007,-0.012675444595515728
1781788059257527800,35.46352783203125,-0.012446369975805283,0.06902772188186646,-0.007788525894284248
1781788059306056000,35.51205590820312,-0.0058795735239982605,0.03283398225903511,-0.005345067009329796
1781788059354584000,35.560583984375,-0.003894262947142124,-0.00045814859913662076,-0.0058795735239982605
1781788059403112000,35.60911181640625,-0.0058795735239982605,-0.008933897130191326,-0.0032070400193333626
1781788059451639800,35.657639892578125,-0.011148282326757908,-0.005039634648710489,0.0010690133785828948
1781788059500168000,35.70616796875,-0.011377356946468353,0.010842849500477314,0.00954476185142994
1781788059548695800,35.75469580078125,-0.006948587018996477,0.01954767294228077,-0.005039634648710489
1781788059597224000,35.803223876953126,0.0009926552884280682,0.0191658828407526,-0.014508038759231567
1781788059645751800,35.851751708984374,-0.0038179049734026194,0.010842849500477314,-0.014202605932950974
1781788059742807800,35.94880786132813,-0.009392046369612217,0.00022907429956831038,0.005955931730568409
1781788059791335700,35.997335693359375,-0.010766491293907166,-0.002443459117785096,0.016035201027989388
1781788059839863800,36.04586376953125,-0.024663666263222694,0.0001527161948615685,0.030390523374080658
1781788059888391700,36.0943916015625,-0.026419902220368385,-0.007483093533664942,0.05169443041086197
1781788059936919800,36.142919921875,0.008399390615522861,-0.03558287397027016,0.030925029888749123
1781788059985447700,36.19144775390625,0.02649625949561596,-0.0899498388171196,-0.0191658828407526
1781788060033975800,36.23997583007812,0.02283107116818428,-0.12767073512077332,-0.04153880476951599
1781788060082504000,36.28850390625,0.012217295356094837,-0.11743875592947006,-0.015500693581998348
1781788060131031600,36.337031494140625,0.004428769461810589,-0.07528908550739288,0.015271619893610477
1781788060179559700,36.3855595703125,-0.008323032408952713,-0.025809036567807198,0.024281874299049377
1781788060228087600,36.43408764648437,-0.00954476185142994,0.0010690133785828948,0.017867794260382652
1781788060276615700,36.48261572265625,-0.010995565913617611,0.015271619893610477,0.007177661173045635
1781788060325143600,36.5311435546875,-0.01359174121171236,0.01847865991294384,0.01206457894295454
1781788060373671700,36.57967163085937,-0.015271619893610477,0.010766491293907166,0.024205517023801804
1781788060422199600,36.62819946289063,-0.017256930470466614,0.007177661173045635,0.023823726922273636
1781788060470727700,36.67672778320313,-0.013897174037992954,-0.0007635809597559273,0.014813470654189587
1781788060519255600,36.725255615234374,-0.007941242307424545,-0.004505127668380737,0.008552107028663158
1781788060567783700,36.77378369140625,-0.004505127668380737,-0.0062613640911877155,-0.003894262947142124
1781788060616311600,36.8223115234375,0.005955931730568409,-0.008170315995812416,-0.008552107028663158
1781788060664839400,36.87083935546875,-0.002672533504664898,-0.006337722297757864,-0.008781181648373604
1781788060713367300,36.9193671875,-0.008781181648373604,0.008704823441803455,0.004123337101191282
1781788060761895400,36.9678955078125,-0.011224640533328056,0.009392046369612217,0.004734201822429895
1781788060810423300,37.01642333984375,-0.006872228812426329,0.008781181648373604,-0.003665188793092966
1781788060858951400,37.064951416015624,-0.002901607658714056,-0.004734201822429895,-0.0054977829568088055
1781788060907479300,37.11347924804687,-0.004276053514331579,-0.008933897130191326,-0.004276053514331579
1781788060956007200,37.162007080078126,-0.006490438245236874,-0.011224640533328056,-0.003894262947142124
1781788061004535300,37.210535400390626,-0.004046979360282421,-0.01359174121171236,0.001450803829357028
1781788061053063200,37.25906323242187,-0.007483093533664942,-0.01000291109085083,0.006337722297757864
1781788061101591300,37.30759130859375,-0.009162971749901772,-0.009621120058000088,0.007788525894284248
1781788061150119200,37.356119140625,-0.009926552884280682,-0.0022143847309052944,0.009392046369612217
1781788061198647000,37.40464697265625,-0.009315688163042068,0.004276053514331579,0.006337722297757864
1781788061247175200,37.45317504882812,-0.004505127668380737,0.013209951110184193,-0.0034361144062131643
1781788061295703000,37.501703125,-0.003665188793092966,0.016646064817905426,-0.010995565913617611
1781788061392759000,37.59875903320312,0.008170315995812416,0.02542724646627903,-0.03298669680953026
1781788061441287000,37.64728686523438,-0.002443459117785096,0.027947064489126205,-0.02588539570569992
1781788061489815000,37.69581494140625,-0.014889828860759735,0.04046979174017906,-0.009162971749901772
1781788061538343000,37.744343017578124,-0.017256930470466614,0.04482220485806465,0.014813470654189587
1781788061586870800,37.79287084960937,-0.01511890348047018,0.03222311660647392,0.009621120058000088
1781788061635399000,37.84139892578125,-0.012675444595515728,0.02283107116818428,-0.005268708802759647
1781788061683926800,37.8899267578125,-0.0030543238390237093,0.0016035200096666813,-0.006566796451807022
1781788061732454700,37.93845458984375,-0.0022143847309052944,-0.01183550525456667,-0.001679878099821508
1781788061780982500,37.986982421875,-0.0054977829568088055,-0.02283107116818428,0.009621120058000088
1781788061829510400,38.035510498046875,-0.006337722297757864,-0.026419902220368385,0.027336198836565018
1781788061878038500,38.08403857421875,-0.05024362727999687,-0.04909825697541237,0.12461641430854797
1781788061926566400,38.13256640625,-0.14026983082294464,-0.10186170041561127,0.34697118401527405
1781788061975094300,38.18109423828125,-0.11995857208967209,-0.22808164358139038,0.3649153411388397
1781788062023622400,38.229622314453124,0.0539088174700737,-0.3779725730419159,0.10567960888147354
1781788062072150800,38.27815087890625,0.18081597983837128,-0.502894401550293,-0.17898337543010712
1781788062120678700,38.3266787109375,0.1795942485332489,-0.5225184559822083,-0.2799287736415863
1781788062169206300,38.375206298828125,0.1908188909292221,-0.49075350165367126,-0.23602287471294403
1781788062217734100,38.42373413085937,0.17165300250053406,-0.5331322550773621,-0.2398407906293869
1781788062266262000,38.47226196289063,0.10247256606817245,-0.5210676789283752,-0.22556181252002716
1781788062314790100,38.5207900390625,0.07131846249103546,-0.4838049113750458,-0.28328853845596313
1781788062363318000,38.569318115234374,-0.029932374134659767,-0.27000224590301514,-0.3610210716724396
1781788062411846100,38.61784619140625,-0.07780890166759491,0.018325943499803543,-0.16149736940860748
1781788062460374000,38.6663740234375,-0.04864010959863663,0.19853104650974274,0.16264274716377258
1781788062508902000,38.71490185546875,0.1545487940311432,-0.021227551624178886,0.5926915407180786
1781788062557430000,38.76342993164062,0.20204351842403412,-0.028863361105322838,1.011210322380066
1781788062605958000,38.8119580078125,-0.5093085169792175,0.7259364128112793,0.44608399271965027
1781788062654485800,38.86048583984375,-0.5528326034545898,0.5206094980239868,0.06330086290836334
1781788062703013600,38.909013671875,-0.389120876789093,0.5758163928985596,-0.10751219838857651
1781788062751541500,38.95754150390625,-0.20540328323841095,0.6648499369621277,-0.1421024203300476
1781788062800069400,39.0060693359375,-0.07834340631961823,0.6957749724388123,-0.1262962967157364
1781788062848597500,39.05459741210937,0.05787943676114082,0.48563748598098755,-0.017486004158854485
1781788062897125400,39.10312548828125,0.050930850207805634,0.37949973344802856,0.02825249545276165
1781788062994181400,39.200181396484375,0.4554760456085205,0.14889828860759735,0.023365577682852745
1781788063042709200,39.24870922851562,0.47319114208221436,0.1395062506198883,0.050090912729501724
1781788063091237400,39.2972373046875,0.03497200831770897,0.24236060678958893,-0.124845489859581
1781788063139765200,39.34576513671875,-0.15225805342197418,0.024434590712189674,-0.031154103577136993
1781788063188293000,39.394293212890624,-0.1997527778148651,0.10949750989675522,0.11507165431976318
1781788063236821000,39.44282104492188,0.13339759409427643,0.40401068329811096,-0.17165300250053406
1781788063285349000,39.49134912109375,0.40255987644195557,0.6130791902542114,-0.1969275325536728
1781788063333877000,39.539876953125,0.3098611533641815,1.2141700983047485,-0.1153007298707962
1781788063382404900,39.58840478515625,0.3589594066143036,1.2172244787216187,0.05413788929581642
1781788063430932700,39.6369326171875,0.16714787483215332,1.155527114868164,-0.0191658828407526
1781788063479460900,39.6854609375,-0.08956804871559143,1.0763437747955322,-0.4289797842502594
1781788063527988500,39.73398852539062,-0.13393209874629974,0.9792162179946899,-0.593149721622467
1781788063576516400,39.782516357421876,-0.20731224119663239,1.0569487810134888,-0.668515145778656
1781788063625044500,39.83104443359375,-0.3568977415561676,1.2284491062164307,-0.5603920817375183
1781788063673572400,39.879572265625,-0.2577849328517914,1.292360782623291,-0.2822195291519165
1781788063722100200,39.92810034179688,-0.05459604039788246,0.8422298431396484,-0.17287473380565643
1781788063770628000,39.976628173828125,0.3488037884235382,-0.07735075056552887,0.4638754427433014
1781788063819156200,40.02515625,-0.039858926087617874,-0.9331722855567932,0.7562506198883057
1781788063867684000,40.07368408203125,-0.01282816007733345,-1.5990912914276123,1.0467931032180786
1781788063916212000,40.1222119140625,-0.24510949850082397,-1.4411827325820923,0.9436333775520325
1781788063964740000,40.170739990234374,-0.9111811518669128,-1.3575706481933594,0.6068177819252014
1781788064013268000,40.21926806640625,-0.7816778421401978,-0.851545512676239,0.5635991096496582
1781788064061795800,40.2677958984375,-0.47120583057403564,-1.1060470342636108,0.23441936075687408
1781788064110323700,40.31632373046875,-0.002290742937475443,-0.22159120440483093,-0.19303326308727264
1781788064158851600,40.3648515625,0.4958694875240326,0.16050471365451813,-0.03848448023200035
1781788064207379700,40.41337963867188,0.6937896609306335,0.0576503649353981,0.1571449637413025
1781788064255907600,40.461907470703125,0.10835213959217072,0.007941242307424545,0.19769111275672913
1781788064304435200,40.51043530273437,-0.49541133642196655,0.7557924389839172,-0.1380554437637329
1781788064352963300,40.55896337890625,-0.10384701192378998,0.6102539300918579,0.3424660563468933
1781788064401491200,40.6074912109375,0.4182896614074707,0.8197805285453796,-0.07719803601503372
1781788064450019000,40.65601904296875,0.16409355401992798,0.7414371371269226,-0.8035162687301636
1781788064498547000,40.704546875,0.48823368549346924,0.8910989761352539,-0.6002510190010071
1781788064547075000,40.753074951171875,0.12034036219120026,1.4176644086837769,-0.5655080676078796
1781788064644130600,40.85013061523438,-0.08750637620687485,0.6678279042243958,-0.7776308655738831
1781788064692658700,40.89865869140625,-0.3591884970664978,0.7270817756652832,-0.7008909583091736
1781788064741186600,40.9471865234375,-0.7127264738082886,1.0492366552352905,-0.47143489122390747
1781788064789714400,40.99571435546875,-0.34124433994293213,0.6581304669380188,-0.30375251173973083
1781788064838242300,41.0442421875,0.389120876789093,0.18371757864952087,0.3874409794807434
1781788064886770200,41.09277026367187,0.4961749315261841,-1.4004838466644287,1.1347576379776
1781788064935298000,41.14129809570313,0.2510654330253601,-2.386496067047119,1.5532764196395874
1781788064983826200,41.189826171875,-0.3078758418560028,-1.2449424266815186,0.5707767605781555
1781788065032354000,41.23835400390625,-1.206916093826294,-1.1177297830581665,0.5774199366569519
1781788065080882000,41.2868818359375,-1.093906044960022,-0.8126028776168823,0.5208385586738586
1781788065129410000,41.33541015625,-0.12851068377494812,-1.046411395072937,0.18814635276794434
1781788065177938000,41.38393798828125,0.836732029914856,-0.43516480922698975,-0.19387321174144745
1781788065226465800,41.4324658203125,0.9246202111244202,-0.2779434621334076,-0.056199558079242706
1781788065274993700,41.48099365234375,0.30253079533576965,-0.6344594359397888,0.40378162264823914
1781788065323521500,41.529521484375,0.23663374781608582,-0.8189405798912048,0.01611155830323696
1781788065372049400,41.57804931640625,-0.0007635809597559273,-0.09544762223958969,-0.23655737936496735
1781788065420577300,41.62657739257813,-0.2709949016571045,0.25274530053138733,-0.0007635809597559273
1781788065469105200,41.675105224609375,-0.09323323518037796,0.46608981490135193,0.17913609743118286
1781788065517633000,41.72363305664062,0.24862197041511536,0.4764745235443115,-0.8129082918167114
1781788065566161200,41.7721611328125,0.3522399067878723,1.0302997827529907,-0.7529671788215637
1781788065614689000,41.82068896484375,-0.11255183815956116,1.982408881187439,-0.4825831651687622
1781788065663217000,41.869216796875,0.16966769099235535,1.2715914249420166,-0.3924042582511902
1781788065711744800,41.91774487304688,-0.025503603741526604,0.7973312735557556,-0.8196278214454651
1781788065760272600,41.966272705078126,-0.6327031850814819,1.3238966464996338,-0.5390118360519409
1781788065808800800,42.01480078125,-0.6568323373794556,0.8819360136985779,-0.5337430834770203
1781788065857328600,42.06332861328125,0.07803797721862793,0.2940550446510315,-0.09178243577480316
1781788065905856300,42.111856201171875,0.7637336850166321,-1.707519769668579,0.7417425513267517
1781788065954384000,42.1603837890625,0.4125627875328064,-2.775006055831909,1.5709915161132812
1781788066002911700,42.20891186523438,0.08872810751199722,-2.2484405040740967,1.0160208940505981
1781788066051439900,42.25743994140625,-0.8139009475708008,-1.6597195863723755,0.4650208055973053
1781788066099967700,42.3059677734375,-1.2902991771697998,-1.0551161766052246,0.40317076444625854
1781788066148495600,42.35449560546875,-0.49808385968208313,-1.4442371129989624,0.7210494875907898
1781788066197023500,42.4030234375,0.6904299259185791,-0.9831104874610901,0.05787943676114082
1781788066294079500,42.50007958984375,0.399887353181839,-0.48296496272087097,0.326583594083786
1781788066342607400,42.548607421875,0.36690065264701843,-0.5231293439865112,-0.05719221383333206
1781788066391135200,42.59713525390625,-0.16638429462909698,0.32391104102134705,0.17982332408428192
1781788066439663000,42.6456630859375,-0.43027788400650024,0.5648208260536194,-0.058795735239982605
1781788066488191000,42.69419091796875,-0.019700389355421066,0.8574250936508179,-0.06681333482265472
1781788066536718800,42.74271875,0.4043924808502197,0.5219075679779053,-1.0374774932861328
1781788066585246700,42.79124682617187,0.5447386503219604,0.7395281791687012,-0.7512109875679016
1781788066633774600,42.839774658203126,-0.1104138121008873,1.8086179494857788,-0.5183951258659363
1781788066682302500,42.88830249023437,0.02893971838057041,1.3038145303726196,-0.4492146968841553
1781788066730830300,42.93683032226563,0.039248060435056686,1.0461822748184204,-0.7631992101669312
1781788066779358200,42.985358154296875,-0.8140536546707153,1.5438843965530396,-0.4575377106666565
1781788066827886000,43.03388598632812,-0.6067414283752441,0.7918334603309631,-0.5176315307617188
1781788066876414000,43.0824140625,0.337350070476532,0.06536252796649933,0.024892739951610565
1781788066924942000,43.13094213867188,1.077183723449707,-1.5022692680358887,1.0233511924743652
1781788066973470000,43.179469970703124,0.9259182810783386,-2.679405689239502,1.9049054384231567
1781788067021997600,43.22799755859375,0.2603811025619507,-1.958890676498413,1.2750275135040283
1781788067070525400,43.276525390625,-0.9441678524017334,-0.9763146042823792,-0.028863361105322838
1781788067119053300,43.32505322265625,-1.2370011806488037,-0.4632645845413208,0.5259546041488647
1781788067167581200,43.37358129882813,-0.5270236134529114,-0.8452841639518738,0.43111783266067505
1781788067216109300,43.422109375,0.6763800382614136,-0.4560869038105011,-0.2911534309387207
1781788067264637200,43.47063720703125,1.0069342851638794,-0.4842630624771118,0.02214384824037552
1781788067313165000,43.5191650390625,0.3313177824020386,-0.5627591609954834,0.347123920917511
1781788067361693000,43.56769287109375,0.0896444097161293,-0.09834922850131989,-0.17608177661895752
1781788067410220800,43.616220703125,-0.42050403356552124,0.9199623465538025,-0.2176969349384308
1781788067458748700,43.66474877929687,-0.6002510190010071,1.2499819993972778,0.021380268037319183
1781788067507276500,43.713276611328126,-0.13393209874629974,1.3587160110473633,-0.6534726023674011
1781788067555804400,43.761804443359374,0.5214494466781616,1.1702642440795898,-1.1180353164672852
1781788067604332300,43.81033227539063,0.34147340059280396,2.079231023788452,-0.927521824836731
1781788067701388000,43.90738793945312,0.033826638013124466,1.5120429992675781,-0.6177369952201843
1781788067749916000,43.955916015625,-0.39255696535110474,1.1816415786743164,-0.9183588624000549
1781788067798443800,44.00444384765625,-0.8565851449966431,0.9363030195236206,-0.33337944746017456
1781788067846971600,44.0529716796875,-0.42050403356552124,0.2591593861579895,-0.5021308660507202
1781788067895499500,44.10149951171875,0.4951822757720947,-0.4382191300392151,0.29397866129875183
1781788067944027400,44.15002734375,0.9007964730262756,-1.9743149280548096,1.2911391258239746
1781788067992555300,44.19855517578125,0.48884454369544983,-2.572122573852539,1.9356013536453247
1781788068041083100,44.24708325195313,-0.512668251991272,-0.9973130822181702,0.37545275688171387
1781788068089611000,44.295611083984376,-1.2638791799545288,-0.8263473510742188,0.5816959738731384
1781788068138139000,44.34413891601562,-1.1816415786743164,-0.53221595287323,0.6080395579338074
1781788068186666800,44.39266674804688,0.018555017188191414,-0.7408262491226196,0.2548833191394806
1781788068235194600,44.441194580078125,1.402927279472351,-0.747469425201416,-0.2599993348121643
1781788068283722500,44.48972241210937,0.7888554930686951,-0.8067232966423035,0.24090979993343353
1781788068332250400,44.53825048828125,0.1608865112066269,-0.6184242367744446,0.125074565410614
1781788068380778200,44.5867783203125,0.15722131729125977,0.2176969349384308,-0.57008957862854
1781788068429306000,44.63530615234375,-0.28550294041633606,0.7128791809082031,-0.03543015569448471
1781788068477834200,44.68383422851562,-0.42394015192985535,1.1225403547286987,0.38438665866851807
1781788068526362000,44.732362060546876,0.09101885557174683,0.8051197528839111,-0.8791871070861816
1781788068574890000,44.780889892578124,0.6088030934333801,1.3513855934143066,-0.8242093324661255
1781788068623417900,44.82941796875,-0.09689842909574509,2.6216788291931152,-0.8067996501922607
1781788068671945700,44.87794580078125,-0.1401171088218689,2.235612392425537,-0.6863829493522644
1781788068720473300,44.92647338867187,0.1559995859861374,1.435990333557129,-1.0905463695526123
1781788068769001200,44.97500122070313,-0.6868410706520081,1.4367539882659912,-0.660802960395813
1781788068817529000,45.023529052734375,-0.9598976373672485,0.8680388331413269,-0.5465712547302246
1781788068866057000,45.07205688476562,0.4970912039279938,-0.053145237267017365,-0.0319940410554409
1781788068914584800,45.12058471679688,1.070006012916565,-1.5778636932373047,1.371620535850525
1781788068963112700,45.16911279296875,0.3370446562767029,-2.550971269607544,2.053269147872925
1781788069011640600,45.217640625,-0.13767364621162415,-1.6665918827056885,0.6415607333183289
1781788069060168200,45.266168212890626,-1.2939642667770386,-1.0684025287628174,0.5422188639640808
1781788069108696000,45.314696044921874,-1.5028800964355469,-0.5832231640815735,0.4344775676727295
1781788069157224000,45.36322387695313,-0.4017963111400604,-0.8061124086380005,0.3661370873451233
1781788069205751800,45.411751708984376,1.0042617321014404,-0.6811142563819885,-0.12232567369937897
1781788069254279700,45.46027978515625,1.0248019695281982,-0.7693078517913818,0.383470356464386
1781788069351335400,45.55733544921875,0.1089630052447319,0.2162461280822754,-0.6504182815551758
1781788069399863600,45.605863525390625,-0.3418551981449127,1.1662936210632324,-0.1406516134738922
1781788069448391400,45.65439135742187,-0.36079201102256775,1.6334524154663086,-0.0077121676877141
1781788069496919000,45.7029189453125,0.449138343334198,0.9680679440498352,-1.0048725605010986
1781788069545447000,45.751447021484374,0.7748056054115295,0.9832631945610046,-1.1449897289276123
1781788069593974800,45.79997485351562,0.4575377106666565,1.8099923133850098,-0.81099933385849
1781788069642502700,45.848502685546876,0.13912445306777954,1.8566471338272095,-0.28328853845596313
1781788069691030500,45.89703051757812,-0.031154103577136993,1.0474803447723389,-0.5799397230148315
1781788069739558400,45.94555834960938,-0.6521745324134827,1.4505747556686401,-0.5603920817375183
1781788069788086000,45.9940859375,-1.1893537044525146,0.984332263469696,-0.4344775676727295
1781788069836614000,46.04261376953125,-0.20112723112106323,0.5078576803207397,-0.3485747277736664
1781788069885141800,46.09114184570313,0.5612320303916931,-0.45364347100257874,0.2897026240825653
1781788069933669600,46.139669677734375,0.5772672295570374,-2.3129632472991943,1.4591268301010132
1781788069982197500,46.18819750976562,0.1378263682126999,-2.006079912185669,1.6041308641433716
1781788070030725600,46.2367255859375,-0.6751583218574524,-1.320231556892395,0.3271944522857666
1781788070079253200,46.285253173828124,-1.3188570737838745,-0.9366084337234497,0.4388299882411957
1781788070127781000,46.33378100585937,-0.8492547869682312,-0.9348521828651428,0.6880627870559692
1781788070176309000,46.38230908203125,0.4347066581249237,-1.2274564504623413,0.11484257876873016
1781788070224836900,46.4308369140625,1.3293944597244263,-0.7163916826248169,-0.03886627033352852
1781788070273364700,46.47936474609375,0.5894845128059387,-0.6169734001159668,0.49075350165367126
1781788070321892600,46.527892578125,0.011377356946468353,-0.6449204683303833,0.2835939824581146
1781788070370420500,46.57642041015625,-0.3623955249786377,0.342542439699173,-0.3306305706501007
1781788070418948400,46.6249482421875,-0.14217877388000488,0.6091849207878113,0.2133445292711258
1781788070467476000,46.67347607421875,0.546953022480011,0.9666171669960022,-0.18982623517513275
1781788070516003800,46.72200390625,0.49800750613212585,0.5652790069580078,-1.3215296268463135
1781788070564531700,46.77053173828125,0.6568323373794556,0.8360447883605957,-0.9518800377845764
1781788070613059600,46.8190595703125,0.05329795181751251,1.8348851203918457,-0.4860192835330963
1781788070661587500,46.86758740234375,-0.15638138353824615,1.39139723777771,-0.6333140730857849
1781788070710115000,46.91611499023438,-0.12232567369937897,1.3357322216033936,-1.187750220298767
1781788070758643000,46.964642822265624,-1.1968368291854858,1.7108795642852783,-0.2099084109067917
1781788070807170800,47.0131708984375,-0.5746710300445557,0.5249619483947754,-0.2887863218784332
1781788070855698700,47.06169873046875,0.839099109172821,-0.3029889166355133,0.32559093832969666
1781788070952754400,47.15875439453125,0.24885104596614838,-2.2109487056732178,1.8235840797424316
1781788071001282300,47.2072822265625,-0.39828383922576904,-1.1963022947311401,0.23777911067008972
1781788071049810200,47.25581005859375,-1.2130247354507446,-1.112002968788147,0.47670361399650574
1781788071098338000,47.30433813476562,-1.3457350730895996,-0.5898662805557251,0.5611556768417358
1781788071146866000,47.35286596679688,-0.15615230798721313,-0.9641736745834351,0.45875945687294006
1781788071195393800,47.401393798828124,1.0850485563278198,-0.6910407543182373,0.020540328696370125
1781788071243921700,47.44992163085937,0.8183297514915466,-0.7412080764770508,0.3938550651073456
1781788071292449300,47.49844921875,0.14317142963409424,-0.5722275972366333,0.33315038681030273
1781788071340977200,47.54697705078125,-0.28321218490600586,0.35323256254196167,-0.5341249108314514
1781788071389505000,47.59550512695313,-0.3066541254520416,0.9405027031898499,0.1565341055393219
1781788071438032600,47.64403271484375,0.45532333850860596,1.473634958267212,-0.1683696061372757
1781788071486560500,47.692560546875,0.45104727149009705,0.8491020202636719,-1.4805835485458374
1781788071535088400,47.74108837890625,0.6085740327835083,1.0994038581848145,-1.00998854637146
1781788071583616300,47.7896162109375,0.04543306678533554,2.0990841388702393,-0.4748710095882416
1781788071632144100,47.83814404296875,-0.26618432998657227,1.633223295211792,-0.521831214427948
1781788071680672000,47.88667211914063,-0.24724751710891724,1.4080432653427124,-1.0806198120117188
1781788071729199900,47.935199951171874,-1.0484730005264282,1.552207350730896,-0.5338957905769348
1781788071777727700,47.98372778320312,-0.5936078429222107,0.3370446562767029,-0.37606361508369446
1781788071826255600,48.03225561523438,0.8374956250190735,-0.7387645840644836,0.41706791520118713
1781788071874783500,48.080783447265624,0.9463822841644287,-2.2750132083892822,1.475467562675476
1781788071923311000,48.12931103515625,0.1490510106086731,-2.345339059829712,1.7949497699737549
1781788071971839000,48.1778388671875,-0.23472478985786438,-1.4253002405166626,0.44241881370544434
1781788072020366600,48.22636669921875,-1.2101231813430786,-1.2457059621810913,0.47464191913604736
1781788072068894500,48.27489453125,-1.4246894121170044,-0.9173662066459656,0.42592546343803406
1781788072117422300,48.32342236328125,-0.1533270627260208,-1.2997674942016602,0.3831649422645569
1781788072165950200,48.3719501953125,1.2035562992095947,-0.8167262077331543,0.01649334840476513
1781788072214478000,48.42047802734375,0.8808670043945312,-0.6312524080276489,0.5740602016448975
1781788072263005700,48.46900561523437,0.046425722539424896,-0.5351175665855408,0.512133777141571
1781788072311533600,48.51753344726563,0.23907721042633057,-0.014278964139521122,-0.33742642402648926
1781788072360061400,48.5660615234375,-0.39110618829727173,0.545502245426178,0.001679878099821508
1781788072408589300,48.61458935546875,0.053985174745321274,1.4253002405166626,-0.02458730712532997
1781788072457117000,48.66311694335938,0.7195987105369568,0.7319687008857727,-1.095509648323059
1781788072554172700,48.76017260742187,0.30604326725006104,1.74508798122406,-0.8558215498924255
1781788072602700500,48.808700439453126,-0.02176205813884735,2.0948081016540527,-0.5575668215751648
1781788072651228400,48.857228515625,-0.16752967238426208,1.5597668886184692,-0.9796743988990784
1781788072699756300,48.90575634765625,-1.158199667930603,2.031583547592163,-0.4428769648075104
1781788072748284200,48.9542841796875,-0.627129077911377,0.678288996219635,-0.35651594400405884
1781788072796811800,49.00281176757812,0.4972439408302307,-0.09201150387525558,0.03321577236056328
1781788072845339400,49.05133935546875,1.0950515270233154,-1.784335970878601,1.458592414855957
1781788072893867300,49.0998671875,0.500298261642456,-2.243248224258423,2.0730459690093994
1781788072942395100,49.14839501953125,-0.19853104650974274,-1.0709986686706543,0.5145008563995361
1781788072990923000,49.19692309570313,-1.2268455028533936,-1.0743584632873535,0.3245982825756073
1781788073039451000,49.245450927734375,-1.5406010150909424,-0.740368127822876,0.3203222155570984
1781788073087978800,49.29397875976562,-0.32475098967552185,-1.096960425376892,0.3842339515686035
1781788073136506400,49.34250634765625,1.1111630201339722,-0.6320159435272217,-0.013439024798572063
1781788073185034200,49.3910341796875,1.0819942951202393,-0.646905779838562,0.42623090744018555
1781788073233562000,49.43956201171875,0.0769689604640007,-0.5082395076751709,0.4747946560382843
1781788073282090000,49.488090087890626,-0.1594357043504715,0.09666935354471207,-0.26771149039268494
1781788073330617900,49.53661791992187,-0.29100072383880615,0.6589703559875488,0.11140646785497665
1781788073427673300,49.63367333984375,0.27488914132118225,0.809548556804657,-1.4438552856445312
1781788073476201200,49.682201171875,0.6785180568695068,0.9837213754653931,-1.093906044960022
1781788073524728800,49.730728759765626,0.258395791053772,1.9590433835983276,-0.6988292932510376
1781788073573256700,49.77925659179687,-0.20418155193328857,2.198349714279175,-0.5122864842414856
1781788073621784600,49.82778466796875,-0.07559451460838318,1.4937934875488281,-0.9906699657440186
1781788073670312400,49.8763125,-0.8580359220504761,1.904447317123413,-1.0238093137741089
1781788073718840000,49.92484008789062,-0.8539889454841614,0.8272636532783508,-0.25213444232940674
1781788073767368000,49.97336791992188,0.3453676700592041,0.02542724646627903,-0.11400263756513596
1781788073815895600,50.0218955078125,0.8702532649040222,-1.5740457773208618,1.0926079750061035
1781788073864423400,50.07042333984375,0.687451958656311,-3.241401195526123,2.1793365478515625
1781788073912951300,50.118951416015626,-0.19097159802913666,-1.6824743747711182,0.965395450592041
1781788073961479200,50.167479248046874,-1.2194387912750244,-1.4033855199813843,0.2724456787109375
1781788074010006800,50.2160068359375,-1.532430648803711,-1.0101412534713745,0.5192350745201111
1781788074107062500,50.3130625,1.086881160736084,-0.9943351149559021,-0.0435241162776947
1781788074155590400,50.36159033203125,1.228219985961914,-0.6992111206054688,0.4978547990322113
1781788074204118300,50.4101181640625,-0.043829549103975296,-0.4365392327308655,0.7032580971717834
1781788074252646000,50.45864599609375,0.145614892244339,-0.05413788929581642,-0.3473529815673828
1781788074301173800,50.507173828125,-0.22968515753746033,0.42882707715034485,0.12415826320648193
1781788074349701600,50.55570166015625,-0.14805835485458374,1.204243540763855,0.14256057143211365
1781788074398229500,50.6042294921875,0.36308276653289795,0.4864010810852051,-1.193018913269043
1781788074446757000,50.652757080078125,0.699287474155426,0.6902772188186646,-1.201570987701416
1781788074495284700,50.70128466796875,0.1253799945116043,1.8610758781433105,-0.8061888217926025
1781788074543812600,50.7498125,-0.05757400393486023,1.8566471338272095,-0.4976257085800171
1781788074592340500,50.798340576171874,0.017486004158854485,1.1970659494400024,-0.9788344502449036
1781788074640868000,50.8468681640625,-0.9921970963478088,1.7137048244476318,-0.7984002828598022
1781788074689396000,50.89539599609375,-0.708145022392273,0.6110175251960754,-0.46402814984321594
1781788074737923800,50.943923828125,0.5251910090446472,-0.0755181610584259,-0.19593487679958344
1781788074786451700,50.99245166015625,0.7667880058288574,-1.4469095468521118,1.1122320890426636
1781788074834979300,51.040979248046874,0.330706924200058,-2.6103780269622803,2.071824312210083
1781788074883507000,51.0895068359375,0.1588248461484909,-1.4613412618637085,1.2465459108352661
1781788074932034800,51.138034912109376,-1.0074687004089355,-1.063515543937683,0.3252091407775879
1781788074980562700,51.18656274414062,-1.4216350317001343,-1.087186574935913,0.5279398560523987
1781788075029090600,51.23509057617188,-0.44127345085144043,-1.5196788311004639,0.5422188639640808
1781788075077618200,51.2836181640625,1.1250602006912231,-1.4805071353912354,-0.042913250625133514
1781788075126146000,51.33214599609375,1.2983167171478271,-1.268766164779663,0.37919431924819946
1781788075174674000,51.380673828125,0.12545634806156158,-0.58749920129776,0.8429933786392212
1781788075223201500,51.42920141601562,0.17310380935668945,-0.15638138353824615,-0.1219438835978508
1781788075271729400,51.4777294921875,-0.5331322550773621,0.5627591609954834,-0.09246965497732162
1781788075320257300,51.52625732421875,-0.3199404180049896,1.1838558912277222,-0.0334448479115963
1781788075368785200,51.57478515625,0.464486300945282,0.6432406306266785,-1.1408662796020508
1781788075417312800,51.62331274414063,0.7700713872909546,0.893542468547821,-1.03129243850708
1781788075465840400,51.67184033203125,0.2730565667152405,1.950491189956665,-0.8474985361099243
1781788075514368300,51.7203681640625,0.043371398001909256,2.3561055660247803,-0.5325213670730591
1781788075562896100,51.768896240234376,0.07964149862527847,1.490739107131958,-0.9861648082733154
1781788075611423700,51.817423828125,-0.6357575058937073,1.8114430904388428,-1.1380411386489868
1781788075708479500,51.9144794921875,0.16859868168830872,0.3027598559856415,-0.26305365562438965
1781788075757007000,51.96300708007813,0.6583595275878906,-0.9149227142333984,1.0863466262817383
1781788075805535000,52.011534912109376,0.9983821511268616,-2.953531265258789,2.4051272869110107
1781788075854062800,52.06006274414062,0.005039634648710489,-1.1966841220855713,1.2258528470993042
1781788075902590500,52.10859057617188,-1.406821608543396,-0.9948696494102478,0.18898628652095795
1781788075951118300,52.157118408203125,-1.7114903926849365,-1.216995358467102,0.4405862092971802
1781788075999646000,52.20564599609375,-0.6039161682128906,-1.405370831489563,0.6488910913467407
1781788076048173800,52.254173828125,0.8657481074333191,-1.1443787813186646,0.17363831400871277
1781788076096701400,52.30270141601562,1.3962842226028442,-0.9590576887130737,0.2599993348121643
1781788076145229300,52.35122924804688,0.24029892683029175,-0.4705185890197754,0.6300306916236877
1781788076193757200,52.399757080078125,0.277332603931427,-0.31299182772636414,0.01649334840476513
1781788076242284800,52.44828491210937,-0.33368489146232605,0.33979353308677673,-0.06123919412493706
1781788076290812700,52.49681274414063,-0.49113526940345764,0.7436515092849731,0.06146826967597008
1781788076339340500,52.545340576171874,0.35040730237960815,0.3468184769153595,-0.8920916318893433
1781788076387868200,52.5938681640625,0.8324559926986694,0.6214022040367126,-1.2292890548706055
1781788076436395800,52.642395751953124,0.27916520833969116,1.8214460611343384,-1.060232162475586
1781788076484923600,52.69092358398437,0.12843431532382965,2.178802013397217,-0.44875654578208923
1781788076533451500,52.739451416015626,0.16997312009334564,1.5220459699630737,-0.8043562173843384
1781788076581979100,52.787979248046874,-0.3981311321258545,1.743866205215454,-1.1937824487686157
1781788076630507000,52.83650708007813,-1.1396446228027344,1.3813179731369019,-0.4145480990409851
1781788076679034600,52.88503466796875,0.2115882933139801,0.2750418782234192,-0.291229784488678
1781788076727562500,52.9335625,0.9853248596191406,-0.8381064534187317,0.8124501705169678
1781788076776090000,52.982090087890626,0.44554948806762695,-2.387488603591919,1.9057453870773315
1781788076824618000,53.03061791992187,0.3488037884235382,-1.6643774509429932,1.957058072090149
1781788076873145900,53.07914575195313,-0.6641627550125122,-0.9018654823303223,0.2845102846622467
1781788076921673700,53.127673828125,-1.6210824251174927,-0.8391754627227783,0.3216966688632965
1781788076970201000,53.176201171875,-1.1210895776748657,-1.088331937789917,0.6869937777519226
1781788077018729000,53.22472900390625,0.2237292230129242,-1.1559852361679077,0.3001636862754822
1781788077067256800,53.2732568359375,1.5586978197097778,-1.1661409139633179,0.036422811448574066
1781788077115784400,53.32178442382813,0.5145772099494934,-0.5793288946151733,0.7900772094726562
1781788077164312300,53.370312255859375,0.05230529606342316,-0.2522871494293213,0.3223075270652771
1781788077212840000,53.41883984375,-0.320933073759079,0.42073312401771545,-0.3869064748287201
1781788077309895700,53.515895751953124,0.24350596964359283,0.8289434909820557,-0.8975130915641785
1781788077358423300,53.56442333984375,0.7810669541358948,0.6452259421348572,-1.320078730583191
1781788077406951000,53.612950927734374,0.5068650245666504,1.777234673500061,-1.014417290687561
1781788077455478800,53.66147875976562,-0.007483093533664942,2.470184564590454,-0.48586657643318176
1781788077504006400,53.71000634765625,-0.07498364895582199,1.8071670532226562,-0.8539889454841614
1781788077552534300,53.7585341796875,-0.6019308567047119,1.8592432737350464,-1.2482258081436157
1781788077601062000,53.807061767578126,-1.0967313051223755,1.190346360206604,-0.5666534304618835
1781788077698117600,53.90411767578125,0.6939423680305481,-0.7283799052238464,0.5214494466781616
1781788077746645200,53.952645263671876,0.5206094980239868,-2.6804747581481934,1.8802417516708374
1781788077795173000,54.00117309570312,0.48846274614334106,-2.2594361305236816,2.239201307296753
1781788077843700700,54.04970068359375,-0.8758273720741272,-1.3471095561981201,0.05818486958742142
1781788077892228600,54.098228515625,-1.536553978919983,-1.1016182899475098,0.503505289554596
1781788077940756200,54.14675610351563,-0.7957277297973633,-1.3351976871490479,0.597273051738739
1781788077989284000,54.1952841796875,0.6998983025550842,-1.2806016206741333,0.031612250953912735
1781788078037811700,54.24381176757812,1.535485029220581,-1.1121556758880615,0.22762349247932434
1781788078086339600,54.29233959960938,0.2124282270669937,-0.4557051360607147,1.3762784004211426
1781788078134867200,54.3408671875,0.04108065739274025,-0.22273656725883484,-0.05192350596189499
1781788078183395000,54.38939501953125,-0.3606393039226532,0.45158177614212036,-0.27695080637931824
1781788078231922700,54.437922607421875,-0.743880569934845,1.026863694190979,-0.009392046369612217
1781788078280450600,54.48645043945312,0.18264856934547424,0.8581122756004333,-0.9121738076210022
1781788078328978200,54.53497827148438,1.0645081996917725,0.9433279633522034,-0.9912807941436768
1781788078377506000,54.583506103515624,0.20937390625476837,2.2643229961395264,-1.2344050407409668
1781788078426033700,54.63203369140625,-0.14431680738925934,2.6497786045074463,-0.6495019793510437
1781788078474561500,54.6805615234375,0.1482110619544983,1.5179989337921143,-0.9501237869262695
1781788078523089200,54.72908911132812,-0.5015199780464172,1.299156665802002,-1.2686134576797485
1781788078571616800,54.77761669921875,-1.1684316396713257,0.9943351149559021,-0.2808450758457184
1781788078620144600,54.82614453125,0.18463388085365295,0.0256563201546669,-0.5322923064231873
1781788078668672300,54.87467236328125,0.7143300175666809,-0.42684176564216614,0.41294458508491516
1781788078717200100,54.9232001953125,0.6527853608131409,-2.206061840057373,1.7077488899230957
1781788078814255400,55.02025537109375,-0.6328558921813965,-1.011744737625122,0.23251040279865265
1781788078862783000,55.06878295898437,-1.5783218145370483,-1.1467459201812744,0.5127446055412292
1781788078911310800,55.117310791015626,-1.0582468509674072,-1.3070979118347168,0.7364738583564758
1781788078959838500,55.16583837890625,0.12545634806156158,-1.0844377279281616,0.391182541847229
1781788079008366300,55.21436645507813,1.3823870420455933,-1.1015418767929077,-0.029932374134659767
1781788079056894000,55.26289404296875,0.9665408134460449,-1.0667989253997803,0.5432115197181702
1781788079105421800,55.311421875,-0.0639880821108818,-0.2759581506252289,0.6843212842941284
1781788079153949400,55.359949462890626,-0.06337722390890121,0.09040798991918564,-0.5560396909713745
1781788079202477300,55.40847729492187,-0.4793761372566223,0.5656607747077942,-0.03283398225903511
1781788079251005200,55.45700512695313,-0.08536835014820099,0.7888554930686951,0.16569706797599792
1781788079299532800,55.50553271484375,0.27748534083366394,0.3474293351173401,-1.3978112936019897
1781788079348060400,55.55406030273438,0.7914516925811768,0.553214430809021,-0.6746237874031067
1781788079396588300,55.60258837890625,0.1547778695821762,1.856570839881897,-0.7820596098899841
1781788079445116000,55.65111596679687,-0.03825540840625763,1.8049527406692505,-0.6446150541305542
1781788079493643500,55.6996435546875,0.131717711687088,1.6279546022415161,-1.004719853401184
1781788079542171100,55.74817114257812,-0.588110089302063,1.7043126821517944,-0.8466585874557495
1781788079590699000,55.79669897460938,-0.9112575054168701,0.9198096394538879,-0.6273581385612488
1781788079639226600,55.8452265625,0.6036871075630188,0.18585561215877533,-0.2709949016571045
1781788079687754500,55.89375439453125,0.8978185057640076,-1.2502875328063965,1.07863450050354
1781788079736282000,55.9422822265625,0.43348491191864014,-2.79394268989563,2.4699554443359375
1781788079784810000,55.99081005859375,0.04993819445371628,-1.261283040046692,1.3632211685180664
1781788079833337600,56.03933764648438,-1.3658936023712158,-0.8552106618881226,0.22418737411499023
1781788079881865200,56.087865234375,-1.641546368598938,-0.35537058115005493,0.4125627875328064
1781788079930393000,56.13639306640625,-0.6919570565223694,-0.7120392322540283,0.4670824706554413
1781788079978920700,56.184920654296874,0.8244383931159973,-0.6422479748725891,-0.1107192412018776
1781788080027448600,56.23344848632812,1.2190570831298828,-0.7582359313964844,0.3868301212787628
1781788080075976200,56.28197607421875,0.37461283802986145,-0.5426769852638245,0.927521824836731
1781788080124503800,56.33050390625,0.11056652665138245,-0.6323977708816528,-0.5446622967720032
1781788080173031700,56.37903173828125,-0.5926915407180786,0.5978838801383972,-0.4436405599117279
1781788080221559300,56.427559326171874,-0.4130973219871521,0.9081268310546875,0.19219332933425903
1781788080270087000,56.4760869140625,-0.08758273720741272,0.7031053900718689,-0.3657552897930145
1781788080318614800,56.52461474609375,0.5355756878852844,0.06673697382211685,-1.1744638681411743
1781788080367142400,56.57314233398437,0.7611374855041504,0.7374665141105652,-0.8124501705169678
1781788080464198000,56.67019799804687,0.26939135789871216,1.1480439901351929,-0.5435169339179993
1781788080512725500,56.7187255859375,0.11133010685443878,1.391702651977539,-0.8554397821426392
1781788080561253000,56.767253173828124,-1.1629338264465332,2.001574754714966,-0.7686206102371216
1781788080609781000,56.81578100585938,-0.3778962194919586,0.5446622967720032,-0.6165916323661804
1781788080658308600,56.86430859375,1.019685983657837,-0.9546289443969727,0.21930044889450073
1781788080706836200,56.91283618164063,0.43493571877479553,-1.6383392810821533,1.3391683101654053
1781788080755364000,56.961364013671876,0.08941533416509628,-2.9922447204589844,1.7425681352615356
1781788080803891700,57.0098916015625,-0.08720094710588455,-1.6717078685760498,0.9272927641868591
1781788080852419300,57.05841943359375,-1.5958079099655151,-0.6322450637817383,0.3819431960582733
1781788080900947000,57.10694702148437,-1.4957787990570068,-0.31497713923454285,0.6642391085624695
1781788080949474800,57.15547485351563,-0.33719736337661743,-0.5187768936157227,0.5222893953323364
1781788080998002400,57.20400244140625,0.972496747970581,-0.4437169134616852,-0.1291215419769287
1781788081046530300,57.2525302734375,1.0041090250015259,-0.5446622967720032,0.6867647171020508
1781788081095058000,57.301057861328125,0.056428633630275726,-0.17165300250053406,1.0296889543533325
1781788081143585500,57.34958544921875,0.2597702443599701,-0.7269290685653687,-0.8914044499397278
1781788081192113400,57.39811352539063,-0.07254019379615784,0.7747292518615723,-0.6116283535957336
1781788081240641000,57.44664111328125,-0.287106454372406,1.0093777179718018,0.12446369975805283
1781788081289168600,57.49516870117188,-0.11362084746360779,1.1122320890426636,-0.2977202236652374
1781788081337696500,57.543696533203125,0.4088212549686432,0.48708829283714294,-1.3319143056869507
1781788081386224000,57.59222412109375,0.7674752473831177,0.7963386178016663,-0.9732602834701538
1781788081434751700,57.640751708984375,0.21281002461910248,1.5903100967407227,-0.7112756967544556
1781788081483279600,57.68927954101562,0.07941242307424545,1.3492475748062134,-0.3633118271827698
1781788081531807200,57.73780712890625,-0.018784092739224434,1.1197150945663452,-0.6026944518089294
1781788081580334800,57.7863349609375,-0.9024763703346252,1.6263511180877686,-0.7276926636695862
1781788081628862700,57.83486279296875,-0.8591049313545227,0.7112756967544556,-0.977154552936554
1781788081677390000,57.88339013671875,0.29306238889694214,0.21342088282108307,-0.6656135320663452
1781788081725917700,57.93191772460938,0.780303418636322,-1.37482750415802,0.349185585975647
1781788081774445600,57.980445556640625,0.1357647031545639,-2.5576908588409424,1.9341505765914917
1781788081822973200,58.02897314453125,0.014202605932950974,-1.719584345817566,1.9110140800476074
1781788081871500800,58.077500732421875,-0.8580359220504761,-1.3607776165008545,0.33979353308677673
1781788081968556300,58.17455639648438,-0.7792344093322754,-1.2828160524368286,0.7557924389839172
1781788082017084200,58.223084228515624,0.4107302129268646,-1.1099413633346558,0.29703301191329956
1781788082065611800,58.27161181640625,1.2783873081207275,-0.9997565746307373,0.04886918142437935
1781788082114139400,58.320139404296874,0.5914698243141174,-0.6701186895370483,1.0615302324295044
1781788082162667000,58.3686669921875,0.09834922850131989,-0.7115047574043274,0.5778780579566956
1781788082211195000,58.41719482421875,-0.4068359434604645,0.018173227086663246,-0.35269805788993835
1781788082259722500,58.46572241210937,-0.46135562658309937,0.5690969228744507,0.11583523452281952
1781788082308250000,58.51425,0.35537058115005493,0.8939242362976074,-0.42959064245224
1781788082356777700,58.56277783203125,0.7576250433921814,0.28954991698265076,-1.2961024045944214
1781788082405305300,58.61130541992188,0.8969785571098328,0.7302125096321106,-0.7423534393310547
1781788082453833000,58.6598330078125,0.5220603346824646,1.5214351415634155,-0.5221366882324219
1781788082502360800,58.70836083984375,0.20723587274551392,1.4592032432556152,-0.539851725101471
1781788082550888400,58.756888427734374,-0.20624321699142456,1.234939455986023,-1.066188097000122
1781788082599416000,58.805416015625,-0.8910989761352539,1.6387211084365845,-0.6908880472183228
1781788082647943700,58.853943603515624,-0.6416370868682861,0.6440805792808533,-0.45127636194229126
1781788082696471600,58.90247143554687,0.337350070476532,-0.09911280870437622,-0.1721111536026001
1781788082744999200,58.950999267578126,0.62857985496521,-1.3078614473342896,1.036866545677185
1781788082793526800,58.99952685546875,-0.030314164236187935,-2.1633012294769287,1.9608759880065918
1781788082842054400,59.048054443359376,0.1553887277841568,-0.9434043169021606,1.5456405878067017
1781788082890582300,59.096582275390624,-0.8031344413757324,-1.0083850622177124,0.318871408700943
1781788082939109600,59.14510961914063,-1.6424627304077148,-0.314748078584671,0.2718348205089569
1781788082987637500,59.193637451171874,-0.7727439403533936,-0.7717512845993042,0.3424660563468933
1781788083036165000,59.2421650390625,0.586888313293457,-0.6714931130409241,0.0019853105768561363
1781788083084692700,59.290692626953124,1.3535236120224,-0.6108647584915161,0.40889760851860046
1781788083133220400,59.33922045898437,0.32788166403770447,-0.4860192835330963,0.8891900181770325
1781788083181748200,59.387748291015626,0.20448698103427887,-0.8713222742080688,-0.2390008419752121
1781788083230276000,59.43627612304687,-0.22235478460788727,0.4699077308177948,-0.3767508566379547
1781788083278803500,59.484803466796876,-0.26732969284057617,0.8067996501922607,0.0016035200096666813
1781788083327331000,59.5333310546875,0.3742310404777527,1.1617120504379272,-0.1689804643392563
1781788083375859000,59.58185888671875,0.5206858515739441,0.3549124300479889,-1.4039963483810425
1781788083424386600,59.630386474609374,0.8669698238372803,0.6892082095146179,-1.0716859102249146
1781788083472914200,59.6789140625,0.42088583111763,1.777005672454834,-0.614682674407959
1781788083569969400,59.77596948242188,-0.19364413619041443,1.4059816598892212,-1.091004490852356
1781788083618497000,59.8244970703125,-0.9292780160903931,1.50028395652771,-0.48792824149131775
1781788083667024600,59.87302465820313,-0.44638943672180176,0.2404516488313675,-0.4713585376739502
1781788083715552300,59.92155224609375,0.4805978536605835,-0.1406516134738922,0.10247256606817245
1781788083764080000,59.970080078125,0.6126973628997803,-1.4043781757354736,1.261588454246521
1781788083812607700,60.018607666015626,0.183030366897583,-2.3002877235412598,2.068617105484009
1781788083861135400,60.06713525390625,-0.11133010685443878,-0.647516667842865,0.8810960650444031
1781788083909663000,60.1156630859375,-1.2020292282104492,-0.40057456493377686,0.2467893660068512
1781788083958190600,60.164190673828124,-1.4960078001022339,0.06352993845939636,0.53221595287323
1781788084006718500,60.21271850585938,-0.6367501616477966,-0.4802924394607544,0.27000224590301514
1781788084055246000,60.26124609375,0.7414371371269226,-0.5524508357048035,-0.002825249684974551
1781788084103773700,60.30977368164063,1.2109630107879639,-0.9789871573448181,0.7078395485877991
1781788084152301300,60.35830126953125,0.08575014024972916,-0.5072468519210815,0.5493965148925781
1781788084200829000,60.40682885742188,-0.26771149039268494,0.11094831675291061,-0.4943423271179199
1781788084249356500,60.4553564453125,-0.6197986602783203,0.6829468011856079,-0.0383317656815052
1781788084297884200,60.50388427734375,0.42073312401771545,1.1980586051940918,-0.22235478460788727
1781788084346412000,60.552412109375,0.4442514181137085,0.5836049318313599,-1.5638138055801392
1781788084394939600,60.60093969726562,0.8639918565750122,0.46021026372909546,-0.9006437659263611
1781788084443467300,60.64946728515625,0.6061305999755859,1.4928008317947388,-0.5978075265884399
1781788084491995000,60.69799487304687,0.04932733252644539,1.5104395151138306,-0.6532435417175293
1781788084540522500,60.7465224609375,-0.226859912276268,1.34000825881958,-1.1347576379776
1781788084589050000,60.795050048828124,-0.7662535309791565,1.380554437637329,-0.9527199864387512
1781788084637577700,60.84357763671875,-0.8712459206581116,1.0079269409179688,-0.3424660563468933
1781788084686105300,60.892105224609374,0.16592614352703094,0.25702136754989624,-0.2565632164478302
1781788084734633000,60.94063305664063,0.7315869331359863,-1.337030291557312,0.9837213754653931
1781788084783160800,60.989160888671876,0.09941824525594711,-2.5757877826690674,2.1914010047912598
1781788084831688200,61.03768823242188,-0.08513928204774857,-1.1088722944259644,1.5157846212387085
1781788084880215800,61.0862158203125,-0.7540361881256104,-1.4750093221664429,0.2830594778060913
