time,seconds_elapsed,z,y,x
1781788023917924900,0.1239248046875,8.995817184448242,4.449453830718994,-0.5282155871391296
1781788023976159000,0.182158935546875,8.938986778259277,4.357928276062012,-0.6849454641342163
1781788024034393000,0.24039306640625,8.69491958618164,4.4189453125,-0.6101697683334351
1781788024092627200,0.298627197265625,8.589634895324707,4.4721856117248535,-0.584446907043457
1781788024189684000,0.39568408203125,8.751749038696289,4.277170658111572,0.003589233849197626
1781788024247918000,0.45391796875,8.261817932128906,4.246662139892578,-0.07537391036748886
1781788024325563400,0.5315634765625,8.759525299072266,4.252644062042236,-0.9260223507881165
1781788024403209000,0.609208984375,9.743574142456055,3.6879379749298096,-1.4793626070022583
1781788024480854300,0.686854248046875,9.609575271606445,3.8572301864624023,-0.8249256014823914
1781788024558499800,0.764499755859375,9.186644554138184,3.7435710430145264,-0.3613162338733673
1781788024636145200,0.842145263671875,8.900702476501465,3.7800614833831787,-0.08135596662759781
1781788024733202000,0.939201904296875,8.849854469299316,3.8488552570343018,0.2727817893028259
1781788024869081300,1.075081298828125,9.152546882629395,3.3092737197875977,-0.07357929646968842
1781788024927315500,1.1333154296875,9.196813583374023,3.6191442012786865,-0.046061836183071136
1781788025024372200,1.230372314453125,8.909076690673828,3.690330743789673,0.32303106784820557
1781788025082606300,1.2886064453125,9.142974853515625,3.5066816806793213,0.7178468108177185
1781788025179663000,1.3856630859375,9.021539688110352,3.85483717918396,0.9391828775405884
1781788025237897200,1.443897216796875,9.455238342285156,3.812962770462036,1.1102696657180786
1781788025334954000,1.5409541015625,9.248857498168945,3.5880374908447266,0.7381857633590698
1781788025412599300,1.618599365234375,8.58185863494873,3.9326040744781494,0.494716078042984
1781788025490244900,1.696244873046875,8.422736167907715,2.8085756301879883,1.949552297592163
1781788025567890200,1.77389013671875,9.349954605102539,5.236093997955322,0.4325026869773865
1781788025645535700,1.85153564453125,8.224729537963867,3.366701364517212,3.538386583328247
1781788025723181000,1.92918115234375,6.790830612182617,3.579662561416626,3.7046875953674316
1781788025800826400,2.006826416015625,6.267400741577148,0.5742774605751038,5.888736724853516
1781788025878472000,2.084471923828125,7.554141044616699,2.5262224674224854,5.976672649383545
1781788025936706000,2.1427060546875,10.304092407226562,3.4157543182373047,5.797211170196533
1781788025994940000,2.20093994140625,10.491331100463867,2.6566312313079834,5.4951171875
1781788026053174000,2.259174072265625,9.245866775512695,2.0889341831207275,4.182055950164795
1781788026130819300,2.3368193359375,10.582856178283691,2.145763635635376,3.040679454803467
1781788026208465000,2.41446484375,11.089536666870117,1.5936198234558105,4.156332969665527
1781788026286110200,2.492110107421875,11.011770248413086,1.262213945388794,5.200201988220215
1781788026344344000,2.550343994140625,8.508877754211426,-0.3696911036968231,5.327021598815918
1781788026402578200,2.608578125,8.428119659423828,0.5389832854270935,3.748356580734253
1781788026499635000,2.705635009765625,8.462815284729004,1.862214207649231,2.956930637359619
1781788026557869000,2.763869140625,8.240880966186523,1.9172492027282715,3.318246841430664
1781788026635514400,2.841514404296875,8.422736167907715,2.386242389678955,2.713460922241211
1781788026732571100,2.938571044921875,9.278767585754395,2.5016961097717285,2.5848467350006104
1781788026790805000,2.996804931640625,9.490532875061035,2.3784656524658203,2.5148565769195557
1781788026887861800,3.09386181640625,9.835099220275879,2.2067806720733643,2.252842426300049
1781788026984918500,3.19091845703125,8.980263710021973,2.617149829864502,1.8993029594421387
1781788027043152600,3.249152587890625,8.95513916015625,2.729612350463867,2.0811574459075928
1781788027159620600,3.36562060546875,9.178269386291504,2.6183462142944336,2.0853450298309326
1781788027256677400,3.462677490234375,9.199206352233887,2.688336133956909,1.9716858863830566
1781788027314911500,3.520911376953125,9.551549911499023,2.572882652282715,1.9357935190200806
1781788027373145300,3.579145263671875,9.245866775512695,2.6847469806671143,1.932204246520996
1781788027489613600,3.695613525390625,9.231510162353516,2.664407968521118,1.932802438735962
1781788027606081500,3.81208154296875,9.455238342285156,2.536990165710449,1.906481385231018
1781788027664315600,3.870315673828125,9.42173957824707,2.5974090099334717,1.9519450664520264
1781788027741961000,3.9479609375,9.342177391052246,2.5286152362823486,1.911865234375
1781788027819606300,4.025606201171875,9.347561836242676,2.555534601211548,1.843071699142456
1781788027916663000,4.1226630859375,9.388837814331055,2.5160529613494873,1.7491533756256104
1781788027974897000,4.18089697265625,9.33858871459961,2.5292134284973145,1.7892330884933472
1781788028052542200,4.258542236328125,9.507282257080078,2.5286152362823486,1.8729819059371948
1781788028110776300,4.3167763671875,9.437891006469727,2.493321180343628,1.9046868085861206
1781788028169010400,4.375010498046875,9.473783493041992,2.5710878372192383,1.9028922319412231
1781788028246655700,4.45265576171875,9.442078590393066,2.524427890777588,1.968694806098938
1781788028324301000,4.530301025390625,9.516255378723145,2.466402053833008,2.0787646770477295
1781788028382535000,4.588534912109375,9.275178909301758,2.7146573066711426,2.1206390857696533
1781788028440769000,4.64676904296875,8.71047306060791,2.8767709732055664,2.5118656158447266
1781788028518414300,4.724414306640625,8.680562019348145,2.9934210777282715,3.2404799461364746
1781788028615471000,4.82147119140625,9.058030128479004,2.874378204345703,2.9347970485687256
1781788028673705000,4.879705078125,9.044869422912598,2.9012975692749023,2.9898319244384766
1781788028770761700,4.97676171875,9.026923179626465,2.733201742172241,2.7738797664642334
1781788028828995800,5.034995849609375,8.994620323181152,2.730808734893799,2.775076150894165
1781788028926052400,5.13205224609375,9.137591361999512,2.7391836643218994,2.809173822402954
1781788029023108900,5.22910888671875,9.279366493225098,2.706880569458008,2.823530673980713
1781788029081343000,5.287343017578125,9.196813583374023,2.654836654663086,2.8971099853515625
1781788029178399700,5.384399658203125,9.083154678344727,2.640479803085327,2.7810580730438232
1781788029236633600,5.442633544921875,9.137591361999512,2.562713146209717,2.71645188331604
1781788029333690400,5.5396904296875,9.215357780456543,2.585444927215576,2.681756019592285
1781788029411335400,5.61733544921875,9.157332420349121,2.620140790939331,2.66560435295105
1781788029469569500,5.675569580078125,9.098708152770996,2.599801778793335,2.781656265258789
1781788029566626300,5.772626220703125,9.165108680725098,2.521436929702759,2.706880569458008
1781788029624860200,5.830860107421875,9.159725189208984,2.26959228515625,3.410968780517578
1781788029721917000,5.9279169921875,8.097311973571777,1.9094724655151367,4.037888050079346
1781788029780150800,5.98615087890625,9.116654396057129,1.0911271572113037,3.6945180892944336
1781788029877207600,6.08320751953125,5.544169902801514,5.934798240661621,4.0079779624938965
1781788029935441400,6.14144140625,4.241278171539307,2.5160529613494873,8.69372272491455
1781788030051909400,6.257909423828125,6.8309102058410645,2.076970100402832,7.670193195343018
1781788030168377300,6.37437744140625,7.11565637588501,2.902493953704834,6.894918441772461
1781788030226611500,6.432611572265625,7.613363265991211,3.7543387413024902,7.253243446350098
1781788030284845300,6.49084521484375,6.887141704559326,2.1194427013397217,8.352147102355957
1781788030362490600,6.56849072265625,6.165705680847168,1.2041879892349243,8.857032775878906
1781788030440136000,6.646135986328125,5.088337421417236,1.0893324613571167,9.162117958068848
1781788030517781200,6.72378125,5.304887771606445,1.588834285736084,8.68774127960205
1781788030576015000,6.78201513671875,4.343571186065674,1.0713863372802734,9.155537605285645
1781788030673071900,6.87907177734375,2.7152554988861084,1.3525429964065552,9.681958198547363
1781788030731305700,6.9373056640625,3.036491870880127,2.6057839393615723,9.163912773132324
1781788030789539800,6.995539794921875,2.743969440460205,1.0378868579864502,8.642276763916016
1781788030847773700,7.053773681640625,3.032902717590332,1.511067509651184,8.222336769104004
1781788030925419000,7.1314189453125,1.5930216312408447,2.1409780979156494,8.69491958618164
1781788031003064300,7.209064208984375,3.3583266735076904,2.444866418838501,8.775078773498535
1781788031080709600,7.286709716796875,1.9980069398880005,2.3748764991760254,8.764909744262695
1781788031138943500,7.344943603515625,2.66560435295105,2.510669231414795,9.0514497756958
1781788031216588800,7.4225888671875,2.782254457473755,2.8007988929748535,8.992227554321289
1781788031294234000,7.500234130859375,3.087937593460083,2.59621262550354,9.134002685546875
1781788031371879400,7.57787939453125,3.287140130996704,2.162513494491577,9.028120040893555
1781788031430113300,7.63611328125,3.1130621433258057,2.203789710998535,9.142376899719238
1781788031527170000,7.733170166015625,3.363710403442383,2.6273193359375,8.536395072937012
1781788031585404000,7.79140380859375,3.0957143306732178,2.572882652282715,8.994620323181152
1781788031682460400,7.88846044921875,3.6406795978546143,2.101496458053589,9.08973503112793
1781788031740694500,7.946694580078125,3.139383316040039,2.7320053577423096,8.639286041259766
1781788031837751000,8.0437509765625,3.1788649559020996,2.000998020172119,9.09811019897461
1781788031895985000,8.10198486328125,3.3792638778686523,1.1383854150772095,9.011369705200195
1781788032012452900,8.218452880859376,4.199403762817383,2.592623233795166,8.808578491210938
1781788032090098200,8.29609814453125,4.108476638793945,2.245664119720459,8.749356269836426
1781788032167743500,8.373743408203126,3.776472330093384,2.111067771911621,9.033503532409668
1781788032245388800,8.451388916015626,4.362713813781738,1.3848460912704468,8.95394229888916
1781788032323034000,8.5290341796875,5.280959606170654,-0.02392822690308094,9.251250267028809
1781788032400679200,8.60667919921875,3.9984066486358643,2.0679969787597656,8.437690734863281
1781788032478324500,8.684324462890626,4.1659040451049805,1.8502501249313354,8.897710800170898
1781788032536558300,8.742558349609375,4.60857629776001,1.2675977945327759,8.74337387084961
1781788032594792400,8.80079248046875,4.246662139892578,1.3770694732666016,8.495118141174316
1781788032653026300,8.8590263671875,4.589433670043945,1.7904295921325684,8.776275634765625
1781788032750082800,8.956082763671875,4.408177375793457,1.196411371231079,8.664410591125488
1781788032808317000,9.01431689453125,4.560121536254883,1.2849457263946533,8.69491958618164
1781788032905373400,9.11137353515625,4.95912504196167,1.0618150234222412,8.603992462158203
1781788032963607300,9.169607177734376,4.505684852600098,1.3441680669784546,9.053842544555664
1781788033060664000,9.2666640625,4.3417768478393555,1.3872389793395996,8.68774127960205
1781788033118898000,9.32489794921875,4.895116806030273,1.399801254272461,8.523832321166992
1781788033215954400,9.421954345703124,4.561916351318359,1.3286148309707642,8.39282512664795
1781788033293599700,9.499599853515624,5.063212871551514,1.2801600694656372,8.270791053771973
1781788033351833600,9.55783349609375,5.0841498374938965,1.2329018115997314,8.1493558883667
1781788033448890000,9.65489013671875,5.362315654754639,0.9882357716560364,8.38564682006836
1781788033507124000,9.7131240234375,5.508875846862793,0.885344386100769,8.278568267822266
1781788033604180700,9.8101806640625,5.508875846862793,0.9966106414794922,8.305487632751465
1781788033681825800,9.88782568359375,5.108676433563232,0.9750752449035645,7.963313579559326
1781788033740060000,9.946059814453125,4.734199523925781,0.6897311210632324,7.9968132972717285
1781788033826297600,10.032297607421874,4.906482696533203,-2.090130567550659,9.91107177734375
1781788033884531500,10.090531494140626,3.8009986877441406,-0.0526420995593071,7.345965385437012
1781788033981588000,10.187587890625,-4.64805793762207,1.0923235416412354,3.5401811599731445
1781788034117467100,10.323467041015626,4.5391845703125,-7.636693477630615,13.978869438171387
1781788034175701000,10.381700927734375,5.351547718048096,-6.898507595062256,16.768901824951172
1781788034233934800,10.439934814453125,3.8524444103240967,-6.126822471618652,17.848064422607422
1781788034330991400,10.536991455078125,0.4785645306110382,-3.260220766067505,14.274383544921875
1781788034428048100,10.634048095703125,-4.018745422363281,-3.85483717918396,10.916056632995605
1781788034486281700,10.69228173828125,0.9631111025810242,-8.848658561706543,8.659625053405762
1781788034583338500,10.78933837890625,4.689932346343994,-7.294519901275635,5.72841739654541
1781788034680395000,10.88639501953125,4.619344234466553,-7.231110095977783,10.792826652526855
1781788034738628900,10.94462890625,3.0233314037323,-6.017949104309082,6.2428741455078125
1781788034835685400,11.041685302734376,2.6464617252349854,-3.8775691986083984,3.311666488647461
1781788034932742000,11.138741943359374,1.4333007335662842,-2.575873613357544,6.732206344604492
1781788035029798400,11.23579833984375,0.9655039310455322,-6.447460651397705,7.211967468261719
1781788035088032500,11.294032470703126,-0.6161518096923828,-9.050851821899414,11.036894798278809
1781788035185088800,11.3910888671875,2.197807550430298,-5.938985824584961,9.546165466308594
1781788035282145300,11.488145263671875,3.139383316040039,-5.194818019866943,6.8865437507629395
1781788035379201800,11.585201904296875,-3.0723843574523926,-5.278566837310791,10.141979217529297
1781788035437436000,11.643435791015625,-2.0315065383911133,-5.150550842285156,10.894521713256836
1781788035534492200,11.7404921875,1.1569297313690186,-4.47697114944458,8.111668586730957
1781788035631548700,11.837548583984375,1.6630117893218994,-6.087340831756592,4.709074974060059
1781788035728605400,11.93460546875,5.801398277282715,-10.195816993713379,5.367101192474365
1781788035786839000,11.992839111328125,9.315258979797363,-10.024730682373047,0.5132604837417603
1781788035883895600,12.0898955078125,6.527620315551758,-7.428517818450928,0.037088751792907715
1781788035980952000,12.1869521484375,1.9609181880950928,-6.831508636474609,2.9240293502807617
1781788036078008800,12.2840087890625,3.5844483375549316,-8.868997573852539,1.5290136337280273
1781788036136242400,12.342242431640624,5.608776092529297,-10.41476058959961,1.191625714302063
1781788036233299200,12.43929931640625,2.550748825073242,-7.357929706573486,-0.9260223507881165
1781788036330355700,12.536355712890625,4.006781578063965,-8.93240737915039,2.2121646404266357
1781788036388589600,12.594589599609375,3.049652576446533,-12.920045852661133,0.5096712112426758
1781788036485645800,12.691645751953125,3.005385160446167,-8.559126853942871,-2.014756679534912
1781788036582702300,12.788702392578125,1.719243049621582,-10.496116638183594,5.966503143310547
1781788036679758800,12.8857587890625,-0.48574298620224,-10.864611625671387,-1.2957134246826172
1781788036737993000,12.943992919921875,1.5182459354400635,-10.955538749694824,-2.5399811267852783
1781788036835049200,13.04104931640625,0.003589233849197626,-7.667799949645996,-0.605384111404419
1781788036932105700,13.138105712890624,1.0037890672683716,-11.264212608337402,0.10767702013254166
1781788037029162500,13.23516259765625,-0.23210379481315613,-7.634300708770752,-0.04426721855998039
1781788037087396400,13.293396240234374,-1.3196417093276978,-8.196614265441895,0.19980068504810333
1781788037184452900,13.390452880859375,-0.7465606927871704,-8.70628547668457,0.17228323221206665
1781788037281509400,13.48750927734375,-0.061016976833343506,-13.890335083007812,0.04666004329919815
1781788037417389600,13.6233896484375,0.2883351147174835,-9.059226989746094,-0.3158525824546814
1781788037495033600,13.70103369140625,-0.4295116662979126,-10.047462463378906,0.698704183101654
1781788037592090400,13.79809033203125,-0.2847459018230438,-9.91825008392334,-0.10169496387243271
1781788037689147000,13.89514697265625,-0.1256231814622879,-9.93260669708252,0.2919243574142456
1781788037786203400,13.992203369140626,-0.41874396800994873,-9.841679573059082,0.24167509377002716
1781788037883260000,14.089260009765624,-0.08015955984592438,-10.065408706665039,0.17108681797981262
1781788037980316400,14.18631640625,-0.13878370821475983,-9.955338478088379,0.37447673082351685
1781788038077373000,14.283373046875,-0.6472585201263428,-10.444670677185059,0.39601215720176697
1781788038174429400,14.380429443359375,-0.381655216217041,-8.97667407989502,0.16869398951530457
1781788038271486000,14.47748583984375,0.10049854964017868,-9.329615592956543,0.6544370055198669
1781788038329719800,14.5357197265625,0.062213387340307236,-13.016955375671387,0.6735795736312866
1781788038426776300,14.6327763671875,-0.1986042857170105,-10.783255577087402,0.5718846321105957
1781788038523832800,14.729832763671874,0.2273181527853012,-9.682557106018066,0.6759724020957947
1781788038620889600,14.8268896484375,0.06699903309345245,-10.567901611328125,1.1545369625091553
1781788038679123500,14.88512353515625,-0.17108681797981262,-11.182856559753418,0.8434699773788452
1781788038776180000,14.982179931640625,-0.06580262631177902,-9.481559753417969,-0.5180460810661316
1781788038873236500,15.079236572265625,0.16151553392410278,-9.66819953918457,1.1461620330810547
1781788038970293200,15.176293212890625,0.6185446381568909,-9.981659889221191,1.5194423198699951
1781788039028526800,15.23452685546875,0.97148597240448,-9.833304405212402,1.3794622421264648
1781788039125583600,15.33158349609375,0.6819544434547424,-9.620343208312988,1.1330015659332275
1781788039222640000,15.42864013671875,0.24287149310112,-9.717252731323242,1.0325030088424683
1781788039280874000,15.4868740234375,0.2189432680606842,-9.838089942932129,0.8793623447418213
1781788039377930800,15.5839306640625,0.1950150430202484,-9.982855796813965,0.867398202419281
1781788039474987300,15.6809873046875,0.029910283163189888,-9.863214492797852,0.08255238085985184
1781788039572043800,15.778043701171875,0.17347964644432068,-10.030712127685547,0.34695929288864136
1781788039630278000,15.83627783203125,0.33499518036842346,-9.7998046875,0.6939185857772827
1781788039727334100,15.933334228515625,0.275174617767334,-9.877572059631348,0.8374879360198975
1781788039824391000,16.030390869140625,0.13519448041915894,-10.067801475524902,0.5802595019340515
1781788039921447400,16.127447509765624,0.19980068504810333,-9.954142570495605,0.7441678643226624
1781788039979681000,16.185680908203125,0.1950150430202484,-9.845269203186035,0.7417750358581543
1781788040076737800,16.28273779296875,-0.020338991656899452,-10.053443908691406,0.40319061279296875
1781788040173794300,16.379794189453126,0.2476571500301361,-9.998409271240234,0.7441678643226624
1781788040270851000,16.47685107421875,0.4546363055706024,-9.829715728759766,1.0001999139785767
1781788040329085000,16.5350849609375,-0.02632104977965355,-9.791430473327637,1.1150553226470947
1781788040426141400,16.632141357421876,0.062213387340307236,-9.590433120727539,0.4127618968486786
1781788040523198000,16.729197998046875,0.25722843408584595,-9.613164901733398,0.7836494445800781
1781788040620254700,16.826254638671877,0.15314064919948578,-10.007980346679688,0.3194418251514435
1781788040678488300,16.88448828125,0.26081767678260803,-9.852447509765625,0.698704183101654
1781788040775545000,16.981545166015625,-0.13998012244701385,-9.594022750854492,0.7704889178276062
1781788040872601600,17.0786015625,-0.0323031060397625,-10.152746200561523,0.6137589812278748
1781788040930835700,17.136835693359377,0.16271193325519562,-9.415757179260254,1.6067804098129272
1781788041027892000,17.23389208984375,-0.09810572862625122,-9.926624298095703,0.31345975399017334
1781788041124948500,17.330948486328126,0.04905286431312561,-9.838089942932129,0.12801600992679596
1781788041222005000,17.4280048828125,0.7046862840652466,-10.910075187683105,0.7369893789291382
1781788041280239000,17.486239013671874,-2.5052852630615234,-8.439485549926758,0.5180460810661316
1781788041377295600,17.583295654296876,-0.39601215720176697,-10.161121368408203,0.6819544434547424
1781788041474352000,17.68035205078125,0.13280165195465088,-10.159924507141113,0.8255237936973572
1781788041571409000,17.777408935546877,0.4175475537776947,-9.7938232421875,0.7178468108177185
1781788041629642800,17.835642822265626,0.5670989751815796,-9.743574142456055,0.5886343717575073
1781788041726699300,17.93269921875,1.2299108505249023,-10.289137840270996,1.6199408769607544
1781788041823755800,18.029755859375,0.8327022790908813,-9.969695091247559,1.5002998113632202
1781788041920812500,18.1268125,0.3565305769443512,-9.743574142456055,0.41156548261642456
1781788041979046400,18.18504638671875,0.2679961323738098,-9.7005033493042,0.5300102233886719
1781788042076103000,18.28210302734375,0.5359922647476196,-10.086943626403809,0.8063812255859375
1781788042173159400,18.379159423828124,0.5204389095306396,-9.91825008392334,0.5718846321105957
1781788042270216200,18.47621630859375,0.46899324655532837,-9.873982429504395,0.6269195079803467
1781788042328450000,18.534449951171876,0.6041877269744873,-9.882357597351074,1.0013962984085083
1781788042425506600,18.631506591796875,0.589830756187439,-9.91705322265625,0.9499505758285522
1781788042522563000,18.72856298828125,0.5264210104942322,-9.982855796813965,0.7322037220001221
1781788042580797200,18.786797119140626,0.6137589812278748,-9.780662536621094,0.8590233325958252
1781788042677853400,18.883853515625,0.5682953596115112,-9.870393753051758,0.8913264274597168
1781788042774910000,18.980909912109375,0.519242525100708,-10.01874828338623,0.7010970115661621
1781788042871966500,19.077966552734374,0.5994020700454712,-9.873982429504395,0.8841479420661926
1781788042930200600,19.13620068359375,0.5623133182525635,-9.912267684936523,0.914058268070221
1781788043027257000,19.233257080078126,0.5264210104942322,-9.975677490234375,0.8087740540504456
1781788043124313600,19.330313720703124,0.4941178858280182,-9.969695091247559,0.8327022790908813
1781788043221370400,19.427370361328126,0.5096712112426758,-9.848857879638672,0.8458628058433533
1781788043279604000,19.48560400390625,0.5156532526016235,-9.9409818649292,0.8709874153137207
1781788043376660500,19.582660400390626,0.49172505736351013,-9.89432144165039,0.8135597109794617
1781788043473717000,19.679717041015625,0.5575276613235474,-9.91705322265625,0.8925228714942932
1781788043570773800,19.776773681640623,0.47976094484329224,-9.927821159362793,0.7226324677467346
1781788043629007600,19.835007568359377,0.46061834692955017,-9.848857879638672,0.7908278703689575
1781788043726064000,19.932064208984375,0.3122633695602417,-9.937392234802246,0.7022934556007385
1781788043823120600,20.02912060546875,0.4486542344093323,-9.988838195800781,0.8207381963729858
1781788043920177200,20.12617724609375,0.6352944374084473,-9.905089378356934,0.8482556343078613
1781788043978411000,20.184410888671874,0.7812566161155701,-9.787840843200684,1.3052847385406494
1781788044075467500,20.281467529296876,0.5407779216766357,-9.716055870056152,0.7776673436164856
1781788044172524000,20.37852392578125,0.1663011759519577,-10.04148006439209,0.4426721930503845
1781788044230758100,20.436758056640624,0.23449662327766418,-9.950552940368652,0.5706881880760193
1781788044327814400,20.533814453125,0.4618147611618042,-9.826126098632812,0.9188438653945923
1781788044424871000,20.630870849609376,0.5024927258491516,-9.978070259094238,0.7202396392822266
1781788044521927400,20.727927490234375,0.4821537733078003,-9.938589096069336,0.760917603969574
1781788044580161300,20.786161376953125,0.49172505736351013,-9.907482147216797,0.867398202419281
1781788044677217800,20.8832177734375,0.48813581466674805,-9.937392234802246,0.865005373954773
1781788044774274300,20.9802744140625,0.47258245944976807,-9.890732765197754,0.745364248752594
1781788044871331000,21.0773310546875,0.42831525206565857,-9.927821159362793,0.7345965504646301
1781788044929564700,21.135564697265625,0.38285163044929504,-9.91825008392334,0.7417750358581543
1781788045026621200,21.23262109375,0.4701896607875824,-9.90269660949707,0.8231309652328491
1781788045123677700,21.329677734375,0.4450650215148926,-9.873982429504395,0.8051848411560059
1781788045220734200,21.426734130859376,0.3756731450557709,-9.92542839050293,0.7920243144035339
1781788045278968000,21.484968017578126,0.4007977843284607,-9.90987491607666,0.7525427341461182
1781788045376024600,21.582024658203125,0.39840495586395264,-9.961320877075195,0.7010970115661621
1781788045473080800,21.679080810546875,0.4546363055706024,-9.931410789489746,0.7872386574745178
1781788045570137600,21.7761376953125,0.4546363055706024,-9.859625816345215,0.776470959186554
1781788045628371200,21.83437109375,0.44027936458587646,-9.938589096069336,0.7597211599349976
1781788045725427700,21.931427734375,0.4139583110809326,-9.893125534057617,0.7812566161155701
1781788045822484200,22.028484130859376,0.45224347710609436,-9.89432144165039,0.7238288521766663
1781788045880718300,22.08671826171875,0.45583271980285645,-9.914660453796387,0.8123632669448853
1781788045977774600,22.183774658203124,0.46061834692955017,-9.91825008392334,0.8422735929489136
1781788046074831000,22.2808310546875,0.3206382393836975,-9.881160736083984,0.6340979933738708
1781788046171887600,22.3778876953125,0.3397808074951172,-9.955338478088379,0.7034898400306702
1781788046230121500,22.43612158203125,0.3768695592880249,-9.93260669708252,0.7800601720809937
1781788046327177700,22.533177734375,0.45583271980285645,-9.877572059631348,0.7585247755050659
1781788046424234200,22.630234130859375,0.4450650215148926,-9.871589660644531,0.7848458290100098
1781788046521291000,22.727291015625,0.37806597352027893,-9.943374633789062,0.7070791125297546
1781788046579524600,22.785524658203126,0.33499518036842346,-9.893125534057617,0.7070791125297546
1781788046676581000,22.8825810546875,0.380458801984787,-9.929018020629883,0.7465606927871704
1781788046773637600,22.9796376953125,0.37926238775253296,-9.865608215332031,0.8063812255859375
1781788046870694000,23.07669384765625,0.6903293132781982,-10.054640769958496,1.054038405418396
1781788046928927700,23.134927734375,0.7310073375701904,-9.958928108215332,1.3208380937576294
1781788047025984300,23.231984375,0.26081767678260803,-9.779465675354004,0.9308080077171326
1781788047123040500,23.32904052734375,-0.18783657252788544,-9.812965393066406,0.17706887423992157
1781788047181274600,23.387274658203125,-0.19381862878799438,-9.876375198364258,0.28115665912628174
1781788047278331000,23.484330810546876,-0.10648060590028763,-9.951749801635742,0.12681959569454193
1781788047375387400,23.581387451171874,0.46899324655532837,-10.350153923034668,0.039481572806835175
1781788047472443600,23.678443603515625,0.33379876613616943,-9.475577354431152,0.7022934556007385
1781788047530677800,23.736677734375,-0.7381857633590698,-5.907878875732422,-1.246660590171814
1781788047627734000,23.833734130859376,-0.2225325107574463,-10.631311416625977,1.0767701864242554
1781788047724790500,23.93079052734375,0.06699903309345245,-10.125228881835938,0.6113662123680115
1781788047821846800,24.0278466796875,0.6065805554389954,-10.264012336730957,0.8027920126914978
1781788047880081000,24.086080810546875,-0.16390834748744965,-10.24487018585205,0.6747759580612183
1781788047977137000,24.183136962890625,0.1495514214038849,-10.342975616455078,0.727418065071106
1781788048074193400,24.280193359375,-0.037088751792907715,-10.103693962097168,0.6197410821914673
1781788048171250000,24.37725,-0.3074777126312256,-9.984052658081055,0.4450650215148926
1781788048229483500,24.4354833984375,0.2667997181415558,-9.749555587768555,1.0432707071304321
1781788048326540000,24.5325400390625,-0.20578274130821228,-9.324830055236816,0.02512463741004467
1781788048423596300,24.62959619140625,-0.07896314561367035,-10.49970531463623,0.8374879360198975
1781788048520652800,24.72665283203125,0.5706881880760193,-9.731609344482422,1.2550355195999146
1781788048578886700,24.78488671875,0.064606212079525,-10.162318229675293,0.7740781307220459
1781788048675943000,24.88194287109375,-0.27038896083831787,-9.89551830291748,-0.5228317379951477
1781788048772999400,24.97899951171875,-0.363709032535553,-9.950552940368652,0.8015955686569214
1781788048831233300,25.0372333984375,0.50129634141922,-10.247262954711914,0.9966106414794922
1781788048928289500,25.13428955078125,0.2679961323738098,-9.382257461547852,0.9786644577980042
1781788049025345800,25.231345703125,0.02512463741004467,-9.736394882202148,0.7597211599349976
1781788049122402300,25.32840234375,0.18544375896453857,-10.666007041931152,0.9248259663581848
1781788049180636200,25.38663623046875,0.2189432680606842,-9.409774780273438,1.5840486288070679
1781788049277692400,25.4836923828125,0.23688943684101105,-9.322437286376953,0.47976094484329224
1781788049374748700,25.580748779296876,-0.21774685382843018,-10.24487018585205,0.7226324677467346
1781788049471805000,25.677804931640626,-0.1818545162677765,-10.6564359664917,0.1579262912273407
1781788049530039000,25.7360390625,0.745364248752594,-9.600004196166992,1.1581261157989502
1781788049627095300,25.83309521484375,-0.0323031060397625,-9.04845905303955,1.0169496536254883
1781788049724151600,25.930151611328125,0.1579262912273407,-10.40758228302002,0.9104689955711365
1781788049821208000,26.0272080078125,0.137587308883667,-9.9409818649292,0.9762716293334961
1781788049879441700,26.085441650390624,0.0023928226437419653,-9.031708717346191,0.7106683254241943
1781788049976498000,26.182497802734375,-0.09690931439399719,-10.29033374786377,1.042074203491211
1781788050073554400,26.279554443359373,-0.2225325107574463,-10.937592506408691,-0.397208571434021
1781788050170610700,26.376610595703124,0.6915257573127747,-9.817750930786133,0.7082754969596863
1781788050228844300,26.43484423828125,0.15314064919948578,-9.991230964660645,0.9200403094291687
1781788050325900800,26.53190087890625,-0.005982056725770235,-9.900303840637207,1.0289137363433838
1781788050422957000,26.62895703125,0.10289137065410614,-10.059426307678223,0.3194418251514435
1781788050481191000,26.68719091796875,0.21415762603282928,-9.628718376159668,0.7920243144035339
1781788050578247200,26.7842470703125,0.11006984114646912,-9.559326171875,0.7429714202880859
1781788050675303400,26.881303466796876,-0.0729810893535614,-10.085747718811035,0.7657032608985901
1781788050772359700,26.978359619140626,0.4582255482673645,-9.948160171508789,0.9798609018325806
1781788050830593500,27.036593505859376,0.2105683982372284,-9.65503978729248,0.7465606927871704
1781788050927649800,27.13364990234375,0.1663011759519577,-9.884750366210938,0.6281159520149231
1781788051024706000,27.2307060546875,0.3194418251514435,-9.90149974822998,1.337587833404541
1781788051121762300,27.32776220703125,-0.5419743061065674,-8.61057186126709,-0.8219345808029175
1781788051179996200,27.38599609375,-0.14476576447486877,-10.096514701843262,0.6891329288482666
1781788051277052400,27.483052490234375,0.062213387340307236,-10.460224151611328,1.23589289188385
1781788051374108700,27.580108642578125,0.06699903309345245,-9.389435768127441,0.4905286431312561
1781788051471165200,27.677165283203124,-0.13878370821475983,-9.956535339355469,0.5946164131164551
1781788051529398800,27.735398681640625,-0.2907279431819916,-9.883553504943848,0.137587308883667
1781788051626455000,27.832455078125,-0.004785645287483931,-10.14317512512207,1.0564311742782593
1781788051723511300,27.92951123046875,0.4366901218891144,-10.226923942565918,0.44027936458587646
1781788051820567800,28.02656787109375,-0.10887342691421509,-9.67657470703125,0.45942193269729614
1781788051878801400,28.084801513671874,0.03349951654672623,-9.948160171508789,0.9355936646461487
1781788051975857700,28.181857666015624,-0.4785645306110382,-9.857233047485352,0.3206382393836975
1781788052072914000,28.278913818359374,-0.3517449200153351,-9.79262638092041,0.37088751792907715
1781788052169970200,28.37597021484375,0.1698904037475586,-10.214960098266602,1.0648061037063599
1781788052228203800,28.434203857421874,-0.029910283163189888,-9.903892517089844,0.7704889178276062
1781788052325260300,28.53126025390625,-0.02153540402650833,-9.726823806762695,0.4749752879142761
1781788052422316500,28.628316650390627,0.11964113265275955,-9.762716293334961,0.8781659007072449
1781788052480550100,28.686550048828124,0.1052841991186142,-9.479166984558105,0.6005984544754028
1781788052577606400,28.7836064453125,-0.12083754688501358,-10.052248001098633,0.7381857633590698
1781788052674662700,28.88066259765625,0.11724831163883209,-9.93978500366211,0.8003991842269897
1781788052771719000,28.977718994140623,0.02632104977965355,-9.900303840637207,0.9690931439399719
1781788052829952800,29.035952880859377,-0.2021935135126114,-10.217352867126465,0.42711883783340454
1781788052927008800,29.1330087890625,-0.26919254660606384,-9.377471923828125,0.9882357716560364
1781788053024065000,29.23006494140625,-0.24526432156562805,-9.90269660949707,0.2847459018230438
1781788053121121300,29.327121337890624,0.2991028428077698,-10.329814910888672,1.521835207939148
1781788053179355000,29.38535498046875,-1.2550355195999146,-9.026923179626465,0.4654040038585663
1781788053276411100,29.4824111328125,0.0323031060397625,-10.043872833251953,1.9417755603790283
1781788053373467400,29.57946728515625,-0.3529413342475891,-9.783055305480957,-0.32183465361595154
1781788053470523600,29.676523681640624,-0.38763725757598877,-10.481760025024414,0.5216353535652161
1781788053528757200,29.73475732421875,0.2356930375099182,-9.463613510131836,0.9320043921470642
1781788053625813500,29.8318134765625,-0.6843472719192505,-10.094121932983398,-0.04426721855998039
1781788053722869500,29.928869384765626,0.23210379481315613,-10.396814346313477,1.797009825706482
1781788053781103400,29.987103271484376,-0.17587246000766754,-9.881160736083984,0.42352959513664246
1781788053878159400,30.084159423828126,-0.2189432680606842,-10.320243835449219,0.7381857633590698
1781788053975215600,30.181215576171876,0.2847459018230438,-9.096315383911133,0.537188708782196
1781788054072272000,30.27827197265625,-1.0325030088424683,-10.861021995544434,-0.061016976833343506
1781788054130505700,30.336505615234376,-0.15912270545959473,-9.32722282409668,1.176072359085083
1781788054227561700,30.433561767578126,-0.3481557071208954,-10.30469036102295,0.44027936458587646
1781788054324618000,30.530617919921873,-0.23330020904541016,-9.846465110778809,0.46420758962631226
1781788054421674000,30.627674072265624,-0.41515472531318665,-10.315458297729492,0.6125625967979431
1781788054479907800,30.685907958984377,0.1579262912273407,-9.969695091247559,0.9308080077171326
1781788054576963800,30.7829638671875,0.24287149310112,-9.91825008392334,0.885344386100769
1781788054674020000,30.88002001953125,0.037088751792907715,-9.675378799438477,0.6125625967979431
1781788054771076400,30.977076416015624,0.02153540402650833,-9.976874351501465,0.5718846321105957
1781788054829310000,31.03531005859375,0.3888336718082428,-9.818947792053223,1.129412293434143
1781788054926366200,31.1323662109375,0.1543370634317398,-10.006784439086914,0.8267202377319336
1781788055023422500,31.22942236328125,-0.833898663520813,-9.80937671661377,0.2356930375099182
1781788055120478500,31.326478515625,-0.26081767678260803,-10.023533821105957,0.8901300430297852
1781788055178712000,31.384712158203126,-0.4223332107067108,-10.197013854980469,0.486939400434494
1781788055275768300,31.481768310546876,-0.15672987699508667,-9.675378799438477,0.19621145725250244
1781788055372824300,31.57882421875,-0.7369893789291382,-9.223134994506836,0.029910283163189888
1781788055431058000,31.637057861328124,-0.23210379481315613,-10.084550857543945,0.09930214285850525
1781788055528114200,31.7341142578125,-0.40677985548973083,-9.921838760375977,1.2370892763137817
1781788055625170400,31.83117041015625,1.0408778190612793,-10.089336395263672,0.8554341197013855
1781788055722226400,31.928226318359375,-1.3746765851974487,-9.742377281188965,-0.10887342691421509
1781788055780460300,31.986460205078124,-0.33020952343940735,-10.375279426574707,0.6173482537269592
1781788055877516300,32.08351635742188,-0.12323036789894104,-9.158528327941895,0.3086741268634796
1781788055974572300,32.180572265625,1.1114661693572998,-11.36351490020752,1.5960127115249634
1781788056071628500,32.27762866210937,0.2955136001110077,-9.69093132019043,0.9296116232872009
1781788056129862100,32.33586206054687,-0.12681959569454193,-10.110872268676758,1.470389485359192
1781788056226918100,32.43291821289063,0.35413774847984314,-9.818947792053223,1.2382856607437134
1781788056323974400,32.529974365234374,-0.08853443711996078,-10.122836112976074,2.0398812294006348
1781788056421030400,32.62703051757813,-0.2021935135126114,-10.250852584838867,0.11964113265275955
1781788056479264000,32.68526391601562,-0.4378865361213684,-9.812965393066406,-0.4486542344093323
1781788056576320300,32.7823203125,-0.05383851006627083,-9.942177772521973,0.40319061279296875
1781788056673376300,32.87937622070312,0.38644084334373474,-9.828518867492676,0.7968099117279053
1781788056770432300,32.976432373046876,0.26440688967704773,-9.829715728759766,1.1509476900100708
1781788056828665900,33.03466577148438,0.007178467698395252,-10.024730682373047,0.8973084688186646
1781788056925722000,33.13172216796875,0.12442677468061447,-9.923035621643066,0.45942193269729614
1781788057022778000,33.22877807617188,0.19980068504810333,-9.996016502380371,0.5659025311470032
1781788057081011700,33.28701171875,0.2955136001110077,-9.923035621643066,0.6448656916618347
1781788057178067700,33.384067626953126,0.2476571500301361,-9.891928672790527,0.8721838593482971
1781788057275123700,33.48112377929687,0.2715853750705719,-9.90149974822998,0.849452018737793
1781788057372180000,33.578179931640626,0.2847459018230438,-9.938589096069336,0.9152546525001526
1781788057430413600,33.63641357421875,0.35054850578308105,-9.822537422180176,0.9547362327575684
1781788057527469600,33.733469482421874,0.20099709928035736,-9.920642852783203,0.8315058946609497
1781788057624525600,33.83052563476563,0.3840480446815491,-9.9469633102417,0.9116654396057129
1781788057721581600,33.92758154296875,0.32662028074264526,-9.9469633102417,1.022931694984436
1781788057779815400,33.9858154296875,0.039481572806835175,-9.919445991516113,0.7573283910751343
1781788057876871400,34.08287133789062,-0.02153540402650833,-9.804591178894043,0.607776939868927
1781788057973927400,34.17992749023438,-0.058624155819416046,-9.91825008392334,0.7202396392822266
1781788058070983700,34.276983642578124,0.04785645380616188,-10.060623168945312,0.8135597109794617
1781788058129217000,34.335217041015625,0.28953152894973755,-9.805787086486816,0.9403793215751648
1781788058226273000,34.43227294921875,0.22971096634864807,-9.975677490234375,0.7214360237121582
1781788058323329000,34.5293291015625,0.1663011759519577,-9.963713645935059,0.7680960893630981
1781788058420385300,34.62638525390625,0.24167509377002716,-10.139585494995117,0.7740781307220459
1781788058478619000,34.68461889648437,0.19381862878799438,-9.725627899169922,0.833898663520813
1781788058575674600,34.781674560546875,0.12681959569454193,-9.986445426940918,0.7429714202880859
1781788058672730600,34.87873071289062,0.16031911969184875,-9.993623733520508,0.900897741317749
1781788058730964500,34.936964599609375,0.3529413342475891,-9.844072341918945,1.109073281288147
1781788058828020500,35.0340205078125,0.5587241053581238,-9.868000984191895,1.2765709161758423
1781788058925076500,35.131076416015624,0.5132604837417603,-9.964909553527832,0.9858429431915283
1781788059022132200,35.22813232421875,0.1866401731967926,-9.908679008483887,0.4007977843284607
1781788059080366000,35.28636596679687,0.26201409101486206,-9.926624298095703,0.46899324655532837
1781788059177422000,35.383422119140626,0.23808585107326508,-9.877572059631348,0.8817551732063293
1781788059274478000,35.48047802734375,0.3242274820804596,-9.899106979370117,0.9810572862625122
1781788059371534000,35.5775341796875,0.2727817893028259,-9.920642852783203,0.8925228714942932
1781788059429767400,35.635767333984376,0.24526432156562805,-9.873982429504395,0.8506484627723694
1781788059526823400,35.73282348632812,0.20458634197711945,-9.966106414794922,0.729810893535614
1781788059623879400,35.82987939453125,0.18544375896453857,-9.919445991516113,0.8662018179893494
1781788059720935700,35.92693579101562,0.24167509377002716,-9.834501266479492,0.8817551732063293
1781788059779169000,35.9851689453125,0.2799602448940277,-9.897911071777344,0.8913264274597168
1781788059876225000,36.08222509765625,0.13519448041915894,-9.848857879638672,0.8147560954093933
1781788059973281000,36.17928100585937,0.2105683982372284,-10.04148006439209,1.062413215637207
1781788060089748500,36.29574853515625,0.1986042857170105,-9.865608215332031,0.714257538318634
1781788060186804200,36.39280419921875,0.21296121180057526,-9.90149974822998,0.7381857633590698
1781788060283860200,36.489860107421876,0.2907279431819916,-9.864411354064941,0.8733802437782288
1781788060380916200,36.58691625976562,0.29790642857551575,-9.90269660949707,0.8697910308837891
1781788060477972000,36.683971923828125,0.24167509377002716,-9.982855796813965,0.778863787651062
1781788060575028000,36.78102807617187,0.259621262550354,-9.994820594787598,0.8111668825149536
1781788060672084000,36.878083984375,0.2799602448940277,-9.879964828491211,0.8171489238739014
1781788060730317600,36.93631762695313,0.2476571500301361,-9.896714210510254,0.8255237936973572
1781788060827373600,37.03337353515625,0.3002992272377014,-9.859625816345215,0.8709874153137207
1781788060924429300,37.13042919921875,0.23688943684101105,-9.89551830291748,0.8458628058433533
1781788061021485300,37.2274853515625,0.24287149310112,-9.912267684936523,0.849452018737793
1781788061079719000,37.28571899414062,0.22971096634864807,-9.900303840637207,0.8422735929489136
1781788061176775000,37.38277490234375,0.18903298676013947,-9.907482147216797,0.8039883971214294
1781788061273831000,37.47983081054687,0.1746760457754135,-9.90269660949707,0.833898663520813
1781788061370886700,37.57688671875,0.2907279431819916,-9.881160736083984,0.8889335989952087
1781788061429120300,37.63512036132813,0.24287149310112,-9.885947227478027,0.8590233325958252
1781788061526176300,37.73217626953125,0.22971096634864807,-9.840482711791992,0.8446664214134216
1781788061623232000,37.82923193359375,0.17706887423992157,-9.931410789489746,0.8889335989952087
1781788061681465600,37.88746557617188,0.19262222945690155,-9.930213928222656,0.8590233325958252
1781788061778521600,37.984521484375,0.2967100143432617,-9.914660453796387,0.8685946464538574
1781788061875577300,38.081577392578126,0.625723123550415,-9.410971641540527,1.306481122970581
1781788061972633300,38.17863330078125,-0.1866401731967926,-10.676774978637695,0.8769695162773132
1781788062030867000,38.236866943359374,0.3086741268634796,-10.8969144821167,0.9846464991569519
1781788062089101000,38.29510107421875,0.5479564070701599,-10.153943061828613,0.9104689955711365
1781788062166745000,38.3727451171875,0.4450650215148926,-9.743574142456055,0.7441678643226624
1781788062224978700,38.43097875976562,0.7405785918235779,-9.948160171508789,0.9930213689804077
1781788062322034700,38.52803466796875,0.4893322288990021,-10.255638122558594,-0.1423729509115219
1781788062380268000,38.58626806640625,0.3888336718082428,-9.513862609863281,-0.9535398483276367
1781788062477324000,38.68332397460937,-0.12921242415905,-8.233702659606934,-1.0911271572113037
1781788062574380000,38.780380126953126,-0.9427721500396729,-13.412967681884766,3.500699520111084
1781788062671435800,38.87743579101563,0.9092726111412048,-9.384650230407715,1.3722838163375854
1781788062729669400,38.93566943359375,1.8544375896453857,-8.384450912475586,0.9786644577980042
1781788062826725000,39.03272509765625,1.8448662757873535,-8.894122123718262,3.1752755641937256
1781788062923781000,39.12978100585938,1.7766708135604858,-9.471988677978516,3.136990547180176
1781788062982014700,39.1880146484375,2.152343988418579,-10.877771377563477,3.88594388961792
1781788063079070500,39.285070556640626,0.7896314859390259,-11.505887985229492,2.117648124694824
1781788063176126500,39.38212646484375,-0.6137589812278748,-13.362717628479004,-3.2961132526397705
1781788063273182200,39.47918212890625,-0.9882357716560364,-10.213763236999512,-3.0795626640319824
1781788063331416000,39.537416015625,1.1868400573730469,-7.915457248687744,-1.765903115272522
1781788063428471600,39.63447143554688,0.7214360237121582,-10.949556350708008,0.5132604837417603
1781788063525527600,39.731527587890625,1.4763715267181396,-10.28195858001709,-0.061016976833343506
1781788063622583600,39.82858349609375,1.28255295753479,-9.491130828857422,-0.833898663520813
1781788063680817000,39.88681689453125,3.6059837341308594,-10.713863372802734,0.9152546525001526
1781788063777872600,39.98387255859375,-0.550349235534668,-7.81974458694458,1.805384635925293
1781788063874928600,40.0809287109375,-2.612962245941162,-13.383056640625,0.9786644577980042
1781788063971984400,40.177984375,-0.8542376756668091,-10.947163581848145,2.581855535507202
1781788064030218000,40.236218017578125,1.9058831930160522,-7.280162811279297,0.24885354936122894
1781788064127273700,40.33327368164063,2.289931297302246,-5.763113498687744,0.28594231605529785
1781788064224329700,40.43032983398437,1.4584254026412964,-14.414363861083984,5.734399318695068
1781788064282563000,40.48856298828125,0.9104689955711365,-15.891931533813477,2.5148565769195557
1781788064379619000,40.585619140625,0.7645068168640137,-11.952149391174316,-0.8099704384803772
1781788064476674800,40.6826748046875,1.26699960231781,-6.971488952636719,-1.3818551301956177
1781788064573730600,40.77973046875,1.6689938306808472,-8.71226692199707,0.6664010882377625
1781788064631964200,40.83796411132813,0.7058826684951782,-8.910871505737305,1.2454642057418823
1781788064729020000,40.93502001953125,2.557927370071411,-9.628718376159668,-1.5230315923690796
1781788064826075600,41.03207568359375,2.20737886428833,-9.230313301086426,2.7326035499572754
1781788064923131400,41.12913134765625,-1.8317056894302368,-15.462419509887695,-0.4366901218891144
1781788064981365000,41.18736499023437,-2.693121910095215,-12.30389404296875,4.17427921295166
1781788065078420700,41.28442065429687,1.8831514120101929,-6.276373863220215,-0.882951557636261
1781788065175476700,41.38147680664063,1.9992033243179321,-5.387440204620361,0.13878370821475983
1781788065272532700,41.47853271484375,2.581855535507202,-14.950355529785156,5.343173027038574
1781788065330765800,41.53676586914062,3.2099716663360596,-13.363914489746094,6.555137634277344
1781788065427821800,41.63382177734375,1.604387640953064,-6.914061069488525,-1.6211373805999756
1781788065524877600,41.73087768554687,1.6067804098129272,-9.21117115020752,-2.2325034141540527
1781788065621933600,41.82793359375,0.32542386651039124,-8.118846893310547,-1.098305583000183
1781788065680167000,41.8861669921875,1.2167502641677856,-9.506684303283691,1.2323036193847656
1781788065777222700,41.98322265625,3.159722328186035,-10.451848983764648,-0.2799602448940277
1781788065874278700,42.080278564453124,2.1882362365722656,-6.3840508460998535,4.542773723602295
1781788065932512000,42.138511962890625,-1.4979069232940674,-12.66999626159668,1.093519926071167
1781788066029567500,42.2355673828125,-1.6737794876098633,-11.25464153289795,4.000799655914307
1781788066126623500,42.33262353515625,2.438286304473877,-4.2209391593933105,-1.3651052713394165
1781788066223679200,42.42967919921875,2.8498518466949463,-5.114658355712891,-0.22971096634864807
1781788066281912800,42.48791284179688,2.431107759475708,-12.740584373474121,5.662614822387695
1781788066378968600,42.58496850585937,-0.020338991656899452,-11.782258987426758,-1.1832507848739624
1781788066476024300,42.6820244140625,-0.22372891008853912,-17.560924530029297,0.849452018737793
1781788066573079800,42.779079833984376,1.4979069232940674,-6.2536420822143555,-1.576870083808899
1781788066631313400,42.8373134765625,0.2189432680606842,-6.932007312774658,-1.1258230209350586
1781788066728369200,42.934369140625,1.688136339187622,-9.078369140625,2.6727828979492188
1781788066825425000,43.0314248046875,4.322634220123291,-11.599207878112793,-1.5960127115249634
1781788066922481000,43.12848095703125,-2.231307029724121,-6.898507595062256,4.247260093688965
1781788066980714200,43.18671435546875,-3.0005996227264404,-17.563318252563477,-1.7826528549194336
1781788067077770000,43.28377001953125,2.3916261196136475,-5.61116886138916,4.96630334854126
1781788067174825700,43.38082568359375,0.12442677468061447,-5.441278457641602,-0.8147560954093933
1781788067233059300,43.43905932617187,3.050848960876465,-5.127819061279297,0.15074782073497772
1781788067330115000,43.536114990234374,3.404986619949341,-20.244476318359375,4.649254322052002
1781788067427170800,43.6331708984375,-1.730010747909546,-8.159524917602539,-6.421139717102051
1781788067524226600,43.7302265625,0.037088751792907715,-10.88853931427002,-0.16031911969184875
1781788067582460000,43.7884599609375,1.093519926071167,-6.367300987243652,-2.713460922241211
1781788067679516000,43.885515869140626,1.5206388235092163,-8.117650985717773,1.8628123998641968
1781788067737749200,43.94374926757813,2.6021945476531982,-8.758927345275879,4.100101470947266
1781788067834805000,44.04080493164062,2.651247501373291,-12.478569984436035,-1.466800332069397
1781788067931860700,44.13786083984375,-1.6965112686157227,-9.633503913879395,2.6392834186553955
1781788068028916500,44.23491650390625,-4.068994998931885,-15.267404556274414,2.610569477081299
1781788068087150000,44.29315014648437,0.4821537733078003,-5.458028316497803,4.435096740722656
1781788068184205800,44.390205810546874,-0.0011964113218709826,-4.776073932647705,-1.8305093050003052
1781788068281261600,44.487261474609376,4.037888050079346,-10.119247436523438,6.831508636474609
1781788068339495000,44.54549487304688,4.109673023223877,-15.999608993530273,6.2105712890625
1781788068436550700,44.64255053710937,0.008374879136681557,-7.874779224395752,-4.727021217346191
1781788068533606400,44.7396064453125,0.5228317379951477,-9.674181938171387,-1.786242127418518
1781788068630662100,44.836662109375,1.1054840087890625,-6.478567123413086,-2.115255117416382
1781788068688895700,44.89489575195312,0.914058268070221,-8.586644172668457,1.9716858863830566
1781788068785951200,44.991951171875,3.046063184738159,-10.88016414642334,2.4227328300476074
1781788068883007000,45.089007080078126,0.6616154313087463,-6.961917400360107,3.8464624881744385
1781788068980063000,45.18606298828125,-5.435296535491943,-24.317060470581055,-2.1774685382843018
1781788069038296000,45.24429614257812,0.3577269911766052,-8.435895919799805,5.522634506225586
1781788069135351800,45.341351806640624,0.7214360237121582,-4.310669898986816,-1.8317056894302368
1781788069232407600,45.438407470703126,4.438685894012451,-4.339384078979492,2.335394859313965
1781788069329463300,45.53546337890625,2.3090739250183105,-17.59562110900879,8.172685623168945
1781788069387696600,45.59369653320312,-1.970489501953125,-9.948160171508789,-5.3455657958984375
1781788069484752400,45.69075244140625,-2.17627215385437,-15.399009704589844,3.0269205570220947
1781788069581808000,45.78780810546875,1.2490534782409668,-3.565305709838867,-2.3054845333099365
1781788069640041700,45.84604174804687,0.6329016089439392,-8.12123966217041,1.1736794710159302
1781788069737097500,45.943097412109374,3.8153557777404785,-9.784252166748047,2.9838497638702393
1781788069834153000,46.040153076171876,5.680561065673828,-12.242877006530762,0.8386843204498291
1781788069931208700,46.13720874023438,-1.337587833404541,-11.212766647338867,2.170290231704712
1781788069989442000,46.19544213867187,-5.461617469787598,-20.279170989990234,-1.6510475873947144
1781788070086497800,46.292497802734374,-0.49172505736351013,-4.402793884277344,3.6083765029907227
1781788070183553300,46.38955322265625,1.2263215780258179,-4.107280254364014,-0.9248259663581848
1781788070280609300,46.486609375,2.8773691654205322,-15.073586463928223,5.491528034210205
1781788070338842600,46.54484252929687,2.073380708694458,-18.092132568359375,5.706881999969482
1781788070435898400,46.6418984375,1.1545369625091553,-12.025130271911621,-2.6775684356689453
1781788070532953900,46.738953857421876,1.6055840253829956,-6.017949104309082,-1.703689694404602
1781788070630009600,46.83600952148438,0.31345975399017334,-7.959724426269531,-0.4055834412574768
1781788070688243000,46.89424291992187,0.6173482537269592,-10.945966720581055,2.774477958679199
1781788070785298700,46.991298583984374,3.751945972442627,-11.120643615722656,0.8398807644844055
1781788070882354400,47.0883544921875,-1.5756736993789673,-6.736992359161377,3.902693748474121
1781788070940587800,47.146587890625,-3.5437703132629395,-18.616159439086914,-0.30628129839897156
1781788071037643500,47.2436435546875,1.1054840087890625,-5.608776092529297,5.416153907775879
1781788071134699300,47.34069921875,0.17108681797981262,-4.4961137771606445,-1.4476577043533325
1781788071231755000,47.43775512695313,3.8632121086120605,-8.208578109741211,6.198606967926025
1781788071289988400,47.49598828125,3.601198196411133,-20.98146629333496,7.631907939910889
1781788071387044000,47.593044189453124,-0.6520441770553589,-7.122236728668213,-3.9864425659179688
1781788071484099600,47.690099609375,1.2598211765289307,-8.499305725097656,-0.39481574296951294
1781788071581155300,47.7871552734375,1.0265209674835205,-4.9878387451171875,-0.973878800868988
1781788071639388400,47.84538842773438,0.2883351147174835,-10.14317512512207,2.5351955890655518
1781788071736444200,47.94244409179687,5.236692428588867,-6.80877685546875,1.176072359085083
1781788071833500000,48.0395,-1.275374412536621,-6.403193473815918,4.918447017669678
1781788071891733500,48.0977333984375,-1.0217353105545044,-13.262219429016113,0.27038896083831787
1781788071988789000,48.1947890625,-0.8685946464538574,-8.651249885559082,5.357530117034912
1781788072085844500,48.29184448242187,1.069591760635376,-4.597808837890625,-2.0135602951049805
1781788072182900200,48.388900146484374,3.8799619674682617,-4.942375183105469,1.7024933099746704
1781788072241133600,48.447133544921876,3.4241292476654053,-17.235502243041992,5.928217887878418
1781788072338189300,48.54418920898438,-2.80558443069458,-10.75693416595459,-4.82751989364624
1781788072435245000,48.6412451171875,-2.434697151184082,-15.452848434448242,3.314059257507324
1781788072532300500,48.738300537109374,1.1389836072921753,-3.9254255294799805,-1.8556339740753174
1781788072590534000,48.796533935546876,-0.039481572806835175,-7.216753005981445,0.30628129839897156
1781788072687589600,48.89358959960938,4.088137626647949,-8.778069496154785,3.4576287269592285
1781788072784645000,48.99064501953125,3.2350962162017822,-10.210174560546875,3.3092737197875977
1781788072842878500,49.04887841796875,-2.0793628692626953,-8.26121997833252,3.8189449310302734
1781788072939934200,49.145934326171876,-4.369294166564941,-13.646267890930176,3.5880374908447266
1781788073036990000,49.24298999023438,0.6592226624488831,-4.551148891448975,-0.014356935396790504
1781788073134045400,49.34004541015625,1.9728822708129883,-4.256831645965576,-0.1663011759519577
1781788073192278800,49.39827880859375,4.067798614501953,-10.303494453430176,6.970292568206787
1781788073289334300,49.495334228515624,-1.4177473783493042,-13.109078407287598,-0.5814558863639832
1781788073386390000,49.59239013671875,-2.0673987865448,-18.015562057495117,3.452843189239502
1781788073483445800,49.68944580078125,1.667797327041626,-5.335994720458984,-2.0757737159729004
1781788073541678800,49.74767895507812,1.1832507848739624,-5.566901683807373,-0.6185446381568909
1781788073638734600,49.844734619140624,1.0289137363433838,-10.402796745300293,3.012563705444336
1781788073735790000,49.9417900390625,5.501099109649658,-15.408581733703613,2.575873613357544
1781788073794023700,50.00002368164063,-1.196411371231079,-6.0023956298828125,4.104887008666992
1781788073891079200,50.0970791015625,-5.955735683441162,-23.03091812133789,-3.2039895057678223
1781788073988134700,50.194134765625,0.7106683254241943,-4.639683246612549,4.467400074005127
1781788074085190400,50.2911904296875,0.698704183101654,-3.988835334777832,-1.6737794876098633
1781788074143423700,50.349423828125,4.334598064422607,-4.861019134521484,3.2338998317718506
1781788074240479200,50.44647924804688,1.0169496536254883,-13.314861297607422,5.157729148864746
1781788074337535000,50.54353491210937,1.8340985774993896,-15.74836254119873,-0.4211367964744568
1781788074434590700,50.6405908203125,1.6893328428268433,-7.624729156494141,-2.4083759784698486
1781788074492823800,50.69882373046875,1.4691931009292603,-3.2865419387817383,-1.2047861814498901
1781788074589879300,50.79587939453125,1.4632110595703125,-10.547562599182129,2.888136863708496
1781788074686934800,50.89293481445313,3.5258240699768066,-13.658231735229492,1.1892328262329102
1781788074745168400,50.95116845703125,1.5026925802230835,-7.438089370727539,3.7639100551605225
1781788074842223900,51.048223876953124,-3.8009986877441406,-19.147367477416992,-2.234896421432495
1781788074939279400,51.145279296875,1.1808580160140991,-5.889933109283447,7.599604606628418
1781788075036335000,51.24233520507813,-0.11246266216039658,-4.661218643188477,-1.9812572002410889
1781788075094568200,51.30056811523438,2.449054002761841,-3.8907296657562256,1.1234302520751953
1781788075191624000,51.3976240234375,4.433900356292725,-19.672592163085938,5.715256690979004
1781788075288679400,51.494679443359374,-0.8279166221618652,-9.360722541809082,-3.153740167617798
1781788075385735200,51.591735107421876,1.5182459354400635,-8.711071014404297,-1.373480200767517
1781788075443968300,51.64996826171875,0.42711883783340454,-4.77248477935791,-2.5734808444976807
1781788075541024000,51.74702392578125,1.7994025945663452,-10.012765884399414,2.0793628692626953
1781788075638079500,51.84407958984375,6.417550563812256,-7.452445983886719,3.0448668003082275
1781788075696312800,51.90231274414062,3.70767879486084,-12.128021240234375,1.5445669889450073
1781788075793368300,51.999368408203125,-1.573280930519104,-14.487344741821289,1.978864312171936
1781788075890423800,52.096423828125,1.4691931009292603,-8.376075744628906,8.236095428466797
1781788075987479600,52.1934794921875,0.97148597240448,-4.60857629776001,-1.9453648328781128
1781788076045712600,52.25171264648438,1.1724830865859985,-3.84765887260437,-1.6378871202468872
1781788076142768000,52.34876806640625,3.55214524269104,-19.853248596191406,6.089733600616455
1781788076239824000,52.445823974609375,-1.5290136337280273,-11.34676456451416,-4.796412944793701
1781788076336879600,52.54287963867188,-2.0099709033966064,-13.451252937316895,2.3162522315979004
1781788076395112700,52.60111279296875,1.3603196144104004,-6.527620315551758,-3.345165967941284
1781788076492168200,52.69816821289062,-0.6400800347328186,-8.700303077697754,0.9655039310455322
1781788076589223700,52.7952236328125,4.72582483291626,-10.760523796081543,2.737389087677002
1781788076647457000,52.85345703125,4.322634220123291,-12.679567337036133,2.9970104694366455
1781788076744512500,52.950512451171875,-1.797009825706482,-7.651050567626953,3.0041887760162354
1781788076841568000,53.04756811523438,-6.190232276916504,-16.90888214111328,1.9334007501602173
1781788076938623700,53.14462377929687,0.4618147611618042,-3.291327476501465,1.6809579133987427
1781788076996856800,53.20285693359375,0.6927221417427063,-3.655036687850952,-1.7994025945663452
1781788077093912300,53.29991235351562,4.910071849822998,-6.771687984466553,6.799205780029297
1781788077190967800,53.3969677734375,-1.5912270545959473,-12.606586456298828,0.4654040038585663
1781788077288023600,53.4940234375,-2.3473589420318604,-21.048463821411133,4.442275047302246
1781788077346256600,53.552256591796876,2.282752752304077,-8.36411190032959,-1.6462619304656982
1781788077443312000,53.64931201171875,0.8386843204498291,-5.96889591217041,-0.381655216217041
1781788077540368000,53.74636791992187,1.1700903177261353,-9.682557106018066,3.4887354373931885
1781788077598601000,53.80460107421875,5.382654666900635,-8.087740898132324,3.263810157775879
1781788077695656400,53.901656494140624,-0.7980063557624817,-5.072783946990967,3.135794162750244
1781788077792712000,53.9987119140625,-7.458428382873535,-26.769702911376953,-2.7385854721069336
1781788077889767400,54.09576733398438,0.18903298676013947,-4.78803825378418,5.337191104888916
1781788077948000800,54.15400073242188,0.3936193287372589,-4.526023864746094,-2.1990039348602295
1781788078045056300,54.25105615234375,4.192225456237793,-2.3748764991760254,3.5916268825531006
1781788078142111700,54.34811181640625,1.7635103464126587,-13.544572830200195,4.931607246398926
1781788078200345000,54.406344970703124,-3.284149169921875,-10.607382774353027,-5.816951751708984
1781788078297400600,54.503400634765626,0.5395814776420593,-9.748359680175781,-2.197807550430298
1781788078394456000,54.6004560546875,1.6019947528839111,-4.124029636383057,-1.466800332069397
1781788078491511600,54.69751147460938,-0.2847459018230438,-8.47178840637207,3.9601213932037354
1781788078549744600,54.75574462890625,5.976074695587158,-6.492924213409424,4.625326156616211
1781788078646800100,54.85280004882812,1.5134602785110474,-8.907281875610352,3.603590965270996
1781788078743855600,54.949855712890624,-3.414557933807373,-18.498912811279297,-1.4991034269332886
1781788078802089000,55.0080888671875,-4.456632137298584,-13.277772903442383,4.951946258544922
1781788078899144200,55.105144287109376,0.4462614357471466,-4.338187217712402,-0.20937198400497437
1781788078996199700,55.20219970703125,1.9860427379608154,-4.073780536651611,-0.17228323221206665
1781788079093255200,55.29925512695313,4.001996040344238,-24.27877426147461,5.053641319274902
1781788079151488500,55.35748852539062,-0.40797626972198486,-13.395021438598633,0.9858429431915283
1781788079248544000,55.4545439453125,-1.1569297313690186,-24.248865127563477,2.830709218978882
1781788079345599500,55.551599609375,-0.20578274130821228,-7.678567886352539,-2.5112674236297607
1781788079442655000,55.648655029296876,0.5814558863639832,-7.93579626083374,1.140179991722107
1781788079500888000,55.70688818359375,0.8171489238739014,-7.727620601654053,2.221735715866089
1781788079597943600,55.80394360351563,5.648257732391357,-14.859428405761719,3.001796007156372
1781788079694999000,55.9009990234375,-0.9822536706924438,-7.223931789398193,3.122633457183838
1781788079792054500,55.99805444335937,-6.096911907196045,-15.056836128234863,3.562912940979004
1781788079850287600,56.05628759765625,0.9990034699440002,-5.772684574127197,4.390829563140869
1781788079947343000,56.15334301757812,0.5730810165405273,-2.262413740158081,-0.5599204897880554
1781788080044398600,56.250398681640625,4.348955154418945,-8.318648338317871,6.8171515464782715
1781788080102632000,56.3086318359375,2.833101987838745,-16.564313888549805,8.609375953674316
1781788080199687200,56.40568725585938,-0.035892341285943985,-3.25663161277771,-3.0173492431640625
1781788080296742700,56.50274267578125,1.1365907192230225,-8.506484031677246,0.5324030518531799
1781788080393798100,56.59979809570312,0.8446664214134216,-5.108676433563232,-1.5397813320159912
1781788080452031500,56.65803149414062,0.003589233849197626,-8.287541389465332,1.435693621635437
1781788080549086700,56.75508666992187,3.339184045791626,-7.867600917816162,2.4059832096099854
1781788080646142000,56.85214184570312,0.7094719409942627,-10.738987922668457,7.5708909034729
1781788080743197400,56.949197509765625,-2.4370899200439453,-15.290136337280273,-1.5960127115249634
1781788080801430500,57.007430419921874,-5.7786664962768555,-11.900703430175781,2.630908489227295
1781788080898486000,57.104486083984376,1.389033555984497,-3.7806596755981445,-0.15672987699508667
1781788080995541500,57.20154150390625,2.7984061241149902,-3.6323046684265137,0.4773681163787842
1781788081053774800,57.25977490234375,4.801198482513428,-5.205585479736328,5.880361557006836
1781788081150830000,57.356830078125,2.3234307765960693,-11.25344467163086,6.967899322509766
1781788081247885600,57.45388549804687,-1.4644074440002441,-8.477770805358887,-3.019742250442505
1781788081344941000,57.550941162109375,2.3222343921661377,-8.02074146270752,-0.9403793215751648
1781788081403174100,57.609174072265624,0.5407779216766357,-4.537988185882568,-1.2598211765289307
1781788081500229600,57.706229736328126,0.5635097622871399,-8.329415321350098,2.2719850540161133
1781788081597284900,57.803284912109376,4.591826438903809,-9.109476089477539,2.310270309448242
1781788081655518200,57.86151831054688,6.072983741760254,-13.512269020080566,2.1750757694244385
1781788081752573400,57.95857348632813,-1.4775680303573608,-8.009973526000977,3.2410783767700195
1781788081849628700,58.05562866210938,-4.488935470581055,-13.280165672302246,3.2961132526397705
1781788081946684400,58.15268432617187,0.07178468257188797,-4.972285270690918,-0.4055834412574768
1781788082004917500,58.21091748046875,1.0827522277832031,-3.6981074810028076,-1.210768222808838
1781788082101972700,58.30797265625,4.638486862182617,-6.514459609985352,7.249056339263916
1781788082199028200,58.4050283203125,0.2907279431819916,-16.459030151367188,2.121237277984619
1781788082296083700,58.502083740234376,-1.7288143634796143,-19.268203735351562,1.9106688499450684
1781788082354316500,58.560316650390625,2.117648124694824,-8.913264274597168,-0.5324030518531799
1781788082451372000,58.6573720703125,0.8446664214134216,-5.333601474761963,-0.592223584651947
1781788082548427500,58.75442749023438,1.4380863904953003,-9.914660453796387,3.81655216217041
1781788082606660600,58.81266064453125,4.0079779624938965,-8.148757934570312,1.8400806188583374
1781788082703716000,58.90971606445312,0.760917603969574,-7.87358283996582,4.3417768478393555
1781788082800771300,59.00677124023437,-2.746960401535034,-17.148162841796875,-1.085145115852356
1781788082897826800,59.103826904296874,1.3112667798995972,-7.478767395019531,6.984649181365967
1781788082956060000,59.16205981445312,0.7250252366065979,-5.138586521148682,0.2991028428077698
1781788083053115100,59.259115234375,2.504088878631592,-2.713460922241211,-0.064606212079525
1781788083150170400,59.35617041015625,3.3367912769317627,-23.42573356628418,7.92861795425415
1781788083247226000,59.45322607421875,-1.5086746215820312,-7.258627414703369,-4.490131855010986
1781788083305459000,59.511458984375,1.4500504732131958,-15.116657257080078,0.537188708782196
1781788083402514400,59.608514404296876,1.6845471858978271,-6.865008354187012,-2.662015199661255
1781788083499569700,59.70556958007813,0.38763725757598877,-8.065009117126465,1.423729419708252
1781788083557803000,59.76380297851563,1.2215359210968018,-9.282955169677734,3.4301111698150635
1781788083654858200,59.86085815429688,2.7732813358306885,-14.410774230957031,2.0027925968170166
1781788083751913500,59.95791357421875,0.21415762603282928,-6.370890140533447,3.2829527854919434
1781788083848969000,60.05496899414062,-7.355536937713623,-18.392431259155273,0.06699903309345245
1781788083907202000,60.1132021484375,1.4297115802764893,-6.6484575271606445,4.64805793762207
1781788083965435100,60.17143505859375,-0.21296121180057526,-4.370490550994873,0.9044869542121887
1781788084062490600,60.26849072265625,3.6023945808410645,-3.135794162750244,1.4476577043533325
1781788084159545900,60.3655458984375,1.420140266418457,-24.76451873779297,7.506284713745117
1781788084256601000,60.46260107421875,-3.291327476501465,-6.503692150115967,-3.3020951747894287
1781788084353656600,60.559656494140626,1.7874385118484497,-7.010970115661621,-0.2835494875907898
1781788084450711800,60.6567119140625,1.0253244638442993,-5.058426856994629,-0.6101697683334351
1781788084508945000,60.71494482421875,0.16151553392410278,-9.538987159729004,2.86061954498291
1781788084606000000,60.81200024414063,4.036691665649414,-8.492127418518066,1.7060825824737549
1781788084703055400,60.90905541992188,1.2179467678070068,-6.857829570770264,4.506881237030029
1781788084800110800,61.00611083984375,-4.325026988983154,-21.11905288696289,-1.6773686408996582
1781788084858344000,61.06434399414063,-3.3858439922332764,-11.888739585876465,3.696911096572876
1781788084955399200,61.16139916992187,0.33379876613616943,-4.589433670043945,-0.7968099117279053
1781788085052454400,61.25845434570312,2.478964328765869,-3.6155550479888916,0.5934200286865234
1781788085110687700,61.31668774414062,3.812962770462036,-11.637493133544922,7.919046401977539
1781788085207742700,61.41374267578125,-0.33499518036842346,-12.495320320129395,-0.849452018737793
1781788085304798200,61.51079809570312,-1.6929219961166382,-17.46401596069336,4.773681163787842
1781788085401853400,61.607853515625,1.1437692642211914,-5.132604598999023,-1.7048860788345337
1781788085460086500,61.66608642578125,0.6975077986717224,-6.4594244956970215,0.3361915946006775
1781788085557142000,61.76314208984375,1.3794622421264648,-9.929018020629883,3.693321704864502
1781788085654197200,61.860197265625,4.604987144470215,-18.203397750854492,2.5902304649353027
1781788085751252500,61.95725244140625,-0.31465616822242737,-9.206384658813477,2.183450698852539
1781788085809485300,62.0154853515625,-6.87099027633667,-22.04627227783203,-1.0325030088424683
1781788085906540800,62.112540771484376,0.5096712112426758,-6.041877269744873,4.823930263519287
1781788086003596000,62.209595947265626,1.5553346872329712,-2.2707886695861816,-0.9296116232872009
1781788086061829400,62.26782934570313,4.262813568115234,-4.408775806427002,3.538984775543213
1781788086158884400,62.36488427734375,2.3784656524658203,-14.592628479003906,7.88913631439209
1781788086255939800,62.46193994140625,-0.04666004329919815,-12.313465118408203,-4.517649173736572
1781788086352995000,62.5589951171875,1.0241280794143677,-8.038687705993652,-1.389033555984497
1781788086411228200,62.61722827148437,0.9667003750801086,-4.810770034790039,-1.7455641031265259
1781788086508283100,62.714283203125,-0.3433700501918793,-9.387042999267578,2.796013355255127
1781788086605338400,62.81133837890625,5.167300701141357,-8.36411190032959,2.531606435775757
1781788086702393600,62.9083935546875,0.003589233849197626,-8.014759063720703,4.266402721405029
1781788086760627000,62.966626953125,-1.0504491329193115,-11.997612953186035,-0.014356935396790504
1781788086857682200,63.06368212890625,0.576670229434967,-8.031509399414062,5.722435474395752
1781788086954737400,63.1607373046875,0.8614161610603333,-4.95912504196167,-0.6819544434547424
1781788087051792600,63.257792724609374,3.783052682876587,-3.5545380115509033,2.9012975692749023
1781788087110025500,63.316025390625,2.2815563678741455,-24.87697982788086,7.719245910644531
1781788087207081000,63.4130810546875,-0.8027920126914978,-5.54177713394165,-3.1274192333221436
1781788087304136200,63.51013623046875,-1.9381862878799438,-11.824132919311523,3.5712878704071045
1781788087362369500,63.56836962890625,1.4727823734283447,-5.61954402923584,-1.94297194480896
1781788087459424500,63.665424560546874,0.592223584651947,-9.133403778076172,1.3758729696273804
1781788087556479700,63.762479736328125,3.8261234760284424,-8.303094863891602,3.4097721576690674
1781788087692357000,63.898357177734376,0.22372891008853912,-6.975078105926514,3.0520453453063965
1781788087750590000,63.95658984375,-1.5278172492980957,-14.959927558898926,0.9774680733680725
1781788087808823000,64.01482299804688,-5.44845724105835,-12.88056468963623,2.200200319290161
1781788087905878300,64.11187817382813,0.45583271980285645,-3.772284984588623,0.8207381963729858
1781788088002933800,64.20893383789063,2.825923442840576,-3.432504177093506,0.039481572806835175
1781788088061166600,64.26716650390625,4.046263217926025,-10.747363090515137,9.091529846191406
1781788088158222000,64.36422216796875,0.45104706287384033,-12.331411361694336,-0.6400800347328186
1781788088255277000,64.46127709960938,-0.9535398483276367,-17.950956344604492,4.242474555969238
1781788088313510100,64.51951025390625,1.4871392250061035,-7.753942012786865,0.15074782073497772
1781788088410565400,64.6165654296875,1.3627125024795532,-5.891129493713379,0.16151553392410278
1781788088507620600,64.71362060546875,1.1736794710159302,-9.497113227844238,3.6741790771484375
1781788088604676000,64.81067602539062,3.146561861038208,-16.57388687133789,1.588834285736084
1781788088662909000,64.86890893554687,0.013160524889826775,-5.8097734451293945,4.170690059661865
1781788088759964200,64.96596411132812,-6.820741176605225,-26.26481819152832,-2.021935224533081
1781788088857019100,65.06301904296875,-1.054038405418396,-4.596612453460693,5.376672267913818
1781788088915252200,65.12125219726562,1.1066805124282837,-4.280759811401367,-1.672582983970642
1781788089012307500,65.21830737304687,4.996213912963867,-4.048655986785889,3.7746777534484863
1781788089109362700,65.31536279296876,1.557727575302124,-14.035100936889648,7.465606689453125
1781788089245239800,65.45123974609375,-1.2059825658798218,-13.441680908203125,5.282155990600586
1781788089303473200,65.50947314453126,0.729810893535614,-8.437092781066895,-1.1126625537872314
1781788089361706200,65.56770629882813,1.3351950645446777,-4.604987144470215,-0.4546363055706024
1781788089458761200,65.66476123046876,0.10767702013254166,-9.623932838439941,2.3330020904541016
1781788089555816400,65.76181640625,2.1236300468444824,-14.477773666381836,2.7361927032470703
1781788089614049300,65.82004931640626,2.228914260864258,-7.501499176025391,1.801795482635498
1781788089711104500,65.9171044921875,-2.609373092651367,-15.66222095489502,2.344966173171997
1781788089808159700,66.01415966796876,2.159522533416748,-6.6484575271606445,6.555137634277344
1781788089866392800,66.07239282226563,-0.10648060590028763,-4.535595417022705,0.9248259663581848
1781788089963448000,66.16944799804688,2.421536445617676,-2.825923442840576,-0.6472585201263428
1781788090060503300,66.26650341796875,3.064009428024292,-23.842084884643555,7.682157039642334
1781788090157558300,66.36355834960938,-2.60339093208313,-7.903493404388428,-3.0544381141662598
1781788090215791400,66.42179125976563,-2.334198474884033,-17.253448486328125,4.679164886474609
1781788090312846600,66.5188466796875,0.9607182741165161,-5.158925533294678,-1.6378871202468872
1781788090409901600,66.61590161132813,1.1772687435150146,-9.059226989746094,2.932404041290283
1781788090506956800,66.71295678710938,4.797609329223633,-6.975078105926514,3.3571300506591797
1781788090565190000,66.77118994140625,3.9086756706237793,-16.92922019958496,1.8771693706512451
1781788090662245000,66.8682451171875,0.4139583110809326,-8.151150703430176,2.586641311645508
1781788090759300000,66.96530004882813,-3.153740167617798,-11.050054550170898,4.4410786628723145
1781788090817533200,67.023533203125,-0.7728816866874695,-4.350151538848877,4.454239368438721
1781788090914588200,67.12058813476563,1.4344971179962158,-4.285545349121094,-1.1569297313690186
1781788091011643400,67.21764331054688,3.6957144737243652,-13.044472694396973,9.06401252746582
1781788091108698600,67.31469873046875,2.2396819591522217,-7.814958572387695,-1.7718851566314697
1781788091166931700,67.372931640625,0.22851456701755524,-14.419149398803711,-1.1078768968582153
1781788091263987000,67.46998706054687,1.4608181715011597,-6.096911907196045,-0.9822536706924438
1781788091361042000,67.5670419921875,0.7657032608985901,-6.695117950439453,1.3088740110397339
1781788091458097200,67.66409716796875,2.864208698272705,-9.611968994140625,3.436093330383301
1781788091516330000,67.722330078125,3.656233072280884,-9.926624298095703,0.7573283910751343
1781788091613385200,67.81938525390625,-0.2273181527853012,-5.535795211791992,3.9122650623321533
1781788091710440200,67.91644018554688,-7.869993686676025,-20.641685485839844,-0.04426721855998039
1781788091768673300,67.97467333984375,1.3926228284835815,-6.172286033630371,5.867201328277588
1781788091865728500,68.071728515625,0.3924229145050049,-4.353740692138672,-1.9645073413848877
1781788091962783500,68.16878344726562,5.556134223937988,-4.88853645324707,5.686542987823486
1781788092059838700,68.26583862304688,1.7455641031265259,-14.854642868041992,5.587240695953369
1781788092118071600,68.32407153320312,-1.3280165195465088,-6.072983741760254,-3.9900317192077637
1781788092215126800,68.42112670898437,-0.4007977843284607,-10.816754341125488,2.719442844390869
1781788092312181800,68.518181640625,1.2741780281066895,-4.254438877105713,-0.5587241053581238
1781788092370414800,68.57641479492187,0.3038884699344635,-8.97787094116211,1.8233308792114258
1781788092467470000,68.67346997070312,5.134997367858887,-7.637889862060547,3.799802303314209
1781788092564525000,68.77052514648437,1.8221344947814941,-8.920442581176758,2.3676979541778564
1781788092661580000,68.867580078125,-4.235296249389648,-21.567707061767578,-0.9786644577980042
1781788092719813400,68.9258134765625,-3.407379388809204,-11.918649673461914,5.472385406494141
1781788092816868400,69.02286840820312,0.1950150430202484,-5.1565327644348145,-0.45224347710609436
1781788092913923300,69.11992333984375,2.9276185035705566,-2.8079774379730225,-0.017946170642971992
1781788093010978600,69.216978515625,4.310669898986816,-23.023738861083984,9.69093132019043
1781788093069211600,69.27521166992187,-0.3326023519039154,-9.964909553527832,-1.5960127115249634
1781788093166266400,69.37226635742188,-2.496910333633423,-17.3814640045166,5.675775527954102
1781788093263321600,69.46932153320313,1.3100703954696655,-5.953342914581299,-1.6630117893218994
1781788093360376800,69.566376953125,0.623330295085907,-8.816354751586914,1.9070796966552734
1781788093418609700,69.62460961914063,1.2035897970199585,-9.597611427307129,3.31884503364563
1781788093515665000,69.72166479492188,3.8285162448883057,-14.685949325561523,2.7326035499572754
1781788093612719900,69.81871997070313,-0.7022934556007385,-10.911271095275879,2.8043880462646484
1781788093670953000,69.87695288085938,-7.211967468261719,-23.361127853393555,-0.31345975399017334
1781788093768007700,69.97400756835937,-0.8566305041313171,-5.179264545440674,4.602594375610352
1781788093865063000,70.07106298828126,1.482353687286377,-2.963510751724243,-1.022931694984436
1781788093962118100,70.1681181640625,2.0470597743988037,-16.852649688720703,7.847261905670166
1781788094020351000,70.22635107421875,1.633101463317871,-14.313864707946777,4.783252239227295
1781788094117406200,70.32340625,-0.24526432156562805,-14.060225486755371,2.4526431560516357
1781788094214461200,70.42046118164062,0.7920243144035339,-8.322237014770508,-0.6400800347328186
1781788094272694300,70.4786943359375,1.399801254272461,-4.217350006103516,-0.15912270545959473
1781788094369749000,70.5757490234375,0.17347964644432068,-9.975677490234375,2.2995026111602783
1781788094466804200,70.67280419921875,3.944568157196045,-6.961917400360107,-0.35054850578308105
1781788094563859200,70.76985913085937,-0.9475577473640442,-6.276373863220215,4.920839786529541
1781788094622092300,70.82809228515625,-1.7563318014144897,-14.405988693237305,0.7178468108177185
1781788094719147300,70.92514721679687,-0.5048855543136597,-8.141578674316406,5.771488189697266
1781788094816202200,71.0222021484375,0.12801600992679596,-5.803791522979736,-1.2430713176727295
1781788094913257500,71.11925756835937,4.662415027618408,-3.62153697013855,2.864208698272705
1781788094971490300,71.177490234375,1.954936146736145,-20.79841423034668,6.946363925933838
1781788095068545300,71.27454516601563,-1.0516455173492432,-8.036294937133789,-1.430907964706421
1781788095165600500,71.3716005859375,-2.324627161026001,-14.292329788208008,4.078566074371338
1781788095223833600,71.42983349609375,0.9260223507881165,-8.871390342712402,-0.4295116662979126
1781788095320888300,71.52688842773438,1.332802176475525,-7.2921271324157715,0.98703932762146
1781788095417943600,71.62394360351563,3.13220477104187,-7.5086774826049805,4.463810443878174
1781788095514998500,71.72099853515626,5.087141036987305,-14.234902381896973,2.9491539001464844
1781788095573231600,71.77923168945313,-1.7467604875564575,-4.962714195251465,4.954339504241943
1781788095670286300,71.87628637695312,-6.9930243492126465,-22.19223403930664,-0.5814558863639832
1781788095767341600,71.97334155273437,-0.31345975399017334,-5.489135265350342,4.969892501831055
1781788095864396500,72.070396484375,1.3052847385406494,-1.628315806388855,-0.9786644577980042
1781788095922629400,72.12862939453125,5.897111415863037,-3.765106439590454,5.1876397132873535
1781788096019684600,72.2256845703125,0.7046862840652466,-14.081761360168457,4.526023864746094
1781788096116739600,72.32273950195312,1.2969099283218384,-16.198213577270508,0.5024927258491516
1781788096213794600,72.41979467773437,1.6630117893218994,-8.305487632751465,-1.573280930519104
1781788096272027400,72.47802734375,1.332802176475525,-5.109872817993164,-0.6436693072319031
1781788096369082400,72.57508227539063,0.7034898400306702,-9.008976936340332,3.0233314037323
1781788096466137300,72.67213745117188,4.563112735748291,-9.734002113342285,1.534995675086975
1781788096524370400,72.73037036132813,1.542174220085144,-9.976874351501465,3.9086756706237793
1781788096621425400,72.82742529296875,-2.746960401535034,-19.52184295654297,-1.6761722564697266
1781788096718480400,72.92448046875,0.9619147181510925,-7.3292155265808105,7.886743545532227
1781788096815535600,73.02153564453126,0.39481574296951294,-3.8775691986083984,-1.6199408769607544
1781788096873768200,73.07976831054688,2.7110681533813477,-2.231307029724121,0.30628129839897156
1781788096970823400,73.17682348632812,3.0424740314483643,-24.349363327026367,9.463613510131836
1781788097067878100,73.27387817382812,-0.4821537733078003,-6.183053493499756,-4.100101470947266
1781788097164933400,73.37093334960937,-0.34217363595962524,-10.335797309875488,0.8398807644844055
1781788097223166200,73.42916625976562,1.1437692642211914,-5.389832973480225,-2.561516523361206
1781788097320221200,73.52622119140625,0.9822536706924438,-9.69212818145752,2.8414769172668457
1781788097417276200,73.62327612304688,5.242674350738525,-6.58265495300293,3.1214370727539062
1781788097475509200,73.68150927734375,4.8777689933776855,-15.550954818725586,2.8977081775665283
1781788097572564200,73.77856420898438,-0.8207381963729858,-8.482556343078613,3.0209386348724365
1781788097669619000,73.87561889648437,-2.99222469329834,-11.516654968261719,6.095715522766113
1781788097766674200,73.97267407226562,-0.014356935396790504,-5.770291805267334,-0.3122633695602417
1781788097824907000,74.03090698242187,1.7742780447006226,-2.2504496574401855,-1.6713865995407104
1781788097921962000,74.1279619140625,1.8269200325012207,-13.868800163269043,7.706085205078125
1781788098019017000,74.22501684570312,0.9284151792526245,-9.21834945678711,-2.1439690589904785
1781788098116072000,74.32207202148437,-1.667797327041626,-17.769100189208984,4.502095699310303
1781788098174304800,74.3803046875,1.9860427379608154,-6.760920524597168,-0.8769695162773132
1781788098271359700,74.47735986328125,0.4893322288990021,-7.365108013153076,0.4163511395454407
1781788098368415000,74.5744150390625,1.770688772201538,-9.083154678344727,3.2781670093536377
1781788098426647600,74.6326474609375,5.642275810241699,-11.351551055908203,2.1714866161346436
1781788098523702500,74.72970263671876,-0.8877372145652771,-5.631507873535156,3.219542980194092
1781788098620757500,74.82675756835937,-7.611568927764893,-20.863019943237305,0.7381857633590698
1781788098717812500,74.9238125,0.7322037220001221,-4.432703971862793,4.076173305511475
1781788098776045300,74.98204541015625,0.5802595019340515,-3.9218363761901855,-1.317248821258545
1781788098873100300,75.07910034179687,5.7750773429870605,-6.9475603103637695,6.22492790222168
1781788098970155300,75.1761552734375,1.415354609489441,-12.623335838317871,4.071387767791748
1781788099067210500,75.27321044921875,0.32303106784820557,-15.656238555908203,3.6191442012786865
1781788099125443000,75.33144311523438,0.1902294009923935,-10.711470603942871,2.007578134536743
1781788099222498000,75.428498046875,1.683350682258606,-4.427918434143066,-0.02273181453347206
1781788099319553000,75.52555297851562,1.0528420209884644,-9.78544807434082,3.4576287269592285
1781788099377785900,75.58378588867187,5.272584915161133,-8.373682975769043,3.6023945808410645
1781788099474840800,75.6808408203125,0.9308080077171326,-5.314459323883057,3.6370904445648193
1781788099571895800,75.77789575195312,-6.265605926513672,-25.424936294555664,-1.867598056793213
1781788099668951000,75.87495092773437,0.3194418251514435,-5.982056617736816,6.38165807723999
1781788099727183600,75.93318359375,1.672582983970642,-5.1768717765808105,-2.513660192489624
1781788099824238600,76.03023852539063,3.6430723667144775,-2.3641088008880615,1.8939191102981567
1781788099921293300,76.12729321289062,1.9860427379608154,-19.51346778869629,9.852447509765625
1781788099979526400,76.1855263671875,0.8099704384803772,-9.689735412597656,-3.730410575866699
1781788100076581400,76.28258129882812,-2.025524377822876,-16.712669372558594,4.947160720825195
1781788100173636000,76.37963598632813,0.9750752449035645,-4.813162803649902,-1.4524433612823486
1781788100270691300,76.47669140625,0.8709874153137207,-9.422935485839844,2.963510751724243
1781788100328924200,76.53492407226562,2.2408783435821533,-9.438488960266113,4.490131855010986
1781788100425979000,76.63197875976563,4.213760852813721,-15.460026741027832,2.11405873298645
1781788100523033900,76.72903393554688,-0.31824541091918945,-8.995817184448242,2.706282377243042
1781788100581267000,76.78726684570313,-7.932207107543945,-25.012174606323242,-2.8079774379730225
1781788100678321700,76.88432177734374,0.44745782017707825,-4.979464054107666,5.30129861831665
1781788100775376600,76.98137670898437,1.3830515146255493,-1.836491346359253,-1.6893328428268433
1781788100872431400,77.07843139648438,1.8376877307891846,-17.32403564453125,9.10110092163086
1781788100930664400,77.13666455078125,1.3674981594085693,-15.098711013793945,6.385247230529785
1781788101027719200,77.23371923828125,1.168893814086914,-13.738390922546387,-2.8187451362609863
1781788101124774100,77.33077416992188,1.3280165195465088,-7.966903209686279,-1.3363914489746094
1781788101221829000,77.4278291015625,0.9595218896865845,-6.240481376647949,0.37806597352027893
1781788101280062000,77.48606201171874,0.08853443711996078,-10.017552375793457,3.418147087097168
1781788101377116700,77.58311669921875,4.974678039550781,-6.4426751136779785,1.2765709161758423
1781788101474171600,77.68017163085938,-0.9762716293334961,-6.374479293823242,4.0833516120910645
1781788101571226600,77.7772265625,-7.57806921005249,-23.136201858520508,-1.3411771059036255
1781788101629459500,77.83545947265625,1.4165509939193726,-7.1856465339660645,6.770491600036621
1781788101726514200,77.93251416015624,0.9379864931106567,-3.218346357345581,-2.001596212387085
1781788101823569200,78.02956909179687,5.038087844848633,-5.481956481933594,5.898307800292969
1781788101881802000,78.08780200195312,3.211168050765991,-23.001007080078125,9.005388259887695
1781788101978857000,78.18485693359375,-1.561316728591919,-7.255038261413574,-4.935196876525879
1781788102075912000,78.28191186523438,-0.3397808074951172,-10.837093353271484,1.4093725681304932
1781788102172966700,78.37896655273437,1.2490534782409668,-4.202992916107178,-0.8817551732063293
1781788102231199500,78.43719946289062,0.381655216217041,-8.415556907653809,2.3605196475982666
1781788102328254200,78.53425415039062,4.244867324829102,-8.672785758972168,2.902493953704834
1781788102425309200,78.63130908203125,1.3758729696273804,-9.19442081451416,4.005585193634033
1781788102522364200,78.7283642578125,-3.2578279972076416,-18.579071044921875,-0.6843472719192505
1781788102580596700,78.7865966796875,-6.009573936462402,-13.329218864440918,3.52103853225708
1781788102677651700,78.88365161132812,0.7262216806411743,-3.7842490673065186,0.6819544434547424
1781788102774706700,78.98070678710937,2.4849462509155273,-3.421736478805542,-0.061016976833343506
1781788102832939800,79.03893969726562,4.411168575286865,-10.022337913513184,8.687142372131348
1781788102929994500,79.13599438476562,-0.6640082597732544,-12.619746208190918,0.2907279431819916
1781788103027049200,79.23304931640625,-1.2011969089508057,-15.327225685119629,4.140779495239258
1781788103124104200,79.33010424804688,1.2095718383789062,-6.205785751342773,-1.1880364418029785
1781788103182336800,79.38833666992187,1.2346965074539185,-5.264209747314453,-0.8721838593482971
1781788103279391700,79.48539184570312,0.8709874153137207,-9.474381446838379,3.9050865173339844
1781788103376446500,79.58244653320313,4.0079779624938965,-13.448859214782715,2.530410051345825
1781788103473501700,79.67950170898438,-1.3052847385406494,-7.88076114654541,3.111865758895874
1781788103531734300,79.737734375,-6.455835342407227,-24.83989143371582,-1.8149559497833252
1781788103628789200,79.83478930664063,0.40677985548973083,-5.467599868774414,7.074379920959473
1781788103725844000,79.93184399414062,0.45942193269729614,-2.8666014671325684,-0.9152546525001526
1781788103784076800,79.99007690429687,3.078366279602051,-4.05703067779541,1.4991034269332886
1781788103881131500,80.08713159179688,1.9250258207321167,-17.839689254760742,8.303094863891602
1781788103978186500,80.1841865234375,0.5982056856155396,-11.950952529907227,-2.104487419128418
1781788104075241200,80.2812412109375,0.9511470198631287,-9.34277629852295,-0.6807580590248108
1781788104133474000,80.33947412109374,1.2921242713928223,-4.540380954742432,-2.0745773315429688
1781788104230528800,80.43652880859375,0.9595218896865845,-9.41336441040039,2.8666014671325684
1781788104327583700,80.53358374023438,5.575276851654053,-6.096911907196045,3.4480574131011963
1781788104385816800,80.59181689453125,3.1752755641937256,-14.68953800201416,2.2265214920043945
1781788104482871300,80.68887133789063,-0.40677985548973083,-9.988838195800781,2.8809585571289062
1781788104579926300,80.78592626953125,-2.0243279933929443,-10.331011772155762,6.557530403137207
1781788104676981000,80.88298095703125,0.6005984544754028,-4.59421968460083,-0.7776673436164856
1781788104735213800,80.9412138671875,1.588834285736084,-2.36291241645813,-0.916451096534729
1781788104832268500,81.0382685546875,2.1786649227142334,-16.103696823120117,7.0995049476623535
1781788104929323500,81.13532348632812,-0.12442677468061447,-10.063015937805176,-2.623729944229126
1781788105026378500,81.23237841796875,-2.8342983722686768,-15.897913932800293,5.444868087768555
1781788105084611000,81.29061108398437,1.887937068939209,-7.05763053894043,-1.0265209674835205
1781788105181666000,81.387666015625,0.7441678643226624,-6.491727828979492,0.8147560954093933
1781788105278720800,81.484720703125,3.0927233695983887,-10.38485050201416,4.158725738525391
1781788105336953600,81.54295361328126,5.265406131744385,-12.787243843078613,1.6534404754638672
1781788105434008300,81.64000830078125,-0.8638089895248413,-4.646861553192139,5.26181697845459
1781788105531063000,81.73706298828125,-8.11525821685791,-22.853849411010742,-1.7730815410614014
1781788105628118000,81.83411791992188,0.4259224236011505,-4.1383867263793945,4.445864677429199
1781788105686350600,81.8923505859375,0.17946170270442963,-3.8333017826080322,-1.2047861814498901
1781788105783405600,81.98940551757812,5.741578102111816,-5.270191669464111,2.7517459392547607
1781788105880460300,82.08646020507813,1.1617153882980347,-15.749558448791504,7.635497093200684
1781788105977515300,82.18351538085938,-0.8841479420661926,-9.154939651489258,-1.9417755603790283
1781788106035747800,82.24174780273438,-2.204986095428467,-12.692728042602539,4.310669898986816
1781788106132802600,82.33880249023437,0.7058826684951782,-4.512863636016846,-1.3351950645446777
1781788106229857300,82.43585717773438,0.31106695532798767,-9.589237213134766,3.865604877471924
1781788106288090400,82.49409033203125,3.735196113586426,-8.214560508728027,4.109673023223877
1781788106385145000,82.59114501953125,1.1114661693572998,-12.604193687438965,3.4444682598114014
1781788106482199600,82.68819946289062,-1.100698471069336,-14.824732780456543,1.196411371231079
1781788106579254800,82.7852548828125,1.368694543838501,-6.911668300628662,6.740581512451172
1781788106637487400,82.8434873046875,0.09212367236614227,-4.131208419799805,1.892722725868225
1781788106734542000,82.9405419921875,2.441875457763672,-2.2372891902923584,-0.27038896083831787
1781788106831597000,83.03759716796876,1.6211373805999756,-27.367908477783203,9.134600639343262
1781788106889830000,83.09582983398437,0.46420758962631226,-11.576476097106934,-0.6305087804794312
1781788106986884400,83.19288427734375,-2.480160713195801,-19.838891983032227,5.278566837310791
1781788107083939300,83.28993920898438,0.5647061467170715,-4.790431022644043,-2.032702922821045
1781788107180994000,83.386994140625,0.7800601720809937,-9.133403778076172,3.053241729736328
1781788107239227000,83.44522680664062,1.828116536140442,-9.571290969848633,4.409972190856934
1781788107336281600,83.54228149414062,3.418147087097168,-17.00339698791504,2.589034080505371
1781788107433336300,83.63933642578125,-0.8327022790908813,-6.439085960388184,4.068994998931885
1781788107530391000,83.73639111328124,-5.082355499267578,-11.948559761047363,2.68953275680542
1781788107588623600,83.79462353515625,0.1543370634317398,-4.5200419425964355,6.8518476486206055
1781788107685678600,83.8916787109375,1.1186445951461792,-2.444268226623535,-1.7742780447006226
1781788107782733300,83.9887333984375,2.5387847423553467,-17.300107955932617,9.984052658081055
1781788107840966100,84.04696606445313,1.3196417093276978,-13.386646270751953,6.184250354766846
1781788107938020900,84.14402075195312,0.776470959186554,-15.876378059387207,0.24646073579788208
1781788108035075600,84.24107568359375,1.7168502807617188,-7.744370460510254,-2.417947292327881
1781788108132130300,84.33813037109375,0.5359922647476196,-6.551548480987549,0.7645068168640137
1781788108190363400,84.39636328125,1.1473584175109863,-10.287940979003906,3.672982692718506
1781788108287417900,84.49341796875,5.0117669105529785,-12.364911079406738,2.2983062267303467
1781788108384472600,84.59047265625,-1.00259268283844,-4.651647090911865,4.968696117401123
1781788108481527300,84.68752734375,-7.636693477630615,-20.76730728149414,-1.470389485359192
1781788108539760000,84.74576000976562,0.9762716293334961,-6.387639999389648,7.619943618774414
1781788108636814800,84.84281494140625,1.5314065217971802,-3.291327476501465,-1.597209095954895
1781788108733869600,84.93986962890625,6.308676719665527,-3.528217077255249,4.851448059082031
1781788108792102400,84.99810229492188,0.4941178858280182,-26.9407901763916,10.553544044494629
1781788108889156900,85.09515698242187,0.9882357716560364,-5.002195835113525,-4.130012035369873
1781788108986211800,85.1922119140625,-0.5300102233886719,-10.612168312072754,3.7902309894561768
1781788109083266600,85.2892666015625,1.007378339767456,-5.288137912750244,-0.760917603969574
1781788109180321300,85.3863212890625,0.42831525206565857,-8.323433876037598,2.575873613357544
1781788109238553900,85.44455395507812,3.242274761199951,-8.4562349319458,3.332005500793457
1781788109335608600,85.54160864257813,2.5495524406433105,-9.986445426940918,4.810770034790039
1781788109432663300,85.63866333007813,-3.335594654083252,-19.60439682006836,-0.7381857633590698
1781788109490896100,85.69689624023438,-6.302694797515869,-13.655838966369629,2.939582586288452
1781788109587950600,85.79395068359375,0.8255237936973572,-3.410968780517578,0.09092725813388824
1781788109685005300,85.89100537109375,3.4576287269592285,-1.9441684484481812,-0.11126625537872314
1781788109782060300,85.98806030273437,3.3104701042175293,-27.497121810913086,12.990633964538574
1781788109840293000,86.04629321289063,0.7465606927871704,-11.172088623046875,2.0027925968170166
1781788109937347800,86.14334790039062,-0.8410771489143372,-18.126827239990234,4.596612453460693
1781788110034402600,86.24040258789063,1.8305093050003052,-5.490331649780273,-1.4488540887832642
1781788110131457300,86.33745727539062,-0.6376872062683105,-8.402397155761719,2.276770830154419
1781788110189689900,86.39568994140625,1.0408778190612793,-10.512866020202637,3.9457645416259766
1781788110286744600,86.49274462890625,3.135794162750244,-15.772290229797363,1.8424733877182007
1781788110383799300,86.58979931640626,-0.9906286001205444,-5.444868087768555,4.073780536651611
1781788110480854000,86.68685400390625,-6.989434719085693,-16.901702880859375,1.089930772781372
1781788110539086600,86.74508666992188,0.30628129839897156,-6.391229152679443,6.394818305969238
1781788110636141300,86.84214135742188,0.698704183101654,-3.111865758895874,-1.2203395366668701
1781788110733196000,86.93919604492187,6.650850772857666,-4.040280818939209,4.828716278076172
1781788110791428900,86.99742895507812,0.7716853022575378,-29.040491104125977,10.829915046691895
1781788110888483300,87.0944833984375,-2.7517459392547607,-7.490731239318848,-4.116851329803467
1781788110985538000,87.1915380859375,2.541177749633789,-8.35453987121582,0.20099709928035736
1781788111082592800,87.2885927734375,1.2251251935958862,-5.477170944213867,-0.3278166949748993
1781788111140825300,87.34682543945313,0.8147560954093933,-8.660821914672852,3.249453067779541
1781788111237880000,87.44388012695312,5.929414749145508,-4.8538408279418945,1.32921302318573
1781788111334934800,87.54093481445312,-2.3712873458862305,-7.302894592285156,4.919643402099609
1781788111431989500,87.63798950195313,-6.5180487632751465,-23.029722213745117,-0.01196411345154047
1781788111490222300,87.69622241210938,-0.10289137065410614,-7.805387496948242,6.392425537109375
1781788111587276800,87.79327685546875,0.6915257573127747,-4.106083869934082,-2.1367905139923096
1781788111684331500,87.89033154296875,4.482953071594238,-2.998206853866577,2.5435705184936523
1781788111742564400,87.948564453125,2.1032910346984863,-25.70370101928711,9.442078590393066
1781788111839619000,88.045619140625,-2.469393014907837,-10.49970531463623,-5.257031440734863
1781788111936673800,88.142673828125,-2.551945447921753,-14.889338493347168,2.8175487518310547
1781788112033728500,88.239728515625,2.197807550430298,-4.222135543823242,-1.196411371231079
1781788112091961000,88.29796118164063,-0.47976094484329224,-8.295916557312012,2.493321180343628
1781788112189015800,88.39501586914062,3.205185890197754,-9.4660062789917,4.7126641273498535
1781788112286070500,88.49207055664063,2.4011974334716797,-11.140982627868652,2.974278450012207
1781788112383125000,88.589125,-1.490728497505188,-14.2456693649292,1.384247899055481
1781788112441357800,88.64735791015624,-7.841279983520508,-16.7318115234375,2.0470597743988037
1781788112538412500,88.74441259765625,0.7238288521766663,-3.10109806060791,1.9645073413848877
1781788112635467000,88.84146704101562,2.616551637649536,-2.5076780319213867,-1.0923235416412354
1781788112693699800,88.89969995117187,4.786841869354248,-5.781059741973877,7.512266635894775
1781788112790754300,88.99675439453125,0.47617170214653015,-12.155538558959961,4.427918434143066
1781788112887809000,89.09380908203126,-0.7286145091056824,-19.56252098083496,3.9661035537719727
1781788112984863700,89.19086376953125,1.573280930519104,-6.515655994415283,-1.3387842178344727
1781788113043096300,89.24909643554687,1.322034478187561,-4.9531426429748535,-0.48813581466674805
1781788113140151000,89.34615112304688,0.6783652305603027,-10.224531173706055,3.559323787689209
1781788113237205800,89.44320581054687,5.251049518585205,-12.942777633666992,2.1020946502685547
1781788113334260200,89.54026025390625,-1.537388563156128,-8.656036376953125,4.311866283416748
1781788113392493000,89.5984931640625,-3.1477582454681396,-19.123437881469727,-1.592423439025879
1781788113489547500,89.69554760742187,1.0492527484893799,-6.393621921539307,6.795616149902344
1781788113586602500,89.7926025390625,0.747757077217102,-2.0027925968170166,-1.573280930519104
1781788113644835000,89.8508349609375,3.7459638118743896,-2.097309112548828,1.2346965074539185
1781788113741889800,89.94788989257812,2.2372891902923584,-19.334007263183594,10.314262390136719
1781788113838944500,90.04494458007812,-2.111665964126587,-7.274180889129639,-3.748356580734253
1781788113935999000,90.1419990234375,1.3435698747634888,-7.950153350830078,1.5206388235092163
1781788113994231600,90.2002314453125,0.9942178130149841,-5.430510997772217,-0.9942178130149841
1781788114091286300,90.29728637695312,0.5443671345710754,-8.591429710388184,3.1752755641937256
1781788114188341000,90.39434106445313,5.340780258178711,-8.901300430297852,3.428914785385132
1781788114246573800,90.45257373046876,2.7876384258270264,-17.024932861328125,1.7288143634796143
1781788114343628300,90.54962817382813,-0.3840480446815491,-6.215356826782227,3.4815568923950195
1781788114440682800,90.64668286132813,-4.901697158813477,-12.934402465820312,3.431307554244995
1781788114537737500,90.74373754882812,0.4749752879142761,-3.7603209018707275,0.25004997849464417
1781788114595970000,90.80196997070313,0.9272187948226929,-2.737389087677002,-1.3674981594085693
1781788114693024800,90.89902465820313,1.4273186922073364,-13.957334518432617,9.33559799194336
1781788114790079500,90.99607958984375,-0.05024927482008934,-10.207781791687012,-0.26560330390930176
1781788114887134000,91.09313403320313,-2.3401806354522705,-17.45564079284668,5.739185333251953
1781788114945366500,91.15136645507812,2.2229323387145996,-6.983452796936035,-1.1066805124282837
1781788115042421200,91.24842114257812,0.7489534616470337,-6.6113691329956055,0.6903293132781982
1781788115139476000,91.34547607421875,1.2993026971817017,-9.67657470703125,4.808377265930176
1781788115197708500,91.40370849609376,6.027520179748535,-8.70628547668457,2.630908489227295
1781788115294763300,91.50076318359375,-1.3818551301956177,-5.359922885894775,3.950550079345703
1781788115391817700,91.59781762695313,-6.417550563812256,-24.455842971801758,-0.7932206988334656
1781788115488872400,91.69487255859374,-0.6867401003837585,-4.977071285247803,4.643272399902344
1781788115547105000,91.75310498046875,0.7094719409942627,-3.964907169342041,-1.1521440744400024
1781788115644159700,91.85015966796875,4.376472473144531,-4.418346881866455,3.014956474304199
1781788115741214500,91.94721435546874,1.9728822708129883,-16.2508544921875,9.77109146118164
1781788115838269000,92.04426904296875,-0.5599204897880554,-12.299108505249023,-1.7874385118484497
1781788115896501500,92.10250146484375,-0.9571290612220764,-10.595418930053711,3.462414264678955
1781788115993556200,92.19955615234375,0.711864709854126,-4.566701889038086,-0.9726824164390564
1781788116090611000,92.29661083984375,-0.5958128571510315,-10.189835548400879,3.232703447341919
1781788116148843500,92.35484350585938,4.185046672821045,-8.270791053771973,3.5880374908447266
1781788116245898000,92.45189794921875,2.1547367572784424,-12.648460388183594,3.342773199081421
1781788116342952700,92.54895263671875,-0.9559326171875,-10.309475898742676,3.1800613403320312
1781788116440007200,92.64600708007812,0.2560320198535919,-7.2921271324157715,4.838287353515625
1781788116498239700,92.70423974609375,-0.1782652884721756,-3.78544545173645,3.214757204055786
1781788116595294500,92.80129443359375,2.3736801147460938,-2.843869686126709,-0.12442677468061447
1781788116692349000,92.89834887695312,1.7682958841323853,-21.726829528808594,11.009376525878906
1781788116750581800,92.95658178710937,0.24646073579788208,-14.197813034057617,0.867398202419281
1781788116847636200,93.05363623046875,-0.8147560954093933,-19.989641189575195,5.789434432983398
1781788116944690700,93.15069067382812,0.8997012972831726,-7.048058986663818,-1.3471591472625732
1781788117041745400,93.24774536132813,-0.08255238085985184,-6.662814617156982,1.4919248819351196
1781788117099978200,93.30597827148438,0.7345965504646301,-10.229316711425781,2.8893332481384277
1781788117197032700,93.40303271484375,4.561916351318359,-12.431910514831543,1.8831514120101929
1781788117294087200,93.50008715820313,-0.5527420043945312,-4.061816215515137,4.406383037567139
1781788117391142000,93.59714184570312,-6.695117950439453,-26.405994415283203,-1.698904037475586
1781788117449374500,93.65537451171875,0.8997012972831726,-7.920242786407471,5.678168296813965
1781788117546429000,93.75242895507813,0.2883351147174835,-4.901697158813477,-0.8877372145652771
1781788117643483600,93.84948364257812,5.26181697845459,-3.3068809509277344,3.10109806060791
1781788117740538400,93.94653833007813,1.3758729696273804,-12.674781799316406,8.237292289733887
1781788117798770700,94.00477075195313,-1.659422516822815,-6.880561351776123,-2.662015199661255
1781788117895825400,94.10182543945312,-0.7908278703689575,-11.907881736755371,4.577469825744629
1781788117992879900,94.1988798828125,0.8793623447418213,-5.483152866363525,-0.020338991656899452
1781788118051112700,94.25711279296875,0.1818545162677765,-7.568498134613037,1.5230315923690796
1781788118148167200,94.35416723632812,3.7818562984466553,-9.81535816192627,2.963510751724243
1781788118245221600,94.4512216796875,1.9537396430969238,-11.927024841308594,3.5066816806793213
1781788118342276000,94.54827612304688,-0.8709874153137207,-12.39721393585205,2.592623233795166
1781788118400509000,94.60650903320312,-6.579065799713135,-16.706687927246094,0.3086741268634796
1781788118497563400,94.7035634765625,0.19740787148475647,-4.264009952545166,3.2685956954956055
1781788118594617900,94.80061791992188,1.797009825706482,-2.4705893993377686,-0.9056833982467651
1781788118691672600,94.89767260742188,1.8687944412231445,-19.304096221923828,9.203991889953613
1781788118749905000,94.95590478515625,1.4081761837005615,-14.609378814697266,6.672386169433594
1781788118846959600,95.05295971679688,0.672383189201355,-13.077972412109375,-0.6317051649093628
1781788118944014000,95.15001416015625,1.2598211765289307,-7.485945701599121,-0.04666004329919815
1781788119002247000,95.20824682617187,0.9212366938591003,-4.925625324249268,0.04785645380616188
1781788119099301400,95.30530126953126,-0.6640082597732544,-10.210174560546875,1.7479569911956787
1781788119196355800,95.40235595703125,4.000799655914307,-9.822537422180176,1.5026925802230835
1781788119293410300,95.49941040039063,-0.3768695592880249,-5.139782905578613,4.870590686798096
1781788119351643100,95.55764306640626,-1.3004990816116333,-12.752548217773438,1.4321043491363525
1781788119448697600,95.65469750976563,-0.7334001660346985,-8.309076309204102,4.357329845428467
1781788119545752000,95.751751953125,0.3326023519039154,-4.77248477935791,-0.031106693670153618
1781788119642806800,95.84880688476562,4.130012035369873,-2.8701908588409424,2.0231316089630127
1781788119701039400,95.90703930664063,3.1824541091918945,-20.51486587524414,9.750752449035645
1781788119798093800,96.00409375,-0.46779683232307434,-8.834300994873047,-0.9475577473640442
1781788119895148300,96.10114819335938,-1.7395820617675781,-16.441083908081055,4.922036170959473
1781788119953381000,96.15938110351563,1.648654818534851,-7.631907939910889,-0.9116654396057129
1781788120050435300,96.25643530273437,0.24885354936122894,-7.482356548309326,1.1748759746551514
1781788120147489800,96.35348974609374,2.589034080505371,-9.114261627197266,4.8574299812316895
1781788120244544500,96.45054443359375,3.5748770236968994,-14.979069709777832,2.1750757694244385
1781788120302777000,96.50877709960938,0.10887342691421509,-4.737788677215576,5.205585479736328
1781788120399831600,96.60583154296874,-6.376872539520264,-23.784656524658203,0.07058826833963394
1781788120496886000,96.70288598632813,0.18424734473228455,-5.630311489105225,4.392025947570801
1781788120555118800,96.76111889648438,0.5718846321105957,-3.7292141914367676,-1.4368900060653687
1781788120652173000,96.85817309570312,3.1453654766082764,-3.568894863128662,1.8831514120101929
1781788120749227800,96.95522778320313,-0.18544375896453857,-20.377277374267578,11.94736385345459
1781788120846282200,97.0522822265625,0.1339980661869049,-10.49970531463623,-3.3583266735076904
1781788120904514800,97.11051489257812,-0.27038896083831787,-13.805390357971191,4.811966419219971
1781788121001569300,97.2075693359375,0.519242525100708,-4.766502857208252,-0.4737788736820221
1781788121098623700,97.30462377929688,-0.14835500717163086,-9.110671997070312,0.3038884699344635
1781788121195678200,97.40167822265624,5.499902725219727,-9.964909553527832,0.5072783827781677
1781788121253911000,97.4599111328125,2.1714866161346436,-12.30269718170166,4.187439441680908
1781788121350965200,97.55696533203125,-1.357926845550537,-13.769497871398926,2.9455647468566895
1781788121448019700,97.65401977539062,-1.155733346939087,-8.417949676513672,5.648257732391357
1781788121506252500,97.71225244140625,-0.8315058946609497,-4.58584451675415,3.473181962966919
1781788121603307000,97.80930712890626,2.0650060176849365,-1.7048860788345337,-0.8961120843887329
1781788121700361200,97.906361328125,1.6031911373138428,-25.06003189086914,11.542976379394531
1781788121797415700,98.00341577148437,0.34217363595962524,-5.280959606170654,-2.7038896083831787
1781788121855648500,98.0616484375,-0.8841479420661926,-20.72064781188965,2.888136863708496
1781788121952703000,98.15870288085938,0.8422735929489136,-6.856633186340332,-0.5144568681716919
1781788122049757400,98.25575732421875,1.1318050622940063,-5.565705299377441,0.7286145091056824
1781788122107990300,98.313990234375,-0.4127618968486786,-10.743773460388184,2.685943365097046
1781788122205044500,98.41104443359374,6.246463298797607,-9.975677490234375,4.913661479949951
1781788122302099000,98.50809887695313,-1.397408366203308,-6.829115867614746,3.190829038619995
1781788122399153400,98.6051533203125,-6.2297139167785645,-14.780465126037598,3.528217077255249
1781788122457386200,98.66338623046875,-0.13040883839130402,-6.642475605010986,6.339783668518066
1781788122554440400,98.7604404296875,0.6089733839035034,-0.1339980661869049,-2.2911276817321777
1781788122651495000,98.85749487304687,6.204588890075684,-6.589833736419678,8.271987915039062
1781788122748549400,98.95454931640624,2.251646041870117,-10.74138069152832,2.5399811267852783
1781788122806782000,99.01278198242187,0.10289137065410614,-9.437292098999023,-5.763113498687744
1781788122903836400,99.10983642578125,-0.014356935396790504,-10.125228881835938,-0.3086741268634796
1781788123000891000,99.20689086914062,1.0803594589233398,-3.8249270915985107,-0.7884350419044495
1781788123059123700,99.26512377929687,0.0933200865983963,-8.019545555114746,1.9214365482330322
1781788123156178000,99.36217797851563,4.380061626434326,-9.452845573425293,3.4097721576690674
1781788123253232400,99.459232421875,-0.623330295085907,-8.140382766723633,5.662614822387695
1781788123350286800,99.55628686523437,-4.809573650360107,-23.78944206237793,-1.337587833404541
1781788123408519400,99.61451953125,-3.363112211227417,-9.963713645935059,4.790431022644043
1781788123505574000,99.71157397460938,0.8745766878128052,-3.631108283996582,-0.9403793215751648
1781788123602628400,99.80862841796875,4.468596458435059,-3.2303106784820557,2.3808584213256836
1781788123699682800,99.90568286132813,1.1509476900100708,-16.204195022583008,8.342576026916504
1781788123757915400,99.96391528320312,-0.7130611538887024,-6.515655994415283,-3.2925238609313965
1781788123854969600,100.06096948242188,-0.9655039310455322,-11.187642097473145,5.355136871337891
1781788123952024000,100.15802416992187,0.17228323221206665,-4.694717884063721,-0.5455635786056519
1781788124010257000,100.2162568359375,0.21176479756832123,-7.183253765106201,1.2442678213119507
1781788124107311000,100.31331103515625,3.775874137878418,-7.421339511871338,4.301098823547363
1781788124204365600,100.41036547851563,-2.4981069564819336,-8.882157325744629,1.4608181715011597
1781788124301420300,100.50742016601562,-4.266402721405029,-11.988041877746582,7.574480056762695
1781788124359652600,100.56565258789063,-0.8159525394439697,-6.534798622131348,5.014159679412842
1781788124456707000,100.66270703125,1.8149559497833252,-0.8350951075553894,-1.098305583000183
1781788124553761500,100.75976147460938,4.366901397705078,-14.644074440002441,10.792826652526855
1781788124611994000,100.817994140625,4.719842433929443,-12.439088821411133,10.576275825500488
1781788124709048600,100.91504858398437,-3.001796007156372,-7.331608772277832,-4.370490550994873
1781788124806102800,101.01210278320312,0.6664010882377625,-11.157732009887695,3.579662561416626
1781788124903157500,101.10915747070312,1.2478569746017456,-4.704289436340332,-0.22971096634864807
1781788124961389800,101.16738989257813,0.2955136001110077,-4.892126083374023,1.6235301494598389
1781788125058444300,101.2644443359375,1.1629117727279663,-10.063015937805176,4.107280254364014
1781788125155498800,101.36149877929688,0.9272187948226929,-16.511672973632812,1.0911271572113037
1781788125252553200,101.45855322265625,-2.1236300468444824,-12.220145225524902,3.214757204055786
1781788125310785500,101.51678564453125,-7.529016494750977,-15.200406074523926,0.914058268070221
1781788125407840000,101.61384008789062,-0.07657032459974289,-2.7493531703948975,0.41515472531318665
1781788125504894500,101.71089453125,4.59421968460083,-2.9898319244384766,2.746960401535034
1781788125563127000,101.769126953125,2.520838737487793,-7.744370460510254,10.195816993713379
1781788125660181500,101.86618139648438,0.794417142868042,-12.498908996582031,-1.2610175609588623
1781788125757235700,101.96323559570313,-0.6508477330207825,-18.735801696777344,6.382854461669922
1781788125854290200,102.06029028320313,1.454836130142212,-4.284348964691162,-0.5180460810661316
1781788125912523800,102.11852368164062,1.0205388069152832,-5.3108696937561035,-0.5144568681716919
1781788126009578200,102.215578125,1.0959128141403198,-9.316454887390137,3.5509488582611084
1781788126106632400,102.31263256835938,4.639683246612549,-11.158928871154785,4.219742774963379
1781788126203686700,102.40968676757812,-5.325226783752441,-17.64228057861328,4.90408992767334
1781788126261919500,102.46791943359375,-6.970292568206787,-22.750957489013672,-1.0289137363433838
1781788126358973700,102.5649736328125,0.1459621787071228,-4.005585193634033,3.190829038619995
1781788126456028200,102.66202807617188,1.7515461444854736,-1.0085747241973877,-2.1200408935546875
1781788126519248600,102.72524853515625,5.005186557769775,-2.60339093208313,5.111069202423096
1781788126567775700,102.77377563476563,3.085843801498413,-26.498117446899414,10.349855422973633
1781788126616302800,102.822302734375,1.5849459171295166,-12.842877388000488,5.124827861785889
1781788126664830200,102.87083032226562,-1.363310694694519,-9.5291166305542,-3.5533416271209717
1781788126713357300,102.919357421875,-0.90358966588974,-14.821742057800293,-0.14057832956314087
1781788126761884400,102.96788452148438,-0.5440680384635925,-13.299906730651855,3.667299747467041
1781788126810411500,103.01641162109375,1.7826528549194336,-7.023532867431641,-0.07896314561367035
1781788126858939000,103.06493896484375,1.2116655111312866,-4.31096887588501,-0.18095721304416656
1781788126907466000,103.11346606445312,0.4938187599182129,-6.399005889892578,0.7938188910484314
1781788126955993000,103.1619931640625,0.5365904569625854,-9.272786140441895,3.0326035022735596
1781788127004520400,103.2105205078125,2.292922258377075,-9.422038078308105,4.37228536605835
1781788127053047300,103.25904736328125,5.052743911743164,-8.715258598327637,3.1339993476867676
1781788127101574700,103.30757470703125,2.1678972244262695,-12.678669929504395,3.1854450702667236
1781788127150101800,103.35610180664062,-0.9020941257476807,-6.637091636657715,3.683152198791504
1781788127198628900,103.40462890625,-1.1078768968582153,-12.74327564239502,1.4327025413513184
1781788127247156200,103.45315625,-7.568498134613037,-22.995025634765625,1.8625133037567139
1781788127295683300,103.50168334960938,-0.5440680384635925,-7.93789005279541,7.156932353973389
1781788127344210400,103.55021044921875,0.21595224738121033,-3.2129626274108887,3.5446677207946777
1781788127392737800,103.59873779296875,0.3723830282688141,-3.664308786392212,-1.5227324962615967
1781788127441265000,103.64726489257812,1.6701902151107788,-2.3922245502471924,-1.2161520719528198
1781788127489792000,103.6957919921875,5.069792747497559,-3.6604204177856445,6.297909259796143
1781788127538319400,103.7443193359375,3.482454299926758,-24.01825714111328,10.84277629852295
1781788127586846500,103.79284643554688,2.084148406982422,-9.477970123291016,5.271388053894043
1781788127635373600,103.84137353515625,-4.262514591217041,-10.576874732971191,-6.15972375869751
1781788127683900700,103.88990063476562,0.4426721930503845,-15.791133880615234,1.4482558965682983
1781788127732427800,103.938427734375,-0.28534409403800964,-12.305688858032227,3.161816120147705
1781788127780955100,103.986955078125,0.6005984544754028,-8.683553695678711,-0.9888339638710022
1781788127829482200,104.03548217773438,2.0931215286254883,-4.4635114669799805,-0.9251250624656677
1781788127878009300,104.08400927734375,0.40737804770469666,-6.477370738983154,0.8222336769104004
1781788127926536700,104.13253662109375,0.7929216027259827,-9.84556770324707,3.634697675704956
1781788127975063800,104.18106372070312,1.2795618772506714,-9.598508834838867,4.716851711273193
1781788128023591000,104.2295908203125,5.256134033203125,-8.105387687683105,2.597707986831665
1781788128072118000,104.27811791992187,4.765904426574707,-12.788141250610352,3.282055377960205
1781788128120645000,104.32664501953126,-1.342971682548523,-5.827121257781982,5.056931495666504
1781788128169172500,104.37517236328125,-0.727418065071106,-10.31934642791748,2.6967110633850098
1781788128217699600,104.42369946289062,-5.709873199462891,-23.56032943725586,-0.7998009920120239
1781788128266226700,104.47222680664062,-2.840280532836914,-11.136795043945312,6.005386829376221
1781788128314754000,104.52075415039063,0.2949153780937195,-5.162814140319824,6.320042610168457
1781788128363281000,104.56928100585938,1.1237293481826782,-4.077369689941406,-1.6064813137054443
1781788128411808300,104.61780834960938,1.1635099649429321,-1.693520188331604,-2.162513494491577
1781788128460335400,104.66633544921875,3.0143582820892334,-2.328216314315796,1.0447661876678467
1781788128508862500,104.71486254882812,3.894019842147827,-14.318650245666504,7.4377899169921875
1781788128557389800,104.76338989257812,2.2654049396514893,-17.562719345092773,8.190631866455078
1781788128605917000,104.8119169921875,-3.239881753921509,-15.67538070678711,2.2698912620544434
1781788128654444000,104.86044409179688,-0.753140926361084,-11.49841022491455,-5.1412787437438965
1781788128702971100,104.90897119140625,0.498604416847229,-13.374980926513672,1.6983058452606201
1781788128751498200,104.95749829101563,-0.30239295959472656,-10.525428771972656,2.377568483352661
1781788128800025600,105.00602563476562,1.822433590888977,-4.928317546844482,-0.5712863802909851
1781788128848552700,105.054552734375,0.8766704201698303,-4.288536548614502,0.29760730266571045
1781788128897079800,105.10307983398438,0.12771691381931305,-8.90518856048584,2.468794822692871
1781788128945607200,105.15160717773438,-0.0023928226437419653,-10.77248764038086,3.541975736618042
1781788128994134000,105.20013403320313,4.993222713470459,-9.114261627197266,1.031306505203247
1781788129042661000,105.2486611328125,4.454538345336914,-12.620643615722656,2.5220351219177246
1781788129091188500,105.2971884765625,0.6948158740997314,-7.470392227172852,5.175675392150879
1781788129139715600,105.34571557617187,-1.4365909099578857,-6.617650032043457,3.4677982330322266
1781788129188242700,105.39424267578126,-3.5356945991516113,-21.66282081604004,-0.4058825373649597
1781788129236769800,105.44276977539063,-6.617650032043457,-16.346269607543945,2.967100143432617
1781788129285297200,105.49129711914063,0.6634100675582886,-6.2913289070129395,6.911369323730469
1781788129333824300,105.53982421875,0.6969096064567566,-3.939483404159546,1.48055899143219
1781788129382351400,105.58835131835937,0.6502495408058167,-2.5588247776031494,-1.174277663230896
1781788129430878500,105.63687841796875,2.754138946533203,-1.1207382678985596,0.18813568353652954
1781788129479405800,105.68540576171876,5.409573554992676,-6.011368751525879,5.765805244445801
1781788129527933000,105.73393286132813,2.6072793006896973,-22.718355178833008,11.904891014099121
1781788129576460000,105.7824599609375,3.0071799755096436,-8.355138778686523,6.0466628074646
1781788129624987100,105.83098706054687,-4.570291042327881,-14.805889129638672,-8.107780456542969
1781788129673514200,105.87951416015625,0.11665010452270508,-12.256635665893555,1.3797613382339478
