time,seconds_elapsed,z,y,x
1781678009340304400,0.161304443359375,0,0,0
1781678009388827100,0.2098271484375,0.001575469970703125,-0.051763057708740234,-0.05922767519950867
1781678009437350000,0.258349853515625,-0.03791999816894531,-0.12288570404052734,0.18767917156219482
1781678009485872600,0.30687255859375,0.1986699104309082,-0.48708391189575195,0.16877305507659912
1781678009534395400,0.3553955078125,0.09315776824951172,0.04366731643676758,0.14932501316070557
1781678009582918100,0.403918212890625,0.05918169021606445,0.3975715637207031,0.28102582693099976
1781678009631441000,0.45244091796875,-0.17136144638061523,0.6125655174255371,-0.19927507638931274
1781678009679963600,0.500963623046875,0.46080636978149414,-0.07616424560546875,0.3086857199668884
1781678009728486100,0.549486083984375,-0.022640228271484375,0.013059139251708984,-0.012815892696380615
1781678009777009000,0.5980087890625,-0.7967219352722168,0.24314594268798828,0.06303352117538452
1781678009825531600,0.64653173828125,-1.5734825134277344,0.29952335357666016,0.09957671165466309
1781678009874054400,0.695054443359375,-2.428051471710205,-0.5113892555236816,1.3387733697891235
1781678009922577200,0.7435771484375,0.1915283203125,1.0153899192810059,0.2676880657672882
1781678009971100000,0.792099853515625,0.6041584014892578,0.8204889297485352,-0.458684504032135
1781678010019622400,0.840622314453125,0.9938735961914062,0.3039994239807129,-0.3393523097038269
1781678010068145200,0.889145263671875,1.0293502807617188,0.10229301452636719,-0.29992756247520447
1781678010116668000,0.93766796875,0.6691217422485352,-0.028366565704345703,-0.0527094230055809
1781678010165190700,0.986190673828125,-0.08688926696777344,0.21285247802734375,0.7939761281013489
1781678010213713400,1.03471337890625,-0.3716249465942383,0.29200029373168945,0.2868591845035553
1781678010262236200,1.083236083984375,-0.1989879608154297,-0.017562389373779297,0.185387521982193
1781678010310758700,1.131758544921875,-0.056426048278808594,-0.16175603866577148,0.05682672560214996
1781678010359281400,1.180281494140625,0.37198448181152344,-0.07993268966674805,-0.04265958443284035
1781678010407804200,1.22880419921875,-0.054856300354003906,0.0648193359375,-0.1750282645225525
1781678010456327000,1.277326904296875,0.055609703063964844,0.10471916198730469,0.06872997432947159
1781678010504849700,1.325849609375,0.23536300659179688,0.03966474533081055,-0.022250622510910034
1781678010553372400,1.374372314453125,0.29338836669921875,-0.04392099380493164,-0.01911652833223343
1781678010601895200,1.422895263671875,0.11728858947753906,-0.002071857452392578,0.06594434380531311
1781678010650418000,1.47141796875,-0.16680240631103516,0.015033721923828125,-0.18495680391788483
1781678010698940400,1.5199404296875,-0.21982097625732422,0.08072757720947266,-0.5137462019920349
1781678010747463200,1.568463134765625,-0.14839839935302734,0.43314170837402344,-0.9562991857528687
1781678010795986000,1.61698583984375,-1.3203201293945312,-0.4962005615234375,-0.6014692783355713
1781678010844508700,1.6655087890625,-0.47895288467407227,-1.1937031745910645,-1.254266619682312
1781678010893031400,1.714031494140625,-3.206810235977173,-1.0784831047058105,-1.0739545822143555
1781678010941554200,1.76255419921875,-1.4621610641479492,-1.2307465076446533,-2.082508087158203
1781678011038599700,1.859599609375,-4.4620137214660645,-3.2820756435394287,-7.2838239669799805
1781678011087122200,1.9081220703125,-1.2516894340515137,-3.8189938068389893,-4.873201370239258
1781678011184167700,2.005167724609375,0.45857763290405273,-4.404819488525391,2.7585463523864746
1781678011232690400,2.0536904296875,4.866995811462402,-5.326323986053467,5.512866020202637
1781678011281213200,2.102213134765625,2.504422187805176,-4.9293012619018555,8.626340866088867
1781678011329736000,2.15073583984375,6.787583827972412,-2.1734824180603027,10.641519546508789
1781678011378258400,2.199258544921875,0.24902141094207764,0.7625789642333984,7.88523530960083
1781678011426781400,2.247781494140625,-0.640642523765564,0.7482538223266602,6.163600444793701
1781678011475304000,2.296303955078125,2.6041758060455322,-1.3288030624389648,-0.1083221435546875
1781678011523826700,2.34482666015625,2.96740984916687,-0.9222497940063477,3.3212730884552
1781678011572349400,2.393349365234375,1.3027329444885254,-0.9009294509887695,3.3615591526031494
1781678011652330000,2.473330078125,2.3871583938598633,-1.8500137329101562,1.3083381652832031
1781678011700852700,2.521852783203125,-0.5900921821594238,-0.33205604553222656,1.427283525466919
1781678011749375500,2.57037548828125,0.5160589218139648,-0.263092041015625,2.5666086673736572
1781678011797898200,2.618898193359375,1.4724245071411133,-1.2415504455566406,1.6188303232192993
1781678011846421000,2.6674208984375,-4.761528015136719,0.3941159248352051,4.146900653839111
1781678011894943500,2.715943603515625,-0.9906468391418457,2.0226387977600098,1.0173840522766113
1781678011943466200,2.76446630859375,-3.182474374771118,3.5239598751068115,-0.04327547550201416
1781678011991989000,2.812989013671875,-3.3496875762939453,6.503602981567383,1.859742283821106
1781678012089034500,2.910034423828125,0.5125303268432617,-0.014273643493652344,-0.2229417860507965
1781678012137557000,2.958556884765625,1.6719846725463867,1.118098258972168,-1.4490134716033936
1781678012186079700,3.007079833984375,-0.6881732940673828,3.02333402633667,-1.3422245979309082
1781678012234602500,3.0556025390625,1.4096851348876953,0.8443021774291992,-1.0170855522155762
1781678012283125200,3.104125244140625,-1.1204564571380615,1.4871878623962402,4.409242630004883
1781678012331648000,3.15264794921875,0.6364535093307495,-0.41512298583984375,-1.6354153156280518
1781678012380170800,3.201170654296875,-1.131921648979187,-1.7060537338256836,1.519113540649414
1781678012428693500,3.249693603515625,1.478337049484253,-13.708488464355469,1.8936359882354736
1781678012477216000,3.298216064453125,-0.26471853256225586,2.2360877990722656,-1.772646427154541
1781678012525739000,3.346739013671875,1.5352649688720703,0.9744396209716797,-0.0071250200271606445
1781678012574261500,3.395261474609375,-1.0825140476226807,-0.8418493270874023,1.3756932020187378
1781678012622784300,3.4437841796875,-0.9894765615463257,1.001739501953125,0.870042085647583
1781678012671307000,3.49230712890625,0.39444291591644287,1.4666748046875,-0.03628253936767578
1781678012719829800,3.540829833984375,-0.9238636493682861,-0.9707660675048828,0.4356623888015747
1781678012768352500,3.5893525390625,-0.6646077632904053,0.018851280212402344,1.645166277885437
1781678012816875300,3.637875244140625,-0.9481806755065918,-0.08921146392822266,1.1657836437225342
1781678012865398000,3.68639794921875,-0.9784862399101257,-0.6502552032470703,1.6653081178665161
1781678012913920500,3.73492041015625,-0.21870313584804535,1.3144006729125977,0.6225371360778809
1781678012962443300,3.783443359375,-0.9857857823371887,0.4249753952026367,0.24830877780914307
1781678013010966000,3.831966064453125,-0.711750328540802,1.8325080871582031,0.14057934284210205
1781678013059489000,3.880489013671875,-0.43914467096328735,-0.9429454803466797,0.821844220161438
1781678013108011500,3.929011474609375,-0.5038478374481201,-1.4430551528930664,0.24643611907958984
1781678013156534300,3.9775341796875,0.2999633550643921,-2.6615447998046875,-0.9101536273956299
1781678013205057000,4.02605712890625,1.1236891746520996,-1.0554733276367188,-1.0056582689285278
1781678013253579800,4.074579833984375,3.066103458404541,1.7775373458862305,-2.2654595375061035
1781678013302102500,4.1231025390625,2.481668472290039,0.7060518264770508,-1.643409252166748
1781678013350625300,4.171625244140625,0.5057892203330994,0.7253684997558594,-0.1008242592215538
1781678013399148000,4.22014794921875,-0.6650673151016235,-0.3603944778442383,0.6276455521583557
1781678013447670800,4.2686708984375,-1.1701828241348267,-0.6425018310546875,-0.16502472758293152
1781678013496193300,4.317193359375,0.34148892760276794,-0.07767009735107422,0.22716349363327026
1781678013593239000,4.414239013671875,-0.018393397331237793,-0.0019683837890625,0.20869961380958557
1781678013641761500,4.462761474609375,0.9813344478607178,0.4196910858154297,-0.16694612801074982
1781678013690284300,4.5112841796875,0.24645459651947021,0.5133609771728516,0.5024093389511108
1781678013738807000,4.55980712890625,-0.7956305146217346,-0.657740592956543,0.2127358615398407
1781678013787329800,4.608329833984375,-0.6075810790061951,-0.3238067626953125,-0.4632876217365265
1781678013835852500,4.6568525390625,0.9053493738174438,0.06996822357177734,0.37861281633377075
1781678013884375300,4.705375244140625,-0.3950924873352051,0.5037822723388672,-0.5973760485649109
1781678013932897800,4.753897705078125,-0.5986306071281433,-0.2584400177001953,0.537891149520874
1781678013981420800,4.8024208984375,-0.19392722845077515,-0.2968578338623047,0.3921562433242798
1781678014029943600,4.850943603515625,-0.08793467283248901,0.09423255920410156,-1.041042447090149
1781678014078466000,4.899466064453125,0.16605985164642334,0.5155210494995117,-0.4588169753551483
1781678014126988800,4.94798876953125,-0.19807827472686768,-0.017798423767089844,-0.8970394134521484
1781678014175511600,4.996511474609375,-0.45856600999832153,-0.3124675750732422,-0.5215969085693359
1781678014224034300,5.045034423828125,-0.42343759536743164,0.04949474334716797,-0.43306589126586914
1781678014272557000,5.09355712890625,-0.08653533458709717,0.030920982360839844,-0.23850809037685394
1781678014321079800,5.142079833984375,-0.27187496423721313,-0.010058403015136719,-0.0217498317360878
1781678014369602600,5.1906025390625,-0.2823554277420044,0.022531509399414062,0.4406210482120514
1781678014418125300,5.239125244140625,-0.18894028663635254,-0.12697410583496094,0.26343709230422974
1781678014466648000,5.28764794921875,-0.18495780229568481,-0.13842105865478516,-0.03986819088459015
1781678014515170800,5.3361708984375,-0.3655295968055725,0.09138298034667969,-0.42574477195739746
1781678014563693300,5.384693359375,0.04958081245422363,0.04660987854003906,-0.35828787088394165
1781678014612216300,5.43321630859375,0.005426347255706787,-0.04134845733642578,0.246118426322937
1781678014660738800,5.48173876953125,-0.06406599283218384,-0.11443519592285156,0.2532541751861572
1781678014709261600,5.530261474609375,-0.02681577205657959,-0.13484954833984375,0.12105916440486908
1781678014757784600,5.57878466796875,-0.004155158996582031,0.01369476318359375,-0.1014791876077652
1781678014806307000,5.62730712890625,-0.12150037288665771,0.043468475341796875,0.038190752267837524
1781678014854829600,5.67582958984375,-0.08064877986907959,0.13639259338378906,0.20377086102962494
1781678014903352600,5.7243525390625,-0.10791349411010742,-0.09130191802978516,-0.006744220852851868
1781678014951875300,5.772875244140625,-0.03126716613769531,0.09397602081298828,0.00604480504989624
1781678015000398000,5.821398193359375,-0.08853065967559814,-0.018468856811523438,0.03351512551307678
1781678015048920800,5.8699208984375,-0.03457605838775635,-0.061634063720703125,-0.021538585424423218
1781678015097443600,5.918443603515625,-0.09877967834472656,-0.057445526123046875,-0.0679074227809906
1781678015145966300,5.96696630859375,-0.05799758434295654,0.11145591735839844,-0.07562132179737091
1781678015243011600,6.064011474609375,0.03654909133911133,0.023115158081054688,0.007918387651443481
1781678015291534600,6.11253466796875,-0.04746508598327637,0.01268768310546875,-0.016724228858947754
1781678015340057300,6.161057373046875,-0.05604052543640137,0.04207134246826172,0.020523667335510254
1781678015388579800,6.209579833984375,-0.06617975234985352,-0.013520240783691406,0.012959867715835571
1781678015437102800,6.258102783203125,-0.06815040111541748,-0.004363059997558594,0.007795840501785278
1781678015485625300,6.306625244140625,-0.04135417938232422,-0.009709358215332031,-0.03195267915725708
1781678015534148000,6.355148193359375,0.012554168701171875,-0.027573585510253906,0.015894979238510132
1781678015582670800,6.4036708984375,-0.023313164710998535,-0.0055637359619140625,-0.019985735416412354
1781678015631193600,6.452193603515625,-0.01827526092529297,0.006531715393066406,0.005477607250213623
1781678015679716400,6.50071630859375,0.028812766075134277,-0.02410888671875,0.010890960693359375
1781678015728239000,6.549239013671875,-0.030102849006652832,0.0012884140014648438,-0.007312476634979248
1781678015776761600,6.59776171875,0.015700459480285645,0.010241508483886719,0.0390017032623291
1781678015825284600,6.64628466796875,0.018728256225585938,-0.011827468872070312,-0.017472416162490845
1781678015873807400,6.694807373046875,0.00489199161529541,-0.0032987594604492188,0.05425363779067993
1781678015922330000,6.743330078125,0.03089892864227295,0.0006437301635742188,-0.016100317239761353
1781678015970852900,6.791852783203125,0.014434814453125,-0.019713401794433594,0.00965377688407898
1781678016019375600,6.840375732421875,0.05607318878173828,-0.006541252136230469,-0.03483295440673828
1781678016116420900,6.9374208984375,0.05052196979522705,-0.010830879211425781,0.010790467262268066
1781678016164943600,6.985943603515625,0.018124699592590332,-0.013493537902832031,-0.005226701498031616
1781678016213466600,7.034466552734375,0.02121102809906006,-0.008578300476074219,-0.03983944654464722
1781678016261989000,7.082989013671875,0.010686635971069336,-0.005608558654785156,-0.06131833791732788
1781678016310511900,7.131511962890625,0.02297234535217285,-0.021300315856933594,-0.06899958848953247
1781678016407557400,7.228557373046875,0.0006071329116821289,0.0111236572265625,-0.013128459453582764
1781678016456080100,7.277080078125,0.0449371337890625,-0.023813247680664062,-0.01222333312034607
1781678016504602600,7.3256025390625,0.009794950485229492,-0.0026607513427734375,-0.011975884437561035
1781678016553125400,7.37412548828125,0.003183603286743164,0.0107574462890625,0.0038832426071166992
1781678016601648400,7.4226484375,0.0277712345123291,-0.007246971130371094,-0.03590738773345947
1781678016650171000,7.4711708984375,0.005410432815551758,-0.00366973876953125,0.02769637107849121
1781678016698693600,7.519693603515625,0.02191293239593506,0.005146980285644531,0.023704886436462402
1781678016747216600,7.568216552734375,0.0228426456451416,-0.010687828063964844,-0.0046236515045166016
1781678016844262000,7.665261962890625,0.045900583267211914,0.021051406860351562,0.020673692226409912
1781678016892784600,7.71378466796875,0.03031027317047119,-0.010704994201660156,0.020548850297927856
1781678016941307400,7.762307373046875,0.03908395767211914,-0.00025653839111328125,-0.01365441083908081
1781678016989830100,7.810830078125,0.030147671699523926,0.0045013427734375,-0.020829051733016968
1781678017038353000,7.859352783203125,0.03319668769836426,-0.013598442077636719,0.021567046642303467
1781678017086875400,7.90787548828125,-0.0033413171768188477,-0.007672309875488281,0.010027050971984863
1781678017135398400,7.9563984375,0.0300900936126709,-0.0015859603881835938,-0.020439445972442627
1781678017183921200,8.004921142578125,0.010005950927734375,-0.0110015869140625,-0.016428858041763306
1781678017232443600,8.053443603515625,0.023680448532104492,0.02923107147216797,0.026166856288909912
1781678017280966400,8.10196630859375,0.04083049297332764,-0.02294445037841797,0.02466830611228943
1781678017329489200,8.1504892578125,-0.0342555046081543,-0.021226882934570312,0.0010068118572235107
1781678017378012000,8.199011962890625,0.042612671852111816,0.02870655059814453,0.013741940259933472
1781678017426534700,8.24753466796875,0.019905924797058105,-0.019338607788085938,-0.03856721520423889
1781678017475057400,8.296057373046875,0.01832294464111328,-0.02135181427001953,0.03830307722091675
1781678017523580000,8.344579833984374,0.038507699966430664,0.021444320678710938,-0.016457021236419678
1781678017572103000,8.39310302734375,0.022173762321472168,-0.027564048767089844,-0.04282212257385254
1781678017620625700,8.441625732421874,0.048947811126708984,0.013209342956542969,0.01895877718925476
1781678017669148200,8.490148193359374,0.03103041648864746,-0.008481025695800781,-0.015671193599700928
1781678017717671000,8.5386708984375,0.009612560272216797,-0.0049896240234375,-0.0027942657470703125
1781678017766193700,8.587193603515624,0.0406491756439209,-0.006275177001953125,-0.011945486068725586
1781678017814716400,8.63571630859375,0.018152236938476562,0.010303497314453125,-0.0005984306335449219
1781678017863239200,8.6842392578125,0.018395304679870605,-0.008867263793945312,0.00952807068824768
1781678017911762000,8.732761962890624,0.06334030628204346,-0.012052536010742188,0.01670163869857788
1781678017960284400,8.781284423828126,0.016683101654052734,-0.0110321044921875,-0.012495070695877075
1781678018008807200,8.82980712890625,0.013405680656433105,-0.01503753662109375,-0.023651063442230225
1781678018057329700,8.87832958984375,0.04300498962402344,-0.0136871337890625,-0.0026303529739379883
1781678018105852700,8.926852783203126,0.029140710830688477,0.03337669372558594,-0.006834626197814941
1781678018154375400,8.97537548828125,0.026238679885864258,-0.02843189239501953,-0.011364221572875977
1781678018202898200,9.023898193359376,0.02597951889038086,-0.001529693603515625,0.0018315017223358154
1781678018251420700,9.072420654296875,0.009347677230834961,-0.0012197494506835938,-0.024612098932266235
1781678018299943400,9.120943359375,0.0045899152755737305,-0.017045974731445312,0.010519057512283325
1781678018348466200,9.169466064453125,0.05029094219207764,-0.002979278564453125,0.001728832721710205
1781678018396989000,9.217989013671875,0.042934536933898926,0.01958751678466797,0.010942041873931885
1781678018494034400,9.315034423828125,0.04298532009124756,-0.008863449096679688,0.019159168004989624
1781678018542557000,9.363556884765625,0.023415446281433105,-0.017667770385742188,-0.019897252321243286
1781678018591079700,9.41207958984375,0.048726558685302734,0.018178939819335938,0.012184381484985352
1781678018639602400,9.4606025390625,0.010769367218017578,-0.009854316711425781,-0.0032905936241149902
1781678018736648000,9.55764794921875,0.06238710880279541,0.0271453857421875,0.018469929695129395
1781678018785170400,9.60617041015625,0.21411943435668945,0.1429424285888672,-0.010433793067932129
1781678018833693200,9.654693115234375,0.39468252658843994,-0.13143348693847656,0.19484657049179077
1781678018930738400,9.751738525390625,0.3383159637451172,-0.046916961669921875,0.16237658262252808
1781678018979261200,9.80026123046875,0.4718603491783142,-0.005696296691894531,0.13211077451705933
1781678019027784000,9.848783935546875,0.5018262267112732,-0.03579998016357422,0.019545823335647583
1781678019076306700,9.897306640625,0.43650561571121216,0.116241455078125,0.25404825806617737
1781678019124829400,9.945829345703125,0.3474384546279907,0.37815093994140625,0.10707005858421326
1781678019173352200,9.994352294921875,0.203599214553833,0.8991308212280273,0.1345139741897583
1781678019221874700,10.042874755859375,-0.13877958059310913,0.9830236434936523,-0.20491133630275726
1781678019270397400,10.0913974609375,-0.35998642444610596,0.3115415573120117,0.046559423208236694
1781678019318920200,10.139920166015624,1.2235714197158813,-0.6277427673339844,2.2005012035369873
1781678019367442700,10.188442626953124,-1.6371073722839355,-3.290961265563965,1.9024500846862793
1781678019415965400,10.23696533203125,0.3647835850715637,-0.6039667129516602,1.7631566524505615
1781678019464488000,10.285488037109374,0.19898122549057007,0.3541831970214844,0.9061746597290039
1781678019513010700,10.3340107421875,0.9380802512168884,0.913661003112793,-0.012825250625610352
1781678019561533400,10.382533447265626,0.9226431846618652,0.769108772277832,-0.023465991020202637
1781678019610056200,10.43105615234375,0.8786877989768982,1.0217771530151367,0.1319066286087036
1781678019658579000,10.479578857421876,0.7672452330589294,0.5246953964233398,1.1809842586517334
1781678019707101700,10.528101806640626,1.6131707429885864,0.22880840301513672,2.0817832946777344
1781678019755624200,10.576624267578126,1.619282841682434,-1.8425874710083008,2.8718760013580322
1781678019804147000,10.62514697265625,0.4878019392490387,-4.26890754699707,1.1138402223587036
1781678019852669700,10.673669677734376,0.328875333070755,-2.8967933654785156,-0.9644593000411987
1781678019901192400,10.7221923828125,-0.5518214702606201,1.3928747177124023,1.1787047386169434
1781678019949715000,10.77071484375,-0.7326099872589111,1.9347586631774902,-0.3629484176635742
1781678019998237700,10.81923779296875,0.6819036602973938,-0.8359918594360352,-2.682645559310913
1781678020095283000,10.916282958984375,0.5508502721786499,2.1342697143554688,-0.7983961701393127
1781678020143805700,10.9648056640625,0.6713230609893799,2.000396728515625,-1.2994227409362793
1781678020192328400,11.013328369140625,0.5185632109642029,0.22598934173583984,1.8801419734954834
1781678020240851000,11.061850830078125,1.2689188718795776,0.7449274063110352,1.8401494026184082
1781678020289373700,11.110373779296875,2.3945138454437256,1.1821069717407227,1.300887107849121
1781678020337896200,11.158896240234375,2.907973289489746,-1.419997215270996,0.5382407307624817
1781678020386419000,11.2074189453125,1.29682195186615,-3.2584409713745117,0.6580498218536377
1781678020434941700,11.255941650390625,-2.1104848384857178,-1.8528318405151367,-0.4269837737083435
1781678020483464200,11.304464111328125,-4.095925331115723,1.1199045181274414,0.6316347122192383
1781678020531987000,11.352987060546875,-3.772188186645508,-3.576359748840332,-0.23875337839126587
1781678020580509400,11.401509521484375,-4.015427589416504,-3.2778186798095703,2.497659683227539
1781678020629032000,11.450031982421875,-0.4850928783416748,1.577728271484375,0.41978567838668823
1781678020677554700,11.4985546875,0.9675440788269043,1.123948097229004,-0.4734628200531006
1781678020726077400,11.547077392578124,-0.7263950705528259,2.4570465087890625,2.0763072967529297
1781678020774600000,11.595599853515624,2.056931972503662,4.981832027435303,0.9133673906326294
1781678020823122700,11.644122802734374,-0.18200314044952393,3.6594953536987305,1.4676402807235718
1781678020871645400,11.6926455078125,0.9733580946922302,-5.596663475036621,-1.187149167060852
1781678020920168000,11.74116796875,-1.960731029510498,-7.10978889465332,0.30056822299957275
1781678020968690700,11.789690673828124,-0.2145668864250183,-1.5569868087768555,-2.401721954345703
1781678021017213400,11.83821337890625,0.7113828063011169,-0.7931699752807617,-1.5344886779785156
1781678021065736000,11.88673583984375,1.5822408199310303,-1.2642040252685547,-4.228203773498535
1781678021114258700,11.9352587890625,0.9524800777435303,2.3530654907226562,-3.2693276405334473
1781678021162781200,11.98378125,-2.499068021774292,2.8338685035705566,-1.4547150135040283
1781678021211303700,12.0323037109375,1.6366603374481201,2.438541889190674,-0.28857892751693726
1781678021259826400,12.080826416015626,0.9399229288101196,1.5070276260375977,1.8727691173553467
1781678021308349200,12.12934912109375,2.9514644145965576,0.9243078231811523,1.98362135887146
1781678021356871700,12.17787158203125,4.945716381072998,-0.5028963088989258,0.6724742650985718
1781678021405394400,12.22639453125,2.483590602874756,-2.6926918029785156,1.0936753749847412
1781678021453917000,12.2749169921875,-0.4976552724838257,-2.3584890365600586,-2.709530830383301
1781678021502439700,12.323439697265625,-3.0407254695892334,3.6423869132995605,-0.40799465775489807
1781678021550962200,12.371962158203125,-6.53281831741333,-6.649164199829102,-0.03889402747154236
1781678021599484700,12.420484619140625,-2.6844756603240967,-6.656671524047852,0.12636247277259827
1781678021696530200,12.5175302734375,-0.2654796838760376,3.1735944747924805,0.2998899221420288
1781678021793575200,12.6145751953125,1.2740685939788818,4.285603046417236,-1.0747371912002563
1781678021842098000,12.663097900390625,-1.8706138134002686,0.38312721252441406,2.0805015563964844
1781678021890620400,12.711620361328125,2.652125358581543,-5.313382148742676,1.0155643224716187
1781678021939143200,12.76014306640625,-3.5112504959106445,-7.315418243408203,2.7322134971618652
1781678021987666000,12.808666015625,-2.296315908432007,-0.9398136138916016,-4.100871562957764
1781678022036188400,12.8571884765625,0.11752541363239288,-0.3365049362182617,-0.793648898601532
1781678022084711000,12.9057109375,-1.2804750204086304,-2.2770280838012695,-4.874845027923584
1781678022133233700,12.954233642578124,1.220516562461853,3.0486159324645996,-4.0906548500061035
1781678022181756200,13.002756103515624,-1.5541025400161743,2.3804774284362793,-2.3296263217926025
1781678022230278700,13.051278564453124,3.0571513175964355,2.323859691619873,-0.9780562520027161
1781678022278801400,13.099801513671874,1.9243415594100952,3.067845344543457,5.067348957061768
1781678022327324000,13.148323974609376,1.7332062721252441,0.9222583770751953,3.032470941543579
1781678022375846700,13.1968466796875,2.5896079540252686,-1.8119125366210938,3.073265790939331
1781678022424369200,13.245369140625,0.49084603786468506,-1.7900667190551758,2.5297608375549316
1781678022472891600,13.2938916015625,-3.120237350463867,-0.7361230850219727,-0.8460667133331299
1781678022521414400,13.342414306640626,-4.746398448944092,-2.2405948638916016,-2.832388401031494
1781678022569937200,13.390937255859376,-4.830729007720947,-7.56173038482666,1.3431435823440552
1781678022618459600,13.439459716796875,-1.9579212665557861,0.5202522277832031,5.049087047576904
1781678022666982100,13.487982177734375,0.8943397998809814,1.669997215270996,0.9850641489028931
1781678022715504600,13.536504638671875,-0.395532488822937,2.496267318725586,-1.3179876804351807
1781678022764027100,13.585027099609375,0.5612431168556213,5.053891181945801,0.5539149641990662
1781678022812550000,13.6335498046875,1.710254430770874,6.340871334075928,2.819258451461792
1781678022861072400,13.682072265625,-3.933698892593384,-2.7352237701416016,1.7890276908874512
1781678022909595100,13.73059521484375,4.54791259765625,-3.84841251373291,0.9883383512496948
1781678022958117600,13.77911767578125,-6.507228374481201,-5.764330863952637,2.5212934017181396
1781678023006640000,13.82764013671875,-1.048521876335144,-2.506863594055176,-3.6343631744384766
1781678023055162600,13.87616259765625,-1.5250778198242188,-0.032283782958984375,-0.27947261929512024
1781678023103685400,13.924685302734375,-0.4251455068588257,-1.9447717666625977,-6.273041725158691
1781678023152208000,13.973207763671875,1.521181344985962,2.55056095123291,-3.2777554988861084
1781678023200730400,14.02173046875,-0.023694276809692383,1.7564077377319336,-2.9420557022094727
1781678023249253000,14.070253173828124,4.722867012023926,1.7985191345214844,1.2959284782409668
1781678023297775600,14.118775634765624,1.0984184741973877,1.7810540199279785,7.08905553817749
1781678023346298000,14.167298095703124,2.6173219680786133,0.2519645690917969,3.0833849906921387
1781678023443343000,14.264343017578126,1.085636019706726,-2.133479118347168,3.4045841693878174
1781678023491865900,14.312865966796876,-2.710503339767456,-0.8188180923461914,-0.3445560932159424
1781678023540388400,14.361388427734376,-4.619687080383301,-1.450770378112793,-1.9307365417480469
1781678023588910800,14.409910888671876,-4.346669673919678,-6.781075477600098,-0.23962503671646118
1781678023637433300,14.458433349609376,-3.9209377765655518,-0.29221630096435547,4.8391523361206055
1781678023685956000,14.5069560546875,3.2662415504455566,3.218785285949707,1.1987991333007812
1781678023734478600,14.555478515625,-0.4834553003311157,2.797450542449951,-0.31889358162879944
1781678023783001000,14.6040009765625,0.15979480743408203,3.960536003112793,0.2893155813217163
1781678023831523800,14.65252392578125,3.1443324089050293,5.896589279174805,0.7957643270492554
1781678023880046300,14.70104638671875,-3.0634682178497314,-4.262178421020508,0.5253720879554749
1781678023928568600,14.749568603515625,3.925595283508301,-4.144305229187012,1.7573381662368774
1781678023977091300,14.79809130859375,-5.326550006866455,-7.79202938079834,-0.17306295037269592
1781678024025613800,14.84661376953125,-0.7556946277618408,0.9613504409790039,-0.6995019316673279
1781678024074136600,14.895136474609375,-0.5800367593765259,-0.8639583587646484,-3.213439702987671
1781678024122659000,14.9436591796875,0.4296969771385193,0.10768985748291016,-4.639971733093262
1781678024171181600,14.992181640625,1.5240389108657837,3.501969814300537,-0.5777168273925781
1781678024219704000,15.0407041015625,-0.36150622367858887,3.141524314880371,-1.6003330945968628
1781678024268226600,15.0892265625,2.078591823577881,2.3522472381591797,1.0799381732940674
1781678024316749000,15.1377490234375,2.305079460144043,1.986358642578125,3.9008634090423584
1781678024365271800,15.186271728515624,1.807875156402588,-1.2437019348144531,2.760633707046509
1781678024413794000,15.2347939453125,2.438742160797119,-3.357396125793457,2.611304759979248
1781678024462316800,15.28331689453125,-0.5708454251289368,-2.8845605850219727,0.2713024914264679
1781678024510839300,15.33183935546875,-2.445721387863159,0.9172487258911133,-1.8004919290542603
1781678024607884300,15.42888427734375,-4.855748176574707,-6.725897789001465,2.6273038387298584
1781678024656406800,15.47740673828125,-0.23152214288711548,1.9395570755004883,4.366595268249512
1781678024704929300,15.52592919921875,1.1293737888336182,3.3443455696105957,-0.9447510242462158
1781678024753451800,15.57445166015625,0.7176598906517029,3.533771514892578,-3.014214515686035
1781678024801974500,15.622974609375,1.3793134689331055,4.583209991455078,-1.1003202199935913
1781678024850496800,15.671496826171875,-1.0110890865325928,1.6682243347167969,1.0375256538391113
1781678024899019300,15.720019287109375,3.7917587757110596,-5.629308700561523,-0.8752639293670654
1781678024947542000,15.7685419921875,-2.404717445373535,-5.146757125854492,3.390557289123535
1781678024996064300,15.817064208984375,-1.5895135402679443,-3.89847469329834,-3.8669536113739014
1781678025044587000,15.8655869140625,-0.7800004482269287,-0.9124279022216797,-0.8312156200408936
1781678025093109500,15.914109619140625,0.9171419143676758,-0.14477252960205078,-4.848852157592773
1781678025141631700,15.9626318359375,2.763981342315674,3.6707749366760254,-2.6487865447998047
1781678025190154200,16.011154296875,-1.8033820390701294,3.94580078125,-0.16162067651748657
1781678025238677000,16.059677001953126,0.21732556819915771,1.786057472229004,-1.1522935628890991
1781678025287199500,16.108199462890624,2.2005929946899414,3.284661293029785,0.851718544960022
1781678025335722000,16.156721923828126,2.7411859035491943,0.24070358276367188,2.4415900707244873
1781678025432766700,16.2537666015625,1.5474852323532104,-4.744026184082031,0.9427971839904785
1781678025481289500,16.30228955078125,-1.4606235027313232,-1.2226295471191406,-1.9998422861099243
1781678025529811700,16.350811767578126,-3.1488380432128906,2.8572540283203125,-0.8082138299942017
1781678025578334500,16.39933447265625,-4.032506465911865,-7.147282600402832,-3.01452374458313
1781678025626856700,16.447856689453126,-4.298483848571777,-4.459941864013672,4.540849208831787
1781678025675379200,16.496379150390624,2.641052007675171,2.750408172607422,2.535983085632324
1781678025723901700,16.544901611328125,-0.3335970938205719,3.893958568572998,-2.742435932159424
1781678025772424200,16.593424072265623,0.9212766885757446,5.1179046630859375,-2.3392457962036133
1781678025820946400,16.641946533203125,2.4517574310302734,5.697951793670654,-1.2023961544036865
1781678025869469200,16.69046923828125,-2.660335063934326,-3.1365509033203125,0.5839283466339111
1781678025917991700,16.73899169921875,5.395988941192627,-4.39412784576416,1.9104734659194946
1781678025966514200,16.78751416015625,-3.2425897121429443,-5.705099105834961,3.216676712036133
1781678026015036700,16.83603662109375,-0.8055776953697205,-2.4090147018432617,-3.8786916732788086
1781678026063559200,16.88455908203125,-0.39433860778808594,-1.0480852127075195,-2.2569899559020996
1781678026160604200,16.981604248046875,1.35964834690094,3.6994800567626953,-3.9955296516418457
1781678026209126400,17.03012646484375,-1.8760154247283936,3.063082218170166,-3.3367342948913574
1781678026257649200,17.078649169921874,2.2168896198272705,1.296687126159668,0.11774513125419617
1781678026306171600,17.127171630859376,2.7620906829833984,3.0833582878112793,3.8258283138275146
1781678026354694000,17.17569384765625,2.249176025390625,1.7584514617919922,3.34425687789917
1781678026403216400,17.22421630859375,3.5289714336395264,-4.010469436645508,1.8356857299804688
1781678026451739000,17.27273876953125,1.910308837890625,-3.5414276123046875,2.2063426971435547
1781678026500261400,17.321261474609376,-1.7422914505004883,-0.6127300262451172,-1.482426643371582
1781678026548783900,17.369783935546874,-3.24851131439209,1.183791160583496,-2.7242801189422607
1781678026597306400,17.418306396484375,-3.984855890274048,-8.025856018066406,-3.99350643157959
1781678026645828600,17.46682861328125,-3.69710111618042,-1.1240568161010742,4.702668190002441
1781678026694351000,17.51535107421875,2.8020193576812744,3.121652603149414,1.6502145528793335
1781678026742873600,17.56387353515625,-0.2158273607492447,3.3870348930358887,-3.043177604675293
1781678026791396000,17.61239599609375,0.9599413275718689,4.330905437469482,-3.304579734802246
1781678026839918600,17.660918701171877,2.399899482727051,5.642848014831543,0.32152867317199707
1781678026888441000,17.709441162109375,-2.332578182220459,-3.134688377380371,1.225759744644165
1781678026936963300,17.75796337890625,3.6331746578216553,-6.300820350646973,1.3171958923339844
1781678026985485800,17.80648583984375,-2.054645538330078,-6.4056806564331055,1.6911742687225342
1781678027034008300,17.85500830078125,-0.243658185005188,0.16793060302734375,-1.977203130722046
1781678027082530800,17.90353076171875,-0.24954843521118164,-0.34434986114501953,-1.3767812252044678
1781678027131053300,17.95205322265625,1.0466585159301758,-0.012910842895507812,-4.824605941772461
1781678027179575800,18.000575927734374,1.8311067819595337,3.3296127319335938,-1.9689322710037231
1781678027228098000,18.04909814453125,-1.5482689142227173,3.4689693450927734,-1.2207434177398682
1781678027276620500,18.09762060546875,1.5325859785079956,1.979200839996338,-0.1076895073056221
1781678027325143000,18.14614306640625,2.063621759414673,2.042154312133789,2.6527936458587646
1781678027373665300,18.194665283203125,3.2064950466156006,0.014677047729492188,2.608654737472534
1781678027422187800,18.243187744140624,3.766040802001953,-2.8193235397338867,1.617840051651001
1781678027470710300,18.291710205078125,1.680325984954834,-3.4900693893432617,0.7668049335479736
1781678027519232800,18.340232666015623,-2.028690814971924,-0.0419464111328125,-1.5923235416412354
1781678027567755000,18.388755126953125,-3.547297954559326,-0.26743602752685547,-2.085880994796753
1781678027616277500,18.437277587890627,-4.742378234863281,-7.890805244445801,-1.878899335861206
1781678027664800000,18.485800048828125,-2.936286211013794,-0.08292579650878906,4.523144721984863
1781678027761844700,18.5828447265625,-0.05863577127456665,3.3356552124023438,-2.7211928367614746
1781678027810367500,18.631367431640626,0.753921627998352,4.276191711425781,-1.8246657848358154
1781678027858889700,18.6798896484375,1.7291027307510376,5.8367085456848145,0.546072244644165
1781678027907412200,18.728412109375,-0.22390665113925934,-5.133784294128418,0.1952914595603943
1781678027955934500,18.7769345703125,1.1689248085021973,-5.597861289978027,2.3329458236694336
1781678028004457000,18.82545703125,-1.5439027547836304,-6.474050521850586,-1.5383449792861938
1781678028052979500,18.8739794921875,-0.3122209310531616,2.2739453315734863,-0.5088843703269958
1781678028101502000,18.922501953125,0.45121055841445923,-1.3997011184692383,-3.7125866413116455
1781678028150024200,18.971024169921876,1.3278077840805054,1.225606918334961,-3.2855300903320312
1781678028198546700,19.019546630859374,0.27152371406555176,2.343486785888672,-1.2480460405349731
1781678028247069200,19.068069091796875,0.13351941108703613,2.8639798164367676,-1.565043568611145
1781678028295591400,19.11659130859375,1.1120169162750244,2.516763687133789,1.6737658977508545
1781678028344114000,19.165114013671875,1.8745194673538208,1.4282035827636719,2.0496697425842285
1781678028392636400,19.213636474609373,4.563168525695801,0.7676219940185547,1.9074082374572754
1781678028441158700,19.26215869140625,4.102643013000488,-2.6838321685791016,1.5285853147506714
1781678028489681200,19.31068115234375,0.719116747379303,-4.451854705810547,-0.9851934909820557
1781678028538203600,19.35920361328125,-2.9976253509521484,0.4503316879272461,-1.1562246084213257
1781678028586726000,19.407725830078125,-3.0768086910247803,0.7931041717529297,-1.9866894483566284
1781678028635248400,19.456248291015626,-3.3072361946105957,-6.9318132400512695,-0.4020383656024933
1781678028683770600,19.5047705078125,-3.785946846008301,-1.7145586013793945,3.6791956424713135
1781678028732292900,19.55329296875,1.9160337448120117,2.369396686553955,0.7186206579208374
1781678028780815400,19.6018154296875,-0.36578458547592163,3.3693137168884277,-2.541675090789795
1781678028829337900,19.650337890625,0.799810528755188,4.083522319793701,-1.9285595417022705
1781678028877860000,19.698860107421876,2.7189524173736572,6.35688591003418,0.42397505044937134
1781678028926382600,19.747382568359374,-2.699979305267334,-5.10502815246582,0.9505597352981567
1781678028974904800,19.79590478515625,3.7070720195770264,-4.87612247467041,2.440337896347046
1781678029023427300,19.84442724609375,-2.0721728801727295,-6.043883323669434,1.1966700553894043
1781678029071949800,19.89294970703125,-0.21899282932281494,0.6394338607788086,-1.6564311981201172
1781678029120472300,19.941472412109373,-1.093791127204895,-0.048004150390625,-2.584423065185547
1781678029217517000,20.03851708984375,2.4369378089904785,2.9843945503234863,-1.5991041660308838
1781678029314561500,20.1355615234375,0.9888026118278503,2.004678726196289,0.6414483189582825
1781678029363084000,20.184083984375,2.2588515281677246,2.0914573669433594,2.288607597351074
1781678029411606500,20.2326064453125,3.246070146560669,1.1321697235107422,3.3469207286834717
1781678029460128800,20.281128662109374,2.9326133728027344,-2.4684391021728516,2.2137880325317383
1781678029508651300,20.3296513671875,1.7044379711151123,-4.321807861328125,2.4750499725341797
1781678029557173800,20.378173828125,-1.301914930343628,-1.1015119552612305,-1.8175673484802246
1781678029605696000,20.426696044921876,-2.4877798557281494,2.612881660461426,-1.7097742557525635
1781678029654218200,20.47521826171875,-3.1582605838775635,-3.635870933532715,-3.757234811782837
1781678029702740700,20.52374072265625,-4.237793922424316,-4.494503974914551,4.689779758453369
1781678029751263000,20.572262939453125,1.3269755840301514,2.4918994903564453,3.284938335418701
1781678029799785500,20.620785400390623,0.9339823722839355,2.5372815132141113,-3.0740463733673096
1781678029848308000,20.669307861328125,0.7707006335258484,3.674985885620117,-2.1242237091064453
1781678029896830000,20.717829833984375,2.4968738555908203,4.758206367492676,-0.625623881816864
1781678029945352400,20.7663525390625,-2.156400442123413,-0.7697267532348633,1.5516999959945679
1781678029993875000,20.814875,3.529611349105835,-5.078845977783203,0.43321025371551514
1781678030042397200,20.863397216796876,-0.4626791477203369,-5.432802200317383,3.396920680999756
1781678030090919400,20.91191943359375,-1.56756591796875,-2.30926513671875,-2.1361186504364014
1781678030139442000,20.96044189453125,-0.2737058401107788,1.2062511444091797,-1.144945502281189
1781678030187964200,21.008964111328126,0.44293779134750366,-0.5870561599731445,-4.518892765045166
1781678030236486700,21.057486572265624,3.3587517738342285,1.9928359985351562,-2.330092191696167
1781678030285009000,21.1060087890625,-2.377451181411743,2.518460750579834,-0.41619035601615906
1781678030333531100,21.15453125,0.7847565412521362,2.337630271911621,-1.4213485717773438
1781678030382053600,21.2030537109375,2.056135892868042,2.2516002655029297,1.2301877737045288
1781678030430576000,21.251576171875,3.331995964050293,0.8540859222412109,3.593662738800049
1781678030479098400,21.300098388671874,3.421175718307495,-1.9296073913574219,1.950095534324646
1781678030527620600,21.34862060546875,1.8458218574523926,-5.16310977935791,2.3388850688934326
1781678030576142800,21.397142822265625,0.06220400333404541,-1.2803659439086914,-1.4237339496612549
1781678030624665300,21.445665283203127,-1.6366462707519531,4.799649238586426,-1.7296135425567627
1781678030673187800,21.494187744140625,-2.6832098960876465,-4.415175437927246,-3.884051561355591
1781678030721710000,21.5427099609375,-5.133681297302246,-5.729288101196289,2.8909878730773926
1781678030770232300,21.591232421875,0.6632438898086548,2.314189910888672,3.228394031524658
1781678030818754800,21.6397548828125,1.106078028678894,3.1306967735290527,-1.1097221374511719
1781678030915799300,21.73679931640625,1.9562397003173828,3.8521952629089355,-0.5717209577560425
1781678030964321800,21.78532177734375,-0.07408033311367035,-0.961979866027832,1.0897728204727173
1781678031012844300,21.83384423828125,2.8219411373138428,-5.272733688354492,0.5977053642272949
1781678031061366300,21.8823662109375,-1.1604762077331543,-5.7873430252075195,1.1120833158493042
1781678031109888800,21.930888671875,-0.07322090864181519,0.3283414840698242,-1.00575590133667
1781678031158411300,21.979411376953124,0.3857778310775757,-1.200796127319336,-2.640200138092041
1781678031206933500,22.02793359375,1.0459468364715576,0.21438121795654297,-5.030052661895752
1781678031255455700,22.076455810546875,2.227146863937378,3.0243043899536133,-1.2186198234558105
1781678031303978200,22.124978271484373,-1.3961412906646729,1.7701349258422852,0.2609879970550537
1781678031352500500,22.17350048828125,1.0705699920654297,1.8673458099365234,0.6596636772155762
1781678031401022700,22.222022705078125,2.7904505729675293,2.1514945030212402,1.3292161226272583
1781678031449545200,22.270545166015626,4.298381328582764,1.9437780380249023,0.7134920954704285
1781678031498067200,22.319067138671876,3.9615516662597656,-2.776540756225586,-0.19811809062957764
1781678031546589700,22.367589599609374,1.2542611360549927,-3.3337345123291016,-0.9665557742118835
1781678031595112000,22.41611181640625,-0.8714330196380615,0.9933691024780273,-1.4768801927566528
1781678031692156700,22.51315673828125,-4.152991771697998,-7.758344650268555,2.0454354286193848
1781678031740679000,22.561678955078126,-0.978017270565033,0.4817695617675781,4.201080799102783
1781678031789201200,22.610201171875,2.7997114658355713,2.32254695892334,-1.6854270696640015
1781678031837723400,22.658723388671874,1.2582991123199463,3.5798349380493164,-3.5979437828063965
1781678031886246000,22.707245849609375,0.8366546630859375,4.739147663116455,-3.124389410018921
1781678031934768000,22.75576806640625,1.7523388862609863,3.411141872406006,-0.40247905254364014
1781678031983290600,22.80429052734375,-0.7261247634887695,-5.56392765045166,-0.14153456687927246
1781678032031812900,22.852812744140625,4.147640705108643,-3.0128231048583984,5.292870998382568
1781678032080335000,22.901335205078126,-1.8868908882141113,-4.355561256408691,-0.024486541748046875
1781678032128857300,22.949857421875,0.9028381109237671,-0.015679359436035156,-2.7703795433044434
1781678032177379600,22.998379638671874,-0.06642293930053711,0.3844490051269531,-0.9352761507034302
1781678032225901800,23.04690185546875,1.6243793964385986,-1.5549297332763672,-5.071317195892334
1781678032274424300,23.09542431640625,3.4805736541748047,2.5767383575439453,-1.6149159669876099
1781678032322946600,23.143946533203124,-4.852383136749268,0.9487752914428711,-0.14059725403785706
1781678032371468800,23.19246875,2.193463087081909,1.1795120239257812,0.0744023323059082
1781678032419991300,23.2409912109375,2.1040492057800293,3.4059200286865234,0.4907888174057007
1781678032517035800,23.338035888671875,3.954191207885742,-3.4126977920532227,4.113900184631348
1781678032565558000,23.38655810546875,1.2187426090240479,-2.9003238677978516,0.5894476175308228
1781678032614080500,23.43508056640625,-0.6600567102432251,-0.12186622619628906,-2.7440590858459473
1781678032662602500,23.4836025390625,-2.9430267810821533,-1.503835678100586,-3.1607046127319336
1781678032711125000,23.532125,-3.6550371646881104,-6.521960258483887,0.6120126247406006
1781678032759647200,23.580647216796876,-2.9222681522369385,-0.017511367797851562,3.972515821456909
1781678032808169500,23.62916943359375,1.2180591821670532,2.5884146690368652,-0.16880273818969727
1781678032856691700,23.677691650390624,1.2391663789749146,3.081817626953125,-3.369007110595703
1781678032905214200,23.726214111328126,1.3050497770309448,4.392735481262207,-2.890443801879883
1781678032953736200,23.774736083984376,0.8744399547576904,4.04663610458374,0.7714238166809082
1781678033002258700,23.8232587890625,1.7731103897094727,-5.2263031005859375,-1.5425174236297607
1781678033050781000,23.871781005859376,2.446291446685791,-3.080887794494629,5.11987829208374
1781678033099303200,23.92030322265625,-4.879258155822754,-5.844082832336426,-1.5321738719940186
1781678033147825400,23.968825439453123,-0.15661495923995972,0.3733253479003906,-1.5840787887573242
1781678033196348000,24.017347900390625,-0.09663248062133789,-1.4163713455200195,-4.296203136444092
1781678033244870100,24.0658701171875,1.9800865650177002,2.0220675468444824,-4.111384868621826
1781678033293392400,24.114392333984377,-1.24605131149292,3.220003604888916,0.7063239216804504
1781678033341914600,24.16291455078125,-1.2310410737991333,0.9778327941894531,-1.3831008672714233
1781678033390436600,24.2114365234375,1.6829603910446167,2.6328020095825195,0.9376981258392334
1781678033438959000,24.259958984375,2.747544288635254,2.833275318145752,1.2538704872131348
1781678033487481300,24.3084814453125,4.164117813110352,-0.4250040054321289,1.867280125617981
1781678033536003600,24.357003662109374,1.6729495525360107,-4.779458999633789,2.98193097114563
1781678033584525800,24.40552587890625,0.8397535085678101,-3.709878921508789,0.4766082167625427
1781678033633048000,24.454048095703126,-1.9372351169586182,2.050873279571533,-1.6104795932769775
1781678033681570300,24.5025703125,-2.6806955337524414,0.5749435424804688,-3.194870948791504
1781678033730092800,24.5510927734375,-4.491041660308838,-7.133013725280762,-0.37941670417785645
1781678033778615000,24.599614990234375,-2.3424649238586426,-0.08915138244628906,5.357828140258789
1781678033827137300,24.64813720703125,1.3471183776855469,3.2356605529785156,0.21594977378845215
1781678033875659500,24.696659423828127,0.2991142272949219,3.7120513916015625,-3.085423707962036
1781678033924181800,24.745181640625,1.2168296575546265,5.218516826629639,-1.9305853843688965
1781678033972704000,24.7937041015625,0.8148021697998047,4.376270294189453,1.5916253328323364
1781678034069748500,24.89074853515625,1.9127650260925293,-4.384079933166504,4.002981662750244
1781678034118270700,24.939270751953124,-2.1662635803222656,-5.140462875366211,-1.6668319702148438
1781678034166793000,24.98779296875,-0.5471238493919373,1.2569656372070312,-0.719687819480896
1781678034215315200,25.036315185546876,0.08281636238098145,-0.8420867919921875,-4.520456314086914
1781678034263837400,25.08483740234375,1.9630606174468994,1.862142562866211,-4.517323970794678
1781678034312360000,25.13335986328125,-0.045610010623931885,3.3983840942382812,0.9051637649536133
1781678034360882000,25.1818818359375,-0.23750746250152588,2.1769814491271973,-0.9074509143829346
1781678034409404200,25.230404052734375,0.5810509324073792,1.8366107940673828,2.28594970703125
1781678034457926400,25.278926513671873,2.057873249053955,1.642141342163086,3.1758131980895996
1781678034506448600,25.32744873046875,3.9077091217041016,-0.16236209869384766,1.1583287715911865
1781678034554971000,25.375970947265625,2.763730525970459,-3.8965721130371094,0.9698325991630554
1781678034603493000,25.4244931640625,1.2259957790374756,-3.820882797241211,0.7888756394386292
1781678034652015400,25.473015380859376,-1.7075406312942505,1.2120723724365234,-0.7686665058135986
1781678034700537600,25.52153759765625,-3.4738855361938477,1.4303693771362305,-2.6138992309570312
1781678034749059800,25.570059814453124,-4.552277088165283,-6.850180625915527,-2.717151165008545
1781678034797582000,25.61858203125,-3.5114712715148926,-1.346095085144043,4.685681343078613
1781678034846104300,25.667104248046876,1.5727622509002686,3.5015292167663574,1.5619202852249146
1781678034894626600,25.71562646484375,0.2988535761833191,3.5461268424987793,-2.752393960952759
1781678034943148800,25.764148681640624,0.9411855936050415,4.590243339538574,-2.1512563228607178
1781678034991670800,25.8126708984375,1.483641266822815,5.113790988922119,1.1898220777511597
1781678035040193300,25.861193359375,-2.4382753372192383,-7.679815292358398,1.2085347175598145
1781678035088715500,25.909715576171877,2.3421597480773926,-4.139795303344727,4.590976715087891
1781678035137237800,25.95823779296875,-2.011626958847046,-5.991039276123047,-1.609863519668579
1781678035185760000,26.006760009765625,-0.5931978225708008,1.5428028106689453,-0.8336405754089355
1781678035234282200,26.0552822265625,0.023755431175231934,-0.7666397094726562,-2.3881618976593018
1781678035282804200,26.10380419921875,2.061412811279297,1.1509990692138672,-4.208829879760742
1781678035331326700,26.15232666015625,-0.22566354274749756,3.3612060546875,-1.5530706644058228
1781678035379848700,26.2008486328125,-1.0018494129180908,3.4634766578674316,-2.0548787117004395
1781678035428371000,26.249370849609374,0.6908955574035645,1.7698850631713867,1.4071954488754272
1781678035476893200,26.29789306640625,2.533029556274414,1.208740234375,2.4796364307403564
1781678035525415400,26.34641552734375,2.277947187423706,0.9995784759521484,3.4551515579223633
1781678035573937700,26.394937744140623,3.440232753753662,-3.3276147842407227,-0.048242680728435516
1781678035670982000,26.49198193359375,-1.2064099311828613,-0.14858055114746094,0.4679472744464874
1781678035719504400,26.54050439453125,-3.6914169788360596,1.4198713302612305,-0.39515942335128784
1781678035768026600,26.589026611328126,-3.771479368209839,-4.487699508666992,-3.561147928237915
1781678035816548600,26.637548583984376,-3.969771385192871,-2.768996238708496,3.869610548019409
1781678035865070800,26.68607080078125,1.976837158203125,2.5786805152893066,2.736494541168213
1781678035913593000,26.734593017578124,-0.33449143171310425,3.2334890365600586,-1.4000340700149536
1781678035962115300,26.783115234375,1.0713053941726685,4.735599040985107,-2.589508295059204
1781678036010637600,26.831637451171876,1.9760420322418213,6.127974033355713,-0.35004523396492004
1781678036059159800,26.880159912109374,-2.0792579650878906,-2.749932289123535,2.5529866218566895
1781678036107681800,26.928681884765624,2.314406394958496,-7.009592056274414,0.45768991112709045
1781678036156204000,26.9772041015625,-3.6686668395996094,-7.227167129516602,2.3184022903442383
1781678036204726000,27.02572607421875,-0.3860093653202057,1.7850160598754883,-1.124121904373169
1781678036253248300,27.074248291015625,-0.6673625707626343,-1.180699348449707,-1.9743068218231201
1781678036301770500,27.1227705078125,0.30407655239105225,-0.3032712936401367,-5.277762413024902
1781678036350292700,27.171292724609376,0.8960741758346558,2.344611167907715,-1.1147363185882568
1781678036398815000,27.21981494140625,-1.159010410308838,2.891397476196289,-1.3926547765731812
1781678036447337200,27.268337158203124,1.6384594440460205,2.880107879638672,-0.39078837633132935
1781678036495859500,27.316859375,1.2851523160934448,1.9250788688659668,1.5667223930358887
1781678036544381400,27.36538134765625,3.0586869716644287,1.6743507385253906,2.7437217235565186
1781678036592903700,27.413903564453125,4.426751613616943,-2.764484405517578,3.54716157913208
1781678036641426000,27.462426025390624,1.1807719469070435,-3.857569694519043,1.3128591775894165
1781678036689948200,27.5109482421875,-2.68752121925354,0.5239028930664062,-0.06173965334892273
1781678036738470100,27.55947021484375,-3.8571925163269043,0.042992591857910156,-1.278374195098877
1781678036786992400,27.607992431640625,-5.233019828796387,-9.677698135375977,-1.1354304552078247
1781678036835514600,27.6565146484375,-2.6208105087280273,-0.08212471008300781,4.627665996551514
1781678036884036900,27.705036865234376,1.3732625246047974,4.107043743133545,3.2482059001922607
1781678036932558800,27.753558837890626,-0.2621461749076843,4.068561553955078,-2.343256950378418
1781678036981081300,27.802081298828124,2.0261387825012207,5.165205001831055,-2.627655506134033
1781678037029603300,27.850603271484374,-0.2725849151611328,4.3486647605896,1.5631258487701416
1781678037078125600,27.89912548828125,-0.8819812536239624,-7.175806045532227,-0.29705706238746643
1781678037175169800,27.996169677734375,-4.032132148742676,-6.035215377807617,0.6388357877731323
1781678037223692000,28.044692138671873,0.059855252504348755,1.4505195617675781,-2.293118476867676
1781678037272214300,28.09321435546875,-0.8297845721244812,-0.1445150375366211,-2.221900463104248
1781678037320736300,28.141736328125,0.767309308052063,-0.24158859252929688,-4.519406318664551
1781678037369258500,28.190258544921875,0.9183292984962463,2.608316421508789,-0.21022547781467438
1781678037417780700,28.23878076171875,-1.1087419986724854,2.2779722213745117,-2.015577554702759
1781678037466303000,28.287302978515626,1.789772868156433,2.1257572174072266,-0.16443179547786713
1781678037514825200,28.3358251953125,2.751690149307251,2.8800930976867676,3.2321126461029053
1781678037563347200,28.38434716796875,2.6497225761413574,1.2671394348144531,4.187362194061279
1781678037611869200,28.432869140625,2.4016568660736084,-3.901477813720703,2.614816427230835
1781678037660391400,28.481391357421874,1.6510460376739502,-3.0721702575683594,1.721398115158081
1781678037708913700,28.52991357421875,-1.2625360488891602,0.8889284133911133,-0.768865704536438
1781678037757436000,28.578435791015625,-3.0774669647216797,0.9241514205932617,-2.6271069049835205
1781678037805958100,28.626958251953123,-4.877735137939453,-9.583990097045898,-2.856743812561035
1781678037854480100,28.675480224609377,-2.8569693565368652,-0.6401557922363281,4.327284336090088
1781678037903002000,28.724002197265627,1.5743408203125,3.680307388305664,4.111911773681641
1781678037951524400,28.7725244140625,0.5243328213691711,4.3273773193359375,-3.6391286849975586
1781678038000046600,28.821046630859374,1.3569179773330688,3.3373498916625977,-3.1350255012512207
1781678038048568600,28.869568603515624,0.8690058588981628,4.217015266418457,0.8731161952018738
1781678038097090800,28.9180908203125,-0.7354278564453125,-5.814284324645996,0.23283910751342773
1781678038145612800,28.96661279296875,4.374809741973877,-4.069235801696777,4.080758094787598
1781678038194135000,29.015135009765626,-3.8964247703552246,-6.148200988769531,0.154954195022583
1781678038242657300,29.0636572265625,0.6218627691268921,1.2311716079711914,-1.0181152820587158
1781678038291179500,29.112179443359373,0.08834242820739746,-0.1865692138671875,-1.696577548980713
1781678038339701500,29.160701416015623,1.661682367324829,0.8482351303100586,-5.012485980987549
1781678038388223700,29.2092236328125,0.05626869201660156,3.4801697731018066,-1.9223672151565552
1781678038485268000,29.30626806640625,1.2074202299118042,1.7441139221191406,1.027869701385498
1781678038533790000,29.3547900390625,2.5393013954162598,0.9625740051269531,2.6358447074890137
1781678038582312200,29.403312255859376,3.831812858581543,0.8918142318725586,2.5421206951141357
1781678038630834400,29.45183447265625,3.9463651180267334,-1.932133674621582,1.2597856521606445
1781678038679356400,29.5003564453125,1.0185860395431519,-5.066854476928711,-1.3102246522903442
1781678038727878700,29.548878662109374,-3.739772319793701,1.6277780532836914,0.4359859824180603
1781678038776400600,29.597400634765624,-4.467177867889404,-1.040884017944336,-2.2310380935668945
1781678038824923000,29.6459228515625,-3.6663174629211426,-8.440683364868164,-0.6523983478546143
1781678038873444900,29.69444482421875,-1.419050693511963,1.4487762451171875,4.824862003326416
1781678038921967000,29.742967041015625,1.736436367034912,3.493453025817871,2.602539300918579
1781678038970489000,29.791489013671875,0.5884252786636353,3.6077756881713867,-4.052167892456055
1781678039019011300,29.84001123046875,2.3102340698242188,5.154787063598633,-3.2179555892944336
1781678039067533300,29.888533203125,-0.018572747707366943,3.7838358879089355,1.053384780883789
1781678039116055600,29.9370556640625,0.1780252456665039,-7.0076189041137695,-0.6432866454124451
1781678039164577800,29.985577880859374,4.274293899536133,-3.5665950775146484,4.459798336029053
1781678039213099800,30.034099853515624,-5.468582630157471,-5.6118268966674805,1.2058799266815186
1781678039261622000,30.0826220703125,0.8960166573524475,0.5072908401489258,-3.2789015769958496
1781678039310144000,30.13114404296875,-0.8605040907859802,-0.10753345489501953,-2.2687671184539795
1781678039358666200,30.179666259765625,1.7662549018859863,0.5877246856689453,-5.204280376434326
1781678039407188200,30.228188232421875,0.7695876359939575,3.5068883895874023,0.5059768557548523
1781678039455710500,30.27671044921875,-1.558736801147461,1.9201898574829102,-0.8890456557273865
1781678039504232700,30.325232666015626,2.4882736206054688,1.621429443359375,0.21874584257602692
1781678039552754700,30.373754638671876,2.465632200241089,2.78084659576416,3.876508951187134
1781678039601277000,30.42227685546875,5.028924942016602,-0.15531635284423828,2.274387836456299
1781678039698321200,30.519321044921874,-0.21370196342468262,-3.4949655532836914,0.37810665369033813
1781678039746843100,30.567843017578124,-3.164227247238159,1.5540618896484375,-1.5850830078125
1781678039795365000,30.616365234375,-2.870732307434082,-1.4787139892578125,-4.8109636306762695
1781678039843887000,30.66488720703125,-5.453711032867432,-8.01537799835205,1.933439016342163
1781678039892409300,30.713409423828125,-1.4897487163543701,1.7289323806762695,3.701430320739746
1781678039940931300,30.761931396484375,2.4013705253601074,4.431855201721191,0.30900418758392334
1781678039989453600,30.81045361328125,0.28512048721313477,4.4000725746154785,-2.537301778793335
1781678040037975600,30.8589755859375,1.4154272079467773,4.856057167053223,-1.515194296836853
1781678040086497800,30.907497802734376,-0.41320520639419556,2.0309958457946777,1.5975494384765625
1781678040135019800,30.956019775390626,0.5033649206161499,-8.54564094543457,1.25374436378479
1781678040183542000,31.0045419921875,1.9541637897491455,-2.774815559387207,6.569856643676758
1781678040232064000,31.05306396484375,-2.5527055263519287,-5.06687068939209,-3.892472267150879
1781678040280586000,31.1015859375,0.8554630279541016,2.5579004287719727,-1.589174509048462
1781678040329108200,31.150108154296873,0.17678183317184448,-1.0930070877075195,-2.9329748153686523
1781678040377630200,31.198630126953127,1.949866771697998,1.0786752700805664,-4.305166244506836
1781678040426152400,31.24715234375,-0.35030853748321533,2.7713327407836914,1.3824721574783325
1781678040474674400,31.29567431640625,-0.38108301162719727,1.788640022277832,-0.9246407747268677
1781678040523196700,31.34419677734375,2.3125500679016113,2.38681697845459,0.9756237268447876
1781678040571718700,31.39271875,3.0062317848205566,2.926445960998535,1.8628394603729248
1781678040620241000,31.441240966796876,4.765092372894287,0.02228546142578125,1.6251178979873657
1781678040668763000,31.489762939453126,2.9879870414733887,-3.4709644317626953,1.4863700866699219
1781678040717284900,31.538284912109376,-0.9289320111274719,-2.906643867492676,-0.21955561637878418
1781678040765806800,31.586806884765625,-4.096940040588379,0.5639982223510742,-0.02664712257683277
1781678040814329000,31.6353291015625,-4.2098307609558105,-6.860910415649414,-3.6029438972473145
1781678040862851000,31.68385107421875,-4.022896766662598,-4.168674468994141,2.1621336936950684
1781678040911373000,31.732373046875,0.2877076268196106,2.950298309326172,4.679160118103027
1781678040959895300,31.780895263671876,1.0087621212005615,4.067431449890137,0.02776622772216797
1781678041008417300,31.829417236328126,1.2527086734771729,4.4839067459106445,-3.718698501586914
1781678041056939300,31.877939208984376,1.9055800437927246,6.278909206390381,-0.8917475938796997
1781678041105461500,31.92646142578125,-2.70768141746521,-2.5073604583740234,1.863872766494751
1781678041153983500,31.9749833984375,4.41865348815918,-6.077481269836426,1.0134639739990234
1781678041251027500,32.07202734375,-1.0860458612442017,-1.7133026123046875,-3.173532485961914
1781678041299549700,32.1205498046875,-0.3326016068458557,-0.3427314758300781,-3.2846622467041016
1781678041348072000,32.169072021484375,0.4447346329689026,-0.6031064987182617,-5.003663539886475
1781678041396594000,32.21759399414063,2.1327598094940186,2.7706923484802246,-1.1154658794403076
1781678041445116000,32.266115966796875,-0.909591794013977,3.552711009979248,-0.6582446098327637
1781678041493638000,32.31463793945313,1.4759656190872192,2.482306480407715,-0.9021455645561218
1781678041542160000,32.363159912109374,3.029536247253418,2.5598583221435547,3.5758752822875977
1781678041590682000,32.41168212890625,2.497328758239746,0.9673833847045898,3.5900521278381348
1781678041639204000,32.4602041015625,3.7172255516052246,-3.192981719970703,2.0130090713500977
1781678041687726000,32.50872607421875,1.744720220565796,-4.384130477905273,2.5565927028656006
1781678041736248300,32.557248291015625,-0.8423928618431091,-1.1070270538330078,-0.9629403352737427
1781678041784770300,32.60577026367187,-3.330775260925293,2.849684238433838,-2.6714329719543457
1781678041833292300,32.654292236328125,-3.288907527923584,-5.810184478759766,-3.453700542449951
1781678041881814300,32.70281420898438,-3.9480321407318115,-3.909745216369629,3.2696518898010254
1781678041930336500,32.75133642578125,1.422539472579956,2.8242616653442383,3.63424015045166
1781678041978858500,32.7998583984375,0.46860966086387634,4.226503372192383,-1.082676649093628
1781678042027380500,32.84838037109375,1.9179413318634033,5.210930347442627,-3.422974109649658
1781678042075902700,32.89690283203125,1.9172546863555908,5.28171968460083,-0.6648027300834656
1781678042124424700,32.9454248046875,-1.8074278831481934,-4.446209907531738,1.1011780500411987
1781678042172946400,32.99394653320312,5.038813591003418,-5.006747245788574,3.078798770904541
1781678042221468700,33.04246875,-2.4373629093170166,-5.669355392456055,1.9860177040100098
1781678042269990700,33.09099072265625,0.17121922969818115,0.7041378021240234,-1.7735929489135742
1781678042318513000,33.13951293945313,-0.6004399061203003,-1.0622196197509766,-2.694730281829834
1781678042367035000,33.18803491210937,0.2273157238960266,-0.06280136108398438,-4.796055793762207
1781678042415556900,33.236556884765626,1.2773370742797852,2.6025915145874023,-1.939788579940796
1781678042464078800,33.28507885742187,-0.6908584833145142,2.576045036315918,-1.1631135940551758
1781678042512601000,33.33360107421875,0.561467170715332,2.451406478881836,-0.1046457290649414
1781678042561123000,33.382123046875,3.574174404144287,3.8225655555725098,1.902301549911499
1781678042609645000,33.43064501953125,3.5890793800354004,1.1844968795776367,2.7890191078186035
1781678042658167000,33.4791669921875,4.48701286315918,-4.549171447753906,1.7662285566329956
1781678042706689000,33.52768896484375,2.020395278930664,-4.472500801086426,0.9744181632995605
1781678042755211300,33.57621118164062,-3.0856456756591797,0.5216608047485352,0.7232682108879089
1781678042852255200,33.67325512695312,-4.327095985412598,-8.207746505737305,-0.5485065579414368
1781678042900777200,33.721777099609376,-2.6957576274871826,-0.053241729736328125,3.829498529434204
1781678042949299200,33.77029931640625,2.0172677040100098,3.7972936630249023,2.532181739807129
1781678042997821200,33.8188212890625,0.7764623761177063,4.222586154937744,-2.5680880546569824
1781678043046343200,33.86734326171875,1.3890161514282227,5.244556427001953,-2.7927753925323486
1781678043094865400,33.91586547851563,1.1251006126403809,5.382978916168213,0.3220805525779724
1781678043143387400,33.96438745117187,-1.6607667207717896,-7.847602844238281,-0.6498072147369385
1781678043191909400,34.01290942382813,3.822469472885132,-3.515194892883301,4.979021072387695
1781678043240431400,34.06143139648437,-2.0766971111297607,-6.331508636474609,0.3570587635040283
1781678043288953300,34.10995336914063,0.14739841222763062,0.24338245391845703,-2.5247912406921387
1781678043337475300,34.15847534179687,-0.34293854236602783,-0.20021724700927734,-2.634066343307495
1781678043385997600,34.20699755859375,0.7911650538444519,0.34360599517822266,-4.429427146911621
1781678043434519300,34.25551928710937,1.4092193841934204,3.3772549629211426,0.1868196725845337
1781678043483041300,34.304041259765626,-0.9680038690567017,3.01180362701416,-1.4232958555221558
1781678043531563300,34.35256323242187,2.239875316619873,1.8335824012756348,0.05800054967403412
1781678043580085500,34.40108544921875,2.8604307174682617,2.3007073402404785,2.8748536109924316
1781678043628607500,34.449607421875,4.042104721069336,0.8144912719726562,2.1710662841796875
1781678043677129500,34.49812939453125,3.4397287368774414,-3.842259407043457,2.6046266555786133
1781678043725651500,34.5466513671875,0.47285139560699463,-4.554449081420898,0.40426701307296753
1781678043774173400,34.59517333984375,-2.753674030303955,0.9466457366943359,-0.97451251745224
1781678043822695400,34.6436953125,-3.466458797454834,-1.2319574356079102,-4.277411460876465
1781678043871217400,34.692217529296876,-3.164149522781372,-5.6594343185424805,0.32415735721588135
1781678043919739400,34.74073950195312,-1.853344440460205,0.8293418884277344,4.175158500671387
1781678043968261600,34.78926171875,1.9699623584747314,2.792860507965088,1.1698250770568848
1781678044016783400,34.83778344726562,0.6449160575866699,3.1054043769836426,-2.7815918922424316
1781678044065305300,34.886305419921875,1.8430408239364624,4.791774272918701,-1.5811430215835571
1781678044113827300,34.93482739257813,-0.5721219778060913,3.8783249855041504,1.6366549730300903
1781678044162349600,34.983349609375,1.251179575920105,-4.756101608276367,-0.8763231635093689
1781678044210871300,35.03187133789063,2.9329004287719727,-3.7361297607421875,3.7123842239379883
1781678044259393500,35.0803935546875,-4.9205145835876465,-7.6992692947387695,-0.3478485941886902
1781678044307915500,35.12891552734375,0.961034893989563,1.1124143600463867,-2.7142982482910156
1781678044356437500,35.1774375,-1.319408893585205,-0.7758569717407227,-4.2418107986450195
1781678044453481500,35.2744814453125,-0.534093976020813,2.9937591552734375,0.9841083288192749
1781678044502003500,35.32300341796875,-0.2561424970626831,1.9795160293579102,-0.950007438659668
1781678044550525400,35.371525390625,2.597813844680786,2.173100471496582,0.6243788599967957
1781678044599047400,35.42004736328125,2.671499729156494,1.842844009399414,3.6196725368499756
1781678044647569400,35.4685693359375,3.792062282562256,-0.7570610046386719,3.2624289989471436
1781678044744613000,35.56561303710937,0.7056765556335449,-3.3005542755126953,0.4537757933139801
1781678044793135400,35.61413525390625,-2.6578569412231445,1.6119155883789062,-1.9027321338653564
1781678044841657300,35.6626572265625,-2.8338327407836914,-3.168074607849121,-5.402202129364014
1781678044890179300,35.71117944335938,-4.9857892990112305,-6.179612159729004,2.643501043319702
1781678044938701300,35.75970141601562,-0.2949787974357605,2.373356342315674,3.481083393096924
1781678044987223300,35.80822338867188,1.7629430294036865,4.110000133514404,0.5526360273361206
1781678045035745300,35.85674536132812,0.9425843358039856,4.5216217041015625,-2.7461459636688232
1781678045084267300,35.905267333984376,2.4609215259552,4.933629989624023,-1.681886911392212
1781678045132789200,35.95378930664062,-2.524010181427002,0.014429092407226562,2.4584808349609375
1781678045181311200,36.002311279296876,3.078429698944092,-6.828238487243652,1.1839468479156494
1781678045229833200,36.05083325195312,-0.839168906211853,-5.6088457107543945,3.9484524726867676
1781678045278355000,36.09935498046875,-0.26254695653915405,-2.6846752166748047,-4.189615726470947
1781678045326877200,36.14787719726562,0.12354648113250732,1.2575883865356445,-1.5384361743927002
1781678045375399000,36.19639892578125,0.7615931034088135,-1.474940299987793,-5.363909721374512
1781678045423921000,36.2449208984375,2.447038173675537,3.061617851257324,-3.271955728530884
1781678045472443100,36.293443115234375,-1.8366087675094604,2.268056869506836,1.5965704917907715
1781678045520964900,36.34196484375,1.0799593925476074,1.4411392211914062,-0.3267773687839508
1781678045618008800,36.4390087890625,3.3210294246673584,2.2263875007629395,0.7688390016555786
1781678045666530800,36.48753076171875,5.722857475280762,-1.0374069213867188,1.1720061302185059
1781678045715052500,36.536052490234376,2.273792028427124,-4.0583295822143555,2.485328435897827
1781678045763574800,36.58457470703125,-1.384577989578247,-1.2348785400390625,-0.008985579013824463
1781678045812096800,36.6330966796875,-3.2343714237213135,1.8879547119140625,-1.458765983581543
1781678045860618800,36.68161865234375,-3.4014761447906494,-7.536028861999512,-2.5860729217529297
1781678045909140700,36.730140625,-4.438360214233398,-4.481019020080566,3.200075149536133
1781678045957662500,36.77866235351563,2.2858564853668213,4.310199737548828,3.367482900619507
1781678046054706400,36.87570654296875,1.8578294515609741,4.325381278991699,-4.233853340148926
1781678046103228400,36.924228515625,1.5695995092391968,5.220720291137695,-0.745464026927948
1781678046151750400,36.97275048828125,-1.8917090892791748,-3.291468620300293,1.807051658630371
1781678046200272400,37.0212724609375,4.976395606994629,-5.536594390869141,1.9684072732925415
1781678046248794000,37.06979418945313,-1.2590861320495605,-3.2857494354248047,3.620586633682251
1781678046297316400,37.11831640625,-2.763315439224243,-4.063723564147949,-2.7916417121887207
1781678046345838000,37.16683813476563,0.008411407470703125,0.3415842056274414,-3.3416240215301514
1781678046394360000,37.21536010742187,0.5889174342155457,0.08304023742675781,-4.3457350730896
1781678046442882000,37.263882080078126,1.6628146171569824,3.3157787322998047,-1.8543199300765991
1781678046491404000,37.31240405273437,-0.7325730323791504,2.6763339042663574,-0.621695876121521
1781678046539926000,37.360926025390626,1.4547712802886963,1.0171022415161133,-0.16832774877548218
1781678046588447700,37.40944775390625,3.1495041847229004,3.0361781120300293,3.181873083114624
1781678046636969700,37.4579697265625,3.3328723907470703,1.028416633605957,2.3747591972351074
1781678046685491700,37.50649169921875,3.929286003112793,-3.0797672271728516,2.9712209701538086
1781678046734013700,37.555013671875,1.8991656303405762,-3.939314842224121,1.3668327331542969
1781678046782535700,37.60353564453125,-2.342043399810791,0.22295856475830078,-0.9520265460014343
1781678046831057700,37.6520576171875,-3.1692605018615723,0.9278717041015625,-3.0357582569122314
1781678046879579600,37.70057958984375,-3.476702928543091,-8.319873809814453,-1.1711632013320923
1781678046928101400,37.74910131835937,-3.2289440631866455,-1.0172348022460938,4.149495601654053
1781678046976623400,37.797623291015626,2.0041582584381104,3.7544479370117188,3.163796901702881
1781678047025145300,37.84614526367187,0.7831599712371826,4.814929008483887,-2.102802276611328
1781678047122189000,37.94318896484375,1.4909701347351074,4.239585876464844,-0.6556503176689148
1781678047170711000,37.9917109375,-0.7934550046920776,-5.90169620513916,1.1159238815307617
1781678047219233000,38.04023291015625,1.5533556938171387,-6.193887710571289,2.8983609676361084
1781678047267755000,38.088755126953124,-2.279947519302368,-6.18516731262207,0.3529798984527588
1781678047316277000,38.13727709960938,-0.056386351585388184,2.2121739387512207,-1.2033511400222778
1781678047364799000,38.185799072265624,0.3873290419578552,-1.8430147171020508,-4.556684970855713
1781678047413320700,38.23432080078125,1.6265764236450195,2.251756191253662,-4.478703022003174
1781678047461842700,38.2828427734375,-0.23929476737976074,3.4462738037109375,0.5934514999389648
1781678047510364700,38.33136474609375,0.8335387110710144,2.3860530853271484,-1.1665757894515991
1781678047607408600,38.42840869140625,2.870530605316162,1.5947561264038086,3.7594151496887207
1781678047655930400,38.47693041992188,4.932247161865234,-0.6629734039306641,1.3485143184661865
1781678047752974000,38.57397412109375,0.46647268533706665,-2.2369632720947266,-0.20355448126792908
1781678047801496000,38.62249609375,-2.6931867599487305,2.314426898956299,-1.095960259437561
1781678047850017800,38.671017822265625,-4.299822807312012,-5.969971656799316,-2.9737749099731445
1781678047898540000,38.7195400390625,-4.600127696990967,-5.462488174438477,2.5107595920562744
1781678047947061800,38.768061767578125,1.8971701860427856,2.654116630554199,3.2832584381103516
1781678047995583700,38.81658374023438,0.15368500351905823,3.7769031524658203,0.04929959774017334
1781678048044105700,38.865105712890625,1.436282753944397,4.495857238769531,-3.7967629432678223
1781678048092627500,38.91362744140625,1.7520489692687988,4.968537330627441,-1.2226731777191162
1781678048141149700,38.962149658203124,-1.8596739768981934,0.13983440399169922,1.5378060340881348
1781678048189671400,39.01067138671875,4.411460876464844,-6.229323387145996,0.10629260540008545
1781678048238193400,39.059193359375,-1.406442642211914,-6.191849708557129,3.747739791870117
1781678048286715100,39.107715087890625,-2.156064033508301,-2.4730405807495117,-2.1182126998901367
1781678048335237000,39.15623706054687,0.59859299659729,2.0652236938476562,-1.8193931579589844
1781678048383758800,39.2047587890625,0.35115331411361694,-1.8582124710083008,-3.747873306274414
1781678048432280800,39.25328076171875,1.812049388885498,2.689281463623047,-1.4086118936538696
1781678048529324800,39.35032470703125,1.8265631198883057,2.020246982574463,-0.871448814868927
1781678048577846800,39.3988466796875,2.510906934738159,3.0440735816955566,1.554410457611084
1781678048626368500,39.447368408203126,3.289459705352783,1.4406776428222656,2.2116880416870117
1781678048674890500,39.49589038085937,4.922950744628906,-1.7797012329101562,1.254384160041809
1781678048723412200,39.544412109375,2.085094451904297,-4.265861511230469,1.3633460998535156
1781678048771934200,39.59293432617188,-1.5872870683670044,-0.22227191925048828,-0.5362142324447632
1781678048820456000,39.6414560546875,-3.2654194831848145,2.1412181854248047,-1.4252433776855469
1781678048868978000,39.68997802734375,-4.6072869300842285,-10.009835243225098,-1.499422311782837
1781678048917500000,39.7385,-3.461088180541992,-2.027139663696289,2.956770420074463
1781678048966022000,39.78702197265625,1.9720990657806396,4.141573905944824,3.213233470916748
1781678049014544000,39.8355439453125,0.03663405776023865,3.760103702545166,-1.270944356918335
1781678049063065600,39.884065673828125,1.823725938796997,4.543166160583496,-3.385054349899292
1781678049111587600,39.93258764648437,2.4007205963134766,5.630107879638672,-0.26767802238464355
1781678049160109300,39.981109375,-1.6517058610916138,-3.7107410430908203,2.7468936443328857
1781678049257153000,40.07815307617187,-3.2409982681274414,-5.716057777404785,3.8504695892333984
1781678049305675000,40.126675048828126,-0.18199455738067627,-3.1379127502441406,-5.488557815551758
1781678049354196700,40.17519677734375,0.2950892448425293,1.0344114303588867,-1.7763636112213135
1781678049451240400,40.27224047851563,1.5998704433441162,4.017661094665527,-1.3134160041809082
1781678049499762700,40.3207626953125,-1.3064197301864624,2.6226859092712402,-0.8160539269447327
1781678049548284400,40.36928442382813,2.5608153343200684,2.276473045349121,-0.3771098852157593
1781678049596806400,40.41780639648437,2.510430335998535,2.3427085876464844,4.033686637878418
1781678049645328400,40.466328369140626,4.6204986572265625,-0.4690666198730469,1.0803253650665283
1781678049693850000,40.51485009765625,4.064564228057861,-3.376119613647461,2.687221050262451
1781678049742372000,40.5633720703125,0.10632157325744629,-3.587932586669922,1.0440688133239746
1781678049790893800,40.61189379882813,-3.4027152061462402,1.1465587615966797,-0.8937413692474365
1781678049839415800,40.660415771484374,-3.6735525131225586,-3.8925580978393555,-4.249873161315918
1781678049887937500,40.7089375,-4.561441898345947,-6.620176315307617,2.8301806449890137
1781678049936459500,40.75745947265625,0.1931336224079132,2.195636749267578,3.8065757751464844
1781678049984981200,40.805981201171875,0.8769568800926208,4.005865573883057,0.7443236112594604
1781678050033503200,40.85450317382813,1.0350178480148315,4.6219635009765625,-2.9588699340820312
1781678050082025200,40.903025146484374,1.9807605743408203,5.498452663421631,-1.8922545909881592
1781678050130547000,40.951546875,-0.020376741886138916,2.730151653289795,1.0335566997528076
1781678050179068700,41.00006860351562,1.721221923828125,-8.033225059509277,0.6130695343017578
1781678050227590700,41.048590576171875,0.04988643527030945,-2.353640556335449,4.812249183654785
1781678050276112600,41.09711254882812,-4.214438438415527,-8.816683769226074,-2.749067783355713
1781678050324634400,41.14563427734375,1.795058012008667,1.9730119705200195,-4.092978477478027
1781678050373156400,41.19415625,-0.6585900187492371,-1.1511306762695312,-4.671390533447266
1781678050421678000,41.24267797851562,2.1122140884399414,2.4108381271362305,-3.2577788829803467
1781678050470200000,41.291199951171876,-1.2027121782302856,2.4480371475219727,0.6240721940994263
1781678050518721800,41.3397216796875,1.265847086906433,2.262073040008545,-1.6845746040344238
1781678050567243800,41.388243896484376,4.186515808105469,4.622786521911621,3.6747727394104004
1781678050615765500,41.436765625,1.7898582220077515,1.0849676132202148,3.2213644981384277
1781678050712809500,41.5338095703125,2.1561641693115234,-3.7318506240844727,5.126648902893066
1781678050809853200,41.630853271484376,-2.3838109970092773,3.332141876220703,-3.4506113529205322
1781678050858375000,41.679375,-3.2497148513793945,-6.934739112854004,-3.294104814529419
1781678050906897000,41.72789697265625,-5.239336967468262,-5.80440616607666,4.107824802398682
1781678050955418600,41.77641870117188,1.7842764854431152,3.2220048904418945,3.7683305740356445
1781678051003940600,41.824940673828124,0.8773452043533325,4.166347503662109,-0.8054382801055908
1781678051052462300,41.87346240234375,1.562751054763794,5.0162034034729,-3.506147861480713
1781678051100984300,41.921984375,2.514218330383301,5.192010879516602,-2.1345791816711426
1781678051149506000,41.970506103515625,-1.9940009117126465,-1.6360273361206055,1.4038630723953247
1781678051198028000,42.01902807617188,3.508784294128418,-6.316807746887207,1.9254910945892334
1781678051246549800,42.0675498046875,-1.1068283319473267,-6.738160133361816,2.300797462463379
1781678051295071500,42.116071533203126,-1.671116590499878,-1.4145708084106445,-2.6975436210632324
1781678051343593500,42.16459350585937,0.5331242084503174,1.324915885925293,-1.3733839988708496
1781678051392115200,42.213115234375,0.2482185959815979,-1.6418933868408203,-5.063014984130859
1781678051440637200,42.26163720703125,1.7494032382965088,3.092752456665039,-0.8035944700241089
1781678051537681000,42.35868090820313,0.8913732171058655,2.1508827209472656,-0.2164861261844635
1781678051586202600,42.40720263671875,2.7308597564697266,3.2185144424438477,1.5391435623168945
1781678051634724600,42.455724609375,3.494384288787842,0.38990211486816406,2.594796895980835
1781678051683246300,42.50424633789063,4.153853416442871,-2.039584159851074,1.2558138370513916
1781678051731768300,42.552768310546874,1.1486506462097168,-4.11430549621582,2.9448928833007812
1781678051780290000,42.6012900390625,-1.4575115442276,-0.7312984466552734,-1.5004602670669556
1781678051828811800,42.64981176757812,-2.3622703552246094,1.4538002014160156,-2.5706727504730225
1781678051877333800,42.698333740234375,-3.662989616394043,-7.375883102416992,-2.4710569381713867
1781678051925855500,42.74685546875,-3.5860891342163086,-1.5648279190063477,3.5355329513549805
1781678051974377200,42.79537719726562,1.6308753490447998,3.7638726234436035,2.5301103591918945
1781678052022899200,42.843899169921876,0.34809553623199463,4.276480674743652,-1.814383625984192
1781678052071421200,42.89242114257812,2.055220365524292,4.393971920013428,-2.43849778175354
1781678052119943000,42.94094287109375,1.061100721359253,3.6359853744506836,0.5074271559715271
1781678052168465000,42.98946484375,-0.3109018802642822,-4.531932830810547,1.8808081150054932
1781678052216986600,43.03798657226562,3.1422266960144043,-3.8922605514526367,2.6580514907836914
1781678052265508400,43.08650830078125,-2.932610511779785,-6.879512786865234,-0.4191552996635437
1781678052362552000,43.183552001953124,-0.1910533905029297,-0.6024131774902344,-2.6522860527038574
1781678052411073800,43.23207373046875,1.604896068572998,0.8404102325439453,-4.256888389587402
1781678052459595800,43.280595703125,-0.157362699508667,2.6833128929138184,0.502322793006897
1781678052508117800,43.32911767578125,-0.18742406368255615,2.2598772048950195,-1.0215520858764648
1781678052556639200,43.37763916015625,1.4445427656173706,2.8562240600585938,-0.23318402469158173
1781678052605161200,43.4261611328125,3.7724571228027344,2.632483959197998,1.9791991710662842
1781678052653683000,43.47468286132813,4.114787578582764,-0.35730743408203125,2.11330246925354
1781678052702205000,43.52320483398437,2.9307703971862793,-4.021860122680664,2.981247663497925
1781678052750726700,43.5717265625,-0.3442283868789673,-3.015627861022949,0.8346455097198486
1781678052799248600,43.62024853515625,-3.7613096237182617,0.3824625015258789,-2.055539846420288
1781678052847770400,43.668770263671874,-2.9701592922210693,-3.184432029724121,-4.301752090454102
1781678052896292000,43.7172919921875,-5.944996356964111,-6.972618103027344,3.393228054046631
1781678052944813800,43.76581372070312,1.438124418258667,2.573772430419922,3.7632009983062744
1781678052993335800,43.814335693359375,0.8562719821929932,4.046972751617432,0.24085092544555664
1781678053041857500,43.862857421875,0.7734206914901733,4.939331531524658,-2.2040722370147705
1781678053090379300,43.91137915039062,2.466391086578369,5.827206611633301,-1.0085889101028442
1781678053138901200,43.9599013671875,-1.0871882438659668,1.339888572692871,1.423843264579773
1781678053187423000,44.00842309570312,2.165053606033325,-8.09115219116211,0.8078812956809998
1781678053235945000,44.056945068359376,-1.240470051765442,-5.598593711853027,4.332547187805176
1781678053284466700,44.105466796875,-1.178148865699768,-3.1536407470703125,-3.4936022758483887
1781678053332988400,44.15398852539062,-0.6964441537857056,0.9074897766113281,-1.436841368675232
1781678053381510100,44.20251025390625,0.08060199022293091,-2.043543815612793,-5.077351093292236
1781678053430032100,44.2510322265625,2.5151267051696777,3.1514649391174316,-2.8449742794036865
1781678053478553900,44.299553955078125,-0.817266583442688,2.672956943511963,0.5619127154350281
1781678053527075800,44.34807592773438,1.1139559745788574,2.383500576019287,-0.3472849130630493
1781678053575597600,44.39659765625,1.8261733055114746,3.0581469535827637,1.1352863311767578
1781678053624119300,44.445119384765626,4.100765705108643,1.3373708724975586,3.2387712001800537
1781678053672641000,44.49364111328125,4.623251438140869,-0.0380401611328125,1.1582247018814087
1781678053721163000,44.5421630859375,2.3317148685455322,-4.97568416595459,1.7328909635543823
1781678053818206500,44.63920654296875,-3.3977468013763428,3.665699005126953,-0.6251584887504578
1781678053866728400,44.687728515625,-3.9036402702331543,-5.103610038757324,-2.699742555618286
1781678053915250200,44.73625024414063,-3.9562699794769287,-7.9669694900512695,2.1381189823150635
1781678053963772200,44.784772216796874,1.2794556617736816,1.8355426788330078,3.6176671981811523
1781678054012293600,44.833293701171876,0.8835737109184265,3.7434144020080566,0.22156155109405518
1781678054060815600,44.88181567382812,1.055565595626831,4.912990570068359,-3.6519289016723633
1781678054109337300,44.93033740234375,2.0772006511688232,5.737135887145996,-1.9054358005523682
1781678054157859300,44.978859375,-0.9482890367507935,1.6211137771606445,0.6488393545150757
1781678054206381000,45.02738110351562,3.4861559867858887,-7.07388973236084,1.4375123977661133
1781678054254902800,45.07590283203125,-0.5407542586326599,-3.9913415908813477,4.419544219970703
1781678054303424500,45.12442456054688,-2.520994186401367,-5.62779426574707,-2.927136182785034
1781678054351946200,45.1729462890625,0.08242565393447876,1.7156314849853516,-2.121631622314453
1781678054400468200,45.22146826171875,0.47435909509658813,-1.3286705017089844,-3.6700074672698975
1781678054448990000,45.26998999023437,1.7102046012878418,2.027205467224121,-2.147960901260376
1781678054497511700,45.31851171875,-1.0384190082550049,2.796666145324707,0.9279200434684753
1781678054546033400,45.36703344726563,1.2706677913665771,2.396836280822754,-0.9024351835250854
1781678054594555400,45.41555541992187,2.861813545227051,3.1412229537963867,1.8808132410049438
1781678054643077000,45.4640771484375,3.0908169746398926,1.695950984954834,2.6053221225738525
1781678054691598800,45.51259887695313,4.721678733825684,-1.2879581451416016,1.1745777130126953
1781678054740120600,45.56112060546875,2.467867374420166,-3.8032426834106445,2.339348077774048
1781678054788642300,45.609642333984375,-1.2240970134735107,-1.2292461395263672,-0.5120145082473755
1781678054837164000,45.6581640625,-2.9687490463256836,1.7634601593017578,-1.2690871953964233
1781678054885686000,45.70668603515625,-3.1423540115356445,-9.125500679016113,-2.9435293674468994
1781678054982729500,45.8037294921875,1.9416526556015015,3.2687277793884277,3.7770423889160156
1781678055031251500,45.85225146484375,0.5503523349761963,4.2941436767578125,-0.8302516341209412
1781678055079773200,45.90077319335938,1.6932497024536133,5.667698860168457,-3.1640424728393555
1781678055128295000,45.949294921875,1.5820589065551758,6.221427917480469,-1.051680326461792
1781678055176816600,45.997816650390625,-1.731515884399414,-2.2617416381835938,0.9128828048706055
1781678055225338400,46.04633837890625,3.8089022636413574,-5.556775093078613,2.5189852714538574
1781678055273860000,46.09486010742187,-2.9970662593841553,-7.920225143432617,2.4080617427825928
1781678055322382000,46.143382080078126,-0.09318768978118896,-2.0033559799194336,-4.397006034851074
1781678055419425500,46.240425537109374,1.0219610929489136,-0.4190835952758789,-3.448476791381836
1781678055467947300,46.288947265625,0.6606644988059998,2.483409881591797,0.1415521502494812
1781678055516469000,46.33746899414062,-0.6354290246963501,1.9406042098999023,-0.5975543260574341
1781678055564990700,46.38599072265625,2.171034336090088,3.1164751052856445,0.43418803811073303
1781678055613512700,46.4345126953125,3.210292339324951,3.8786234855651855,1.7083227634429932
1781678055662034400,46.48303442382812,4.260432720184326,0.7941055297851562,0.5262549519538879
1781678055710556200,46.53155615234375,4.4365997314453125,-3.1480884552001953,2.389709711074829
1781678055759078000,46.58007788085938,1.5334289073944092,-3.108827590942383,1.2766785621643066
1781678055807599600,46.628599609375,-3.4254543781280518,0.8736486434936523,0.38158583641052246
1781678055856121600,46.67712158203125,-4.719625473022461,-6.857316017150879,-1.9408583641052246
1781678055904643000,46.72564306640625,-3.6400392055511475,-5.715160369873047,1.0534528493881226
1781678055953165000,46.7741650390625,-0.09395244717597961,2.265953540802002,3.2119617462158203
1781678056001686800,46.822686767578126,1.0371654033660889,4.217154026031494,0.5383303165435791
1781678056050208500,46.87120849609375,1.3130557537078857,5.034737586975098,-3.225625514984131
1781678056098730200,46.919730224609374,2.1849019527435303,5.222728729248047,-2.1168301105499268
1781678056147252000,46.968251953125,-0.3565182089805603,2.5336809158325195,0.7559205293655396
1781678056195773700,47.01677368164062,1.3078429698944092,-7.282855987548828,2.1556808948516846
1781678056244295400,47.06529541015625,-0.5197311639785767,-6.420442581176758,4.6871747970581055
1781678056292817400,47.1138173828125,-2.4160428047180176,-4.668057441711426,-4.117125988006592
1781678056341339000,47.1623388671875,0.7805870175361633,0.8922824859619141,-2.6899402141571045
1781678056389860600,47.210860595703124,0.6572464108467102,-1.4360713958740234,-4.349486351013184
1781678056438382600,47.25938256835938,1.3381019830703735,2.877511978149414,-2.811999559402466
1781678056486904300,47.307904296875,-0.8568078279495239,3.087433338165283,-0.735628604888916
1781678056535426000,47.356426025390626,2.3429031372070312,2.0623836517333984,0.05649540573358536
1781678056583947800,47.40494775390625,2.8912739753723145,3.5977349281311035,1.9744516611099243
1781678056632469500,47.45346948242187,3.823124408721924,2.1794395446777344,1.82578706741333
1781678056680991200,47.5019912109375,5.112350940704346,-1.2314109802246094,1.8367061614990234
1781678056729513000,47.55051293945313,2.6947131156921387,-3.8511619567871094,1.0945565700531006
1781678056826556400,47.647556396484376,-5.928292274475098,-5.271906852722168,-0.7118675112724304
1781678056875078400,47.69607836914062,-3.3544414043426514,-8.894319534301758,0.3984835147857666
1781678056972121900,47.79312182617188,1.194124698638916,4.341614246368408,2.1518735885620117
1781678057020643300,47.84164331054688,0.7334438562393188,5.202253341674805,-2.7442467212677
1781678057069165300,47.890165283203125,1.7947053909301758,6.243669033050537,-2.6423380374908447
1781678057117687000,47.93868701171875,-0.4281901717185974,4.520598888397217,0.8552144765853882
1781678057166208800,47.98720874023437,1.3069472312927246,-5.815417289733887,1.4279247522354126
1781678057214730500,48.03573046875,-2.7944769859313965,-6.977063179016113,3.348722219467163
1781678057263252200,48.08425219726563,-0.19227387011051178,-4.19931697845459,-0.6987048387527466
1781678057311774200,48.13277416992187,-2.66459321975708,-1.953989028930664,-1.4090204238891602
1781678057360295700,48.181295654296875,-0.020391374826431274,-3.009328842163086,-7.48747444152832
1781678057408817400,48.2298173828125,2.0383388996124268,2.5067906379699707,-3.063835620880127
1781678057457339100,48.27833911132812,-1.1984148025512695,3.282792091369629,-1.4632236957550049
1781678057505860900,48.32686083984375,2.996399402618408,4.4080352783203125,-1.7503608465194702
1781678057554382600,48.37538256835938,3.159903049468994,4.389199733734131,1.1755170822143555
1781678057602904300,48.423904296875,2.781395435333252,1.685157299041748,5.543587684631348
1781678057651426000,48.472426025390625,3.4810495376586914,-3.6206579208374023,4.554054260253906
1781678057699947800,48.52094775390625,2.8844351768493652,-3.4570436477661133,3.0014288425445557
1781678057748469500,48.56946948242187,-1.3245935440063477,0.8087644577026367,-0.5812191963195801
1781678057796991200,48.6179912109375,-5.4819865226745605,-0.4916954040527344,-2.72638201713562
1781678057845513200,48.66651318359375,-5.413867473602295,-13.099787712097168,-0.04599028825759888
1781678057894035000,48.715034912109374,-1.7471425533294678,-1.3221807479858398,3.414339542388916
1781678057942556700,48.763556640625,1.6490683555603027,3.2352027893066406,3.524336338043213
1781678057991078400,48.81207836914062,0.8471140265464783,4.543757915496826,-0.6999626159667969
1781678058088121900,48.90912182617188,1.40824294090271,7.843053817749023,2.1344165802001953
1781678058136643300,48.95764331054688,-3.2185487747192383,-6.625335693359375,3.1729636192321777
1781678058185165000,49.0061650390625,1.326430082321167,-4.993664741516113,0.9139552712440491
1781678058233687000,49.05468701171875,-2.2451672554016113,-7.034738540649414,-2.291715145111084
1781678058282208500,49.10320849609375,-4.144645690917969,-2.0592050552368164,-2.437408924102783
1781678058330730500,49.15173046875,-0.32942330837249756,-4.131591796875,-6.399601936340332
1781678058379252000,49.200251953125,1.746254801750183,1.3002471923828125,-1.8813486099243164
1781678058427774000,49.24877392578125,1.0107465982437134,3.689850330352783,-2.509085178375244
1781678058524817400,49.3458173828125,2.158527135848999,3.278869152069092,2.79156494140625
1781678058573339000,49.3943388671875,2.7804479598999023,2.184694766998291,2.6813645362854004
1781678058621860600,49.442860595703124,3.5043931007385254,-0.6392478942871094,4.359110355377197
1781678058670382600,49.49138256835938,1.9682846069335938,-4.948696136474609,4.359126091003418
1781678058718904000,49.53990405273437,-1.4538369178771973,-2.2393760681152344,0.713450014591217
1781678058767426000,49.588426025390625,-5.352190971374512,1.0734853744506836,-0.7875189185142517
1781678058815947500,49.636947509765626,-3.6768648624420166,-6.120260238647461,-4.986597537994385
1781678058864469200,49.68546923828125,-4.781791687011719,-3.7985572814941406,2.5766818523406982
1781678058961512700,49.7825126953125,-0.06622791290283203,3.8636388778686523,0.04219895601272583
1781678059010034400,49.83103442382812,0.9446133375167847,4.593125820159912,0.060398757457733154
1781678059058556200,49.87955615234375,0.9147789478302002,6.270718574523926,0.5066434144973755
1781678059107078000,49.92807788085938,-2.2239489555358887,1.2038583755493164,3.3936662673950195
1781678059155599600,49.976599609375,3.8987884521484375,-8.058736801147461,0.23121333122253418
1781678059204121300,50.025121337890624,-2.128145933151245,-4.138192176818848,2.3011717796325684
1781678059252643000,50.07364306640625,-2.5583271980285645,-4.148965835571289,-2.011979579925537
1781678059301164800,50.12216479492187,-1.9427005052566528,-0.06456375122070312,-4.245796203613281
1781678059349686500,50.1706865234375,0.9853528738021851,-0.26795101165771484,-6.298264980316162
1781678059398208300,50.21920825195313,2.276426315307617,2.2567367553710938,-1.676210641860962
1781678059446730000,50.26772998046875,0.0704948902130127,2.3268065452575684,0.6664133071899414
1781678059495251700,50.316251708984375,1.7558391094207764,3.435791015625,-0.5144194960594177
1781678059543773400,50.3647734375,3.066277027130127,4.00305700302124,1.9336321353912354
1781678059592295000,50.413294921875,2.0127594470977783,0.2494964599609375,3.8679440021514893
1781678059640816600,50.461816650390624,2.478822708129883,-4.950823783874512,3.2157793045043945
1781678059689338400,50.51033837890625,1.1323269605636597,-2.933871269226074,3.0037665367126465
1781678059737860000,50.55886010742187,-1.8469904661178589,0.6647377014160156,-1.6078310012817383
1781678059786381800,50.6073818359375,-3.267385482788086,0.41392040252685547,-4.024763107299805
1781678059834903600,50.655903564453126,-5.274240016937256,-8.921660423278809,-1.250852108001709
1781678059931946800,50.75294677734375,0.46051788330078125,3.698122978210449,1.8608185052871704
1781678059980468700,50.80146875,0.5362558364868164,4.220043182373047,-2.5132288932800293
1781678060028990200,50.849990234375,0.868520200252533,4.35172700881958,-2.3518242835998535
1781678060126034000,50.94703393554688,0.2537212371826172,-7.203289985656738,-0.4373459815979004
1781678060174555400,50.99555541992188,2.7324414253234863,-1.9566583633422852,2.0862367153167725
1781678060223077000,51.0440771484375,-3.456364393234253,-8.459381103515625,-1.0808357000350952
1781678060271598800,51.092598876953126,0.17446288466453552,1.9365816116333008,-2.5133042335510254
1781678060320120600,51.14112060546875,-0.07840621471405029,-1.8230867385864258,-4.477987766265869
1781678060368642000,51.18964208984375,1.3446828126907349,1.7048912048339844,-3.036846399307251
1781678060417164000,51.2381640625,-0.7400250434875488,3.0380892753601074,0.6986672282218933
1781678060465685500,51.286685546875,0.29898929595947266,2.5972747802734375,-2.935889482498169
1781678060514207200,51.33520727539062,2.7107365131378174,3.314302921295166,0.7795794606208801
1781678060562729000,51.38372900390625,2.0777833461761475,3.831170082092285,1.132995843887329
1781678060611250700,51.43225073242188,5.432458877563477,-1.6021976470947266,0.29520881175994873
1781678060659772400,51.4807724609375,2.557758331298828,-4.727503776550293,2.4511795043945312
1781678060708294000,51.5292939453125,-1.2228862047195435,-2.5474414825439453,-0.408484548330307
1781678060756815600,51.57781567382813,-3.8705480098724365,0.6353063583374023,-1.3402209281921387
1781678060805337300,51.62633740234375,-4.1282429695129395,-7.203218460083008,-4.617592811584473
1781678060853859000,51.674859130859375,-4.043763637542725,-2.8405046463012695,2.7033958435058594
1781678060902380800,51.723380859375,-0.020827293395996094,2.6906981468200684,2.8409667015075684
1781678060950902500,51.77190258789062,0.36575090885162354,3.9327077865600586,-1.7820838689804077
1781678060999424300,51.82042431640625,1.5041941404342651,5.189598560333252,-3.9284729957580566
1781678061047945700,51.86894580078125,1.8604003190994263,5.992803573608398,-2.0016541481018066
1781678061096467500,51.91746752929687,-2.6267614364624023,-2.255290985107422,1.828150749206543
1781678061144989200,51.9659892578125,4.966552257537842,-5.929076194763184,0.5510357618331909
1781678061193511000,52.014510986328126,-2.931067943572998,-7.876355171203613,2.6442863941192627
1781678061242032600,52.06303271484375,-0.6707274317741394,-0.7567739486694336,-4.4705376625061035
1781678061290554400,52.111554443359374,-0.19567221403121948,-0.9057836532592773,-3.6191253662109375
1781678061339076000,52.160076171875,0.24656838178634644,0.7780866622924805,-6.218227386474609
1781678061387597600,52.20859765625,1.2483705282211304,2.888888359069824,-1.2174584865570068
1781678061436119300,52.25711938476562,-1.1478593349456787,2.057196617126465,-1.900987982749939
1781678061484641000,52.30564111328125,1.416041612625122,2.0705432891845703,-0.45917242765426636
1781678061533162800,52.35416284179688,2.9584648609161377,4.308676719665527,1.9035613536834717
1781678061581684200,52.40268432617187,3.7281908988952637,1.3463411331176758,2.0292413234710693
1781678061630206000,52.4512060546875,3.161792755126953,-5.6988325119018555,3.460031032562256
1781678061678727700,52.49972778320313,1.9558295011520386,-3.455674171447754,2.5883049964904785
1781678061775771100,52.596771240234375,-2.5944998264312744,1.3888826370239258,-4.293907165527344
1781678061824292600,52.64529272460938,-4.127320289611816,-8.897683143615723,-2.141331672668457
1781678061872814600,52.69381469726562,-3.521481513977051,-1.2922258377075195,3.54158353805542
1781678061921336000,52.742336181640624,1.2729809284210205,3.3639063835144043,2.393752098083496
1781678061969857800,52.79085791015625,0.819282591342926,4.789613723754883,-3.0748353004455566
1781678062018379300,52.83937915039063,2.0007236003875732,5.264753341674805,-3.8002421855926514
1781678062066901000,52.88790087890625,1.062828540802002,4.612820625305176,-0.9524437785148621
1781678062115422700,52.936422607421875,-0.19247967004776,-7.719305038452148,0.7119489908218384
1781678062163944400,52.9849443359375,3.056854724884033,-2.951953887939453,3.386998176574707
1781678062212466200,53.03346606445312,-2.525527000427246,-5.992015838623047,1.2254568338394165
1781678062260987600,53.081987548828124,-0.3866921067237854,-0.8672666549682617,-3.9488253593444824
1781678062309509600,53.13050952148438,-0.05881547927856445,-0.46491527557373047,-3.8295555114746094
1781678062358031000,53.17903100585937,1.534116268157959,1.2849197387695312,-5.177170753479004
1781678062406552800,53.227552734375,1.368335485458374,3.3572311401367188,-0.2450687289237976
1781678062455074300,53.27607421875,-1.2303446531295776,2.944016933441162,-1.077218770980835
1781678062503596000,53.32459594726563,1.537979245185852,1.765772819519043,-0.05273789167404175
1781678062552117800,53.37311767578125,3.459484577178955,1.5114526748657227,2.6621203422546387
1781678062600639500,53.421639404296876,3.832859516143799,0.8211917877197266,1.7807198762893677
1781678062649161200,53.4701611328125,2.757873058319092,-5.030142784118652,2.2088623046875
1781678062697682700,53.5186826171875,1.2276530265808105,-3.702019691467285,0.6718913316726685
1781678062746204400,53.567204345703125,-3.0692484378814697,2.371102809906006,-0.9333599805831909
1781678062794726100,53.61572607421875,-2.9726030826568604,-0.5363998413085938,-4.605958938598633
1781678062843247900,53.66424780273437,-4.280801773071289,-8.559718132019043,0.24258393049240112
1781678062891769600,53.71276953125,-1.1083487272262573,1.1042280197143555,3.673081874847412
1781678062940291000,53.761291015625,1.243173360824585,3.565326690673828,0.6116383075714111
1781678062988812800,53.80981274414062,1.0101202726364136,4.586392402648926,-3.853562831878662
1781678063037334300,53.85833422851562,1.4855084419250488,4.652742385864258,-3.0699081420898438
1781678063085856000,53.90685595703125,-0.06674933433532715,2.7224249839782715,0.23827743530273438
1781678063134377700,53.95537768554688,1.84104323387146,-6.840933799743652,-0.0722736120223999
1781678063182899500,54.0038994140625,1.5699341297149658,-5.094626426696777,5.029303550720215
1781678063231421000,54.0524208984375,-2.894317626953125,-4.900606155395508,-1.3295098543167114
1781678063328464400,54.14946435546875,-0.2857782244682312,-1.372640609741211,-4.429081439971924
1781678063376986000,54.197986083984375,2.4470434188842773,1.1777124404907227,-4.748671054840088
1781678063425507800,54.2465078125,-1.6257154941558838,1.638106346130371,1.3256268501281738
1781678063474029300,54.295029296875,0.7127952575683594,1.1172876358032227,-0.7977244853973389
1781678063522551000,54.343551025390624,2.044813632965088,3.165534496307373,1.5796316862106323
1781678063571072500,54.392072509765626,2.342482328414917,3.362445831298828,1.3868610858917236
1781678063619594200,54.44059423828125,5.661865711212158,-0.13129615783691406,0.6087602376937866
1781678063668115700,54.48911572265625,2.8761844635009766,-4.531435012817383,3.467540740966797
1781678063716637700,54.5376376953125,-0.48424452543258667,-2.9646167755126953,0.40566331148147583
1781678063765159400,54.58615942382813,-3.7414257526397705,2.414597511291504,-1.3318214416503906
1781678063813681000,54.63468090820312,-3.6935877799987793,-5.051929473876953,-4.824340343475342
1781678063862202600,54.68320263671875,-3.923821210861206,-6.060678482055664,1.4515599012374878
1781678063910724000,54.73172412109375,-0.11789169907569885,3.23942232131958,3.798790454864502
1781678063959245800,54.78024584960937,1.0996077060699463,3.4407615661621094,-0.36669301986694336
1781678064007767300,54.82876733398437,0.42079484462738037,4.042726516723633,-3.221893787384033
1781678064056289300,54.87728930664063,1.758192539215088,5.013879299163818,-1.2543280124664307
1781678064104811000,54.92581103515625,-1.6083338260650635,1.3640727996826172,2.1419105529785156
1781678064153332500,54.97433251953125,3.4750843048095703,-7.291792869567871,0.5702131986618042
1781678064201854200,55.022854248046876,-0.4372464418411255,-4.585034370422363,3.9193997383117676
1781678064250375700,55.07137573242188,-1.4806678295135498,-4.467172622680664,-3.9351305961608887
1781678064298897400,55.1198974609375,-0.27650463581085205,1.02105712890625,-2.5868494510650635
1781678064347419000,55.1684189453125,0.6124032139778137,-1.0780248641967773,-5.564650058746338
1781678064395940600,55.21694067382813,2.897675037384033,2.430014133453369,-2.9377565383911133
1781678064444462000,55.26546215820313,-1.6553384065628052,3.3950581550598145,-0.8092435598373413
1781678064492983800,55.31398388671875,1.6884974241256714,2.1513028144836426,-0.4661417007446289
1781678064541505800,55.362505859375,2.40297269821167,2.2679152488708496,1.6284806728363037
1781678064590027300,55.41102734375,3.3580729961395264,1.6344537734985352,3.2247097492218018
1781678064638549000,55.459549072265624,4.981865406036377,-1.6777143478393555,1.4292881488800049
1781678064687070500,55.508070556640625,2.1574666500091553,-5.637570381164551,1.8863664865493774
1781678064735592200,55.55659228515625,-0.5309970378875732,-1.3637933731079102,-0.255148708820343
1781678064784113700,55.60511376953125,-2.6791508197784424,2.856642723083496,-1.3509572744369507
1781678064832635400,55.653635498046874,-3.1481502056121826,-5.33830451965332,-4.25079870223999
1781678064929678600,55.7506787109375,2.046656847000122,3.2858190536499023,3.5058350563049316
1781678064978200300,55.799200439453124,-0.20952582359313965,2.9708900451660156,-0.8235780000686646
1781678065026721800,55.8477216796875,1.648476004600525,4.94220495223999,-4.201815605163574
1781678065075243800,55.89624389648438,1.5483450889587402,5.739720821380615,-1.251271367073059
1781678065123765200,55.94476513671875,-1.1361470222473145,-1.0678930282592773,1.377297043800354
1781678065172287000,55.993286865234374,2.718316078186035,-7.64179801940918,1.3734188079833984
1781678065220808400,56.041808349609376,-0.7806209325790405,-5.840836524963379,3.237644672393799
1781678065269330200,56.090330078125,-2.3488597869873047,-2.381561279296875,-3.0837745666503906
1781678065317851600,56.1388515625,-0.3227419853210449,-0.17194843292236328,-2.415454387664795
1781678065366373400,56.187373291015625,1.6320676803588867,0.039771080017089844,-5.764382839202881
1781678065414895000,56.23589501953125,2.599367618560791,3.5567245483398438,-2.4710605144500732
1781678065463416600,56.28441650390625,-1.583288550376892,3.5035715103149414,-1.0133438110351562
1781678065511938300,56.332938232421874,2.689768075942993,1.942697525024414,-1.3658431768417358
1781678065560459800,56.381459716796876,2.9172987937927246,0.9067106246948242,5.25543212890625
1781678065608981500,56.4299814453125,2.649019956588745,1.0726919174194336,3.5422608852386475
1781678065657503000,56.4785029296875,4.16158390045166,-2.3522825241088867,1.844953179359436
1781678065706024700,56.527024658203125,1.5039334297180176,-3.382683753967285,3.0651721954345703
1781678065754546200,56.575546142578126,-1.7418485879898071,-0.5525913238525391,-1.911669135093689
1781678065803068000,56.62406787109375,-2.2541520595550537,1.5591859817504883,-3.450362205505371
1781678065851589600,56.672589599609374,-4.0164690017700195,-7.752865791320801,-3.5469510555267334
1781678065900111000,56.721111083984376,-3.822638988494873,-1.9528799057006836,4.966696739196777
1781678065948632800,56.7696328125,1.8631540536880493,3.240579605102539,2.748791456222534
1781678065997154300,56.818154296875,0.5548406839370728,3.8253583908081055,-2.8793277740478516
1781678066045676000,56.866676025390625,1.8571693897247314,4.969837188720703,-2.797950267791748
1781678066094197500,56.915197509765626,1.7144873142242432,5.692721366882324,1.096748948097229
1781678066142719200,56.96371923828125,-0.9150230288505554,-5.537114143371582,1.099410057067871
1781678066191240700,57.01224072265625,1.805829644203186,-5.381888389587402,3.1166887283325195
1781678066239762400,57.060762451171875,-2.380798101425171,-7.400317192077637,-1.2528728246688843
1781678066288284200,57.1092841796875,-0.1441640853881836,1.4110746383666992,-1.6931097507476807
1781678066336805600,57.1578056640625,-0.5426143407821655,-0.6748409271240234,-4.883793354034424
1781678066385327400,57.206327392578125,2.581205368041992,1.7843666076660156,-5.258905410766602
1781678066482370600,57.30337060546875,-0.4988589286804199,2.1660337448120117,-1.5391238927841187
1781678066530892000,57.35189208984375,3.106294631958008,2.0129690170288086,2.1796672344207764
1781678066579413800,57.400413818359375,1.9441970586776733,0.8346824645996094,5.22791051864624
1781678066627935200,57.44893530273438,4.3269805908203125,0.017045974731445312,0.6200049519538879
1781678066676457000,57.49745703125,2.55342173576355,-4.3079986572265625,3.665743350982666
1781678066724978700,57.545978759765624,0.7272613644599915,-3.2857532501220703,-0.11779606342315674
1781678066773500200,57.594500244140626,-2.6914732456207275,2.4513630867004395,-2.2278199195861816
1781678066822022000,57.64302197265625,-3.3737571239471436,-2.127469062805176,-4.535386085510254
1781678066870543400,57.69154345703125,-4.548341751098633,-6.705018997192383,-0.20148161053657532
1781678066919065000,57.740065185546875,-0.003971487283706665,2.5625863075256348,4.035560607910156
1781678066967587300,57.78858740234375,0.46642300486564636,3.404481887817383,0.91512131690979
1781678067016109000,57.837109130859375,1.2380733489990234,4.063442707061768,-3.3562254905700684
1781678067064630500,57.885630615234376,1.4621355533599854,4.458104610443115,-2.017977476119995
1781678067113152300,57.93415234375,0.16430813074111938,2.301504135131836,2.1783576011657715
1781678067161673700,57.982673828125,1.545839786529541,-8.417436599731445,0.7991615533828735
1781678067210195500,58.031195556640625,0.29142484068870544,-4.487728118896484,3.9742379188537598
1781678067258717000,58.07971704101563,-0.9255425333976746,-3.648207664489746,-3.2892792224884033
1781678067307238700,58.12823876953125,-0.35211074352264404,1.7649030685424805,-1.064536213874817
1781678067355760000,58.17676000976562,0.40366029739379883,-0.8997840881347656,-5.0652265548706055
1781678067404281900,58.22528173828125,2.8210830688476562,1.803278923034668,-2.9202511310577393
1781678067452803300,58.27380322265625,-1.497044324874878,2.73360538482666,0.9130316972732544
1781678067501324800,58.32232470703125,1.3698151111602783,1.9133391380310059,-1.1756795644760132
1781678067549846500,58.37084643554687,1.7022933959960938,2.848468780517578,1.5582268238067627
1781678067598368000,58.419367919921875,3.257570743560791,1.545639991760254,2.2546491622924805
1781678067646889700,58.4678896484375,5.54612922668457,-1.9668121337890625,1.6274560689926147
1781678067695411200,58.5164111328125,2.576653480529785,-4.600614547729492,1.2622774839401245
1781678067743933000,58.564932861328124,-1.1879453659057617,-1.8776607513427734,-0.9395920634269714
1781678067792454400,58.613454345703126,-3.8147592544555664,1.2872390747070312,-1.0209027528762817
1781678067840976100,58.66197607421875,-3.5939483642578125,-4.819061279296875,-4.146975517272949
1781678067889497900,58.71049780273437,-4.010556221008301,-3.104353904724121,2.684197187423706
1781678067938019300,58.759019287109375,0.930943489074707,3.293912887573242,4.288599967956543
1781678067986540800,58.807540771484376,0.4026287794113159,3.756844997406006,-1.9194074869155884
1781678068083584000,58.904583984375,1.9321566820144653,5.128602981567383,-1.0591967105865479
1781678068132105500,58.95310546875,-1.6529721021652222,-2.9157238006591797,1.8723416328430176
1781678068180627200,59.00162719726563,3.373901844024658,-5.367293357849121,1.2857304811477661
1781678068229148700,59.05014868164063,-1.0748721361160278,-6.511731147766113,2.7268424034118652
1781678068277670400,59.09867041015625,-1.9513154029846191,-0.7087984085083008,-2.190437078475952
1781678068326192000,59.147192138671876,-1.1045887470245361,0.5361061096191406,-3.2500388622283936
1781678068374713600,59.19571362304688,0.8883928060531616,-0.30605602264404297,-5.654754638671875
1781678068423235000,59.24423510742187,2.2534945011138916,1.8718414306640625,-0.42060235142707825
1781678068471756500,59.29275659179687,-1.2038443088531494,2.486309051513672,0.6359870433807373
1781678068520278300,59.3412783203125,1.3113770484924316,2.9965929985046387,0.2077137529850006
1781678068568799700,59.3897998046875,2.8470568656921387,1.8459348678588867,2.446950674057007
1781678068617321500,59.43832153320312,3.1110384464263916,1.0395317077636719,3.7197842597961426
1781678068665843000,59.486843017578124,3.0485265254974365,-3.246124267578125,0.8668471574783325
1781678068714364700,59.53536474609375,1.9505035877227783,-3.976938247680664,2.3134844303131104
1781678068762886100,59.58388623046875,-1.6036633253097534,0.35354137420654297,-0.22281208634376526
1781678068811407600,59.63240771484375,-2.5358850955963135,2.932527542114258,-2.2182493209838867
1781678068859929300,59.680929443359375,-3.0072877407073975,-6.017966270446777,-4.214060306549072
1781678068908450800,59.729450927734376,-4.7664995193481445,-3.5934200286865234,3.425133466720581
1781678068956972500,59.77797265625,2.4771156311035156,3.0019116401672363,3.592245578765869
1781678069005494000,59.82649389648437,-0.021558105945587158,3.262582778930664,-1.4807074069976807
1781678069054015500,59.875015380859374,1.5005630254745483,4.4694647789001465,-3.3931069374084473
1781678069102537000,59.923536865234375,1.56181001663208,4.616216659545898,0.5213260054588318
1781678069151058700,59.97205859375,-2.358297348022461,-3.1685800552368164,1.5902965068817139
1781678069199580200,60.020580078125,4.5065789222717285,-4.040518760681152,2.2347326278686523
1781678069248102000,60.069101806640624,-1.56136953830719,-6.0480499267578125,2.149170160293579
1781678069296623400,60.117623291015626,-1.0025818347930908,-2.3546457290649414,-2.8285059928894043
1781678069345144800,60.16614477539063,-0.5537377595901489,0.7984457015991211,-2.6314945220947266
1781678069393666600,60.21466650390625,1.4071117639541626,-0.06153106689453125,-5.153677463531494
1781678069442188000,60.26318798828125,3.1442222595214844,3.333134651184082,-0.4590109586715698
1781678069490709800,60.31170971679688,-2.907640218734741,2.602536678314209,0.012156844139099121
1781678069539231200,60.36023120117188,1.9594217538833618,2.558903694152832,-0.9059273600578308
1781678069587752700,60.40875268554687,3.10552978515625,1.661808967590332,3.3501205444335938
1781678069684796000,60.5057958984375,3.9995055198669434,-3.1425352096557617,1.359736442565918
1781678069733317600,60.55431762695312,1.780050277709961,-4.121029853820801,1.724596381187439
1781678069781838800,60.6028388671875,-2.3287301063537598,0.4854774475097656,-1.587963581085205
1781678069830360600,60.651360595703125,-2.933041572570801,0.9224672317504883,-3.4965245723724365
1781678069878882000,60.699882080078126,-3.622116804122925,-7.075508117675781,-1.9071245193481445
1781678069927403800,60.74840380859375,-3.411738157272339,-0.9975261688232422,3.658036947250366
1781678069975925200,60.79692529296875,2.071931838989258,3.5663442611694336,2.4774351119995117
1781678070024446700,60.84544677734375,0.41914719343185425,4.209451198577881,-2.0336825847625732
1781678070072968200,60.89396826171875,1.7734041213989258,4.591404914855957,-2.825812816619873
1781678070121490000,60.94248999023438,1.5765782594680786,4.809634685516357,1.0486619472503662
1781678070170011600,60.99101171875,-1.5612729787826538,-7.659842491149902,0.7796922922134399
1781678070218532900,61.039532958984374,2.608800172805786,-4.113462448120117,3.766037940979004
1781678070267054600,61.0880546875,-2.5596022605895996,-6.275453567504883,-0.7973397374153137
1781678070315576000,61.136576171875,0.34403955936431885,1.1504764556884766,-2.371333122253418
1781678070364097500,61.18509765625,-0.14658749103546143,-0.07804489135742188,-3.77148699760437
1781678070412619000,61.23361889648437,2.7407212257385254,1.383026123046875,-4.761801242828369
1781678070509662200,61.330662109375,-0.4057544469833374,2.05075740814209,-0.4801316261291504
1781678070558183700,61.37918359375,1.9845716953277588,1.340804100036621,1.3954992294311523
1781678070606705400,61.42770532226562,2.918260097503662,2.1797728538513184,2.8772988319396973
1781678070655227000,61.476226806640625,4.504942893981934,0.5332155227661133,1.530383825302124
1781678070703748600,61.52474853515625,2.8763346672058105,-4.167075157165527,2.1664741039276123
1781678070752270000,61.57327001953125,0.7909463047981262,-3.6629247665405273,-0.32079923152923584
1781678070800791600,61.62179150390625,-3.0344178676605225,2.8983068466186523,-0.5405699610710144
1781678070849313000,61.67031298828125,-4.047362327575684,-3.884282112121582,-4.163331508636475
1781678070897834800,61.71883471679688,-3.47464656829834,-6.983585357666016,0.25029700994491577
1781678070946356000,61.76735595703125,0.18554887175559998,2.4066615104675293,4.822447299957275
1781678070994877700,61.81587768554687,1.133554458618164,3.3680405616760254,0.4321262836456299
1781678071043399200,61.864399169921874,1.2707825899124146,4.594356060028076,-3.733884572982788
1781678071091920600,61.912920654296876,1.6525497436523438,5.999477386474609,-2.1193668842315674
1781678071140442400,61.9614423828125,-1.2288825511932373,0.13428974151611328,1.8143305778503418
1781678071188963800,62.0099638671875,3.2301008701324463,-7.034414291381836,0.025533616542816162
1781678071286006800,62.1070068359375,-2.6597304344177246,-4.508437156677246,-3.1290082931518555
1781678071334528500,62.15552856445313,0.31883537769317627,1.5442771911621094,-2.9292664527893066
1781678071383050000,62.20405004882812,0.11793684959411621,-0.6434564590454102,-4.858724594116211
1781678071431571500,62.252571533203124,2.66043758392334,2.3669328689575195,-1.8720600605010986
1781678071480093000,62.301093017578125,-1.8764944076538086,2.7212119102478027,0.6824336051940918
1781678071528614400,62.34961450195313,1.0758540630340576,1.2760124206542969,-0.7538757920265198
1781678071577136000,62.39813623046875,2.883518695831299,3.0758280754089355,2.1605496406555176
1781678071625657600,62.44665771484375,3.405148983001709,2.4118661880493164,3.139009952545166
1781678071674179000,62.495178955078124,4.6280059814453125,-2.833937644958496,2.4343349933624268
1781678071722700500,62.543700439453126,1.3258579969406128,-4.931670188903809,2.4039151668548584
1781678071771222300,62.59222216796875,-1.8858566284179688,0.12729644775390625,-0.4142305254936218
1781678071819743700,62.64074365234375,-2.9503722190856934,1.8593149185180664,-2.1513519287109375
1781678071868265200,62.68926513671875,-3.951910972595215,-8.851299285888672,-3.9359264373779297
1781678071916786700,62.73778662109375,-3.5777997970581055,-1.9284257888793945,3.5728604793548584
1781678071965308200,62.78630810546875,0.5944329500198364,3.564664363861084,2.9350829124450684
1781678072013830000,62.83482983398437,0.2791375517845154,4.020304203033447,-1.4360284805297852
1781678072062351400,62.883351318359374,1.7038633823394775,5.320215225219727,-2.6922125816345215
1781678072110872800,62.931872802734375,1.8303406238555908,5.769820690155029,0.26397937536239624
1781678072159394300,62.98039428710938,-2.289923906326294,-6.741372108459473,0.8950448632240295
1781678072207915800,63.02891577148438,3.434709072113037,-4.095564842224121,3.5660765171051025
1781678072256437200,63.07743725585937,-2.8857650756835938,-6.589290618896484,1.0494604110717773
1781678072304959000,63.125958984375,-0.6794041991233826,-0.5310325622558594,-3.5975136756896973
1781678072353480400,63.17448046875,-0.3928753137588501,-0.15105533599853516,-3.3954644203186035
1781678072402002000,63.223001953125,1.4304125308990479,0.9849843978881836,-4.4229302406311035
1781678072450523400,63.2715234375,1.5109362602233887,4.051836967468262,0.43509358167648315
1781678072499044900,63.320044921875,-0.9752272367477417,2.8998847007751465,-1.7001323699951172
1781678072547566600,63.368566650390626,2.821169376373291,1.432845115661621,1.17670476436615
1781678072596088000,63.41708813476563,2.290398120880127,2.005222797393799,5.1472296714782715
1781678072644609500,63.46560961914062,3.895955801010132,-0.14032459259033203,1.9485869407653809
1781678072693131000,63.51413110351562,3.2822113037109375,-3.3658018112182617,3.5313329696655273
1781678072741652500,63.562652587890625,0.4211269021034241,-3.577948570251465,-0.05360357463359833
1781678072838695400,63.6596953125,-2.966064929962158,-1.1942100524902344,-3.4150171279907227
1781678072887217000,63.708216796875,-4.933632850646973,-8.832391738891602,0.6082726120948792
1781678072935738600,63.756738525390624,-1.2993957996368408,1.1289854049682617,4.080845832824707
1781678072984260000,63.805260009765625,1.299103856086731,3.6510353088378906,0.9835131168365479
1781678073032781600,63.85378149414063,1.4505572319030762,5.230310916900635,-3.481104850769043
1781678073081303000,63.90230297851563,1.3517327308654785,5.867971420288086,-1.8189116716384888
1781678073129824500,63.95082446289062,-0.3976137638092041,2.3031005859375,1.576805830001831
1781678073178346000,63.999345947265624,0.5675570964813232,-8.706255912780762,0.37177884578704834
1781678073226867500,64.04786743164063,1.5710350275039673,-4.422779083251953,4.561964511871338
1781678073275389200,64.09638916015625,-2.53450870513916,-5.443626403808594,-2.397360324859619
1781678073323910700,64.14491064453125,-0.29935407638549805,2.5339741706848145,-2.0469460487365723
