time,seconds_elapsed,z,y,x
1781678009370550300,0.19155029296875,7.7563347816467285,5.676373481750488,0.37088751792907715
1781678009419072800,0.24007275390625,7.792825222015381,5.717649936676025,0.737587571144104
1781678009467595500,0.288595458984375,7.728219032287598,5.358726501464844,1.1234302520751953
1781678009516118300,0.3371181640625,7.767102241516113,6.815057754516602,0.9565308690071106
1781678009564641000,0.38564111328125,7.16231632232666,6.430112838745117,0.8769695162773132
1781678009613163800,0.434163818359375,7.702795028686523,6.838686943054199,0.9669994711875916
1781678009661686500,0.4826865234375,7.564310550689697,6.4788665771484375,0.9861420392990112
1781678009710209300,0.531209228515625,6.74147891998291,6.686144828796387,1.0710872411727905
1781678009758732000,0.57973193359375,6.196812629699707,6.616752624511719,0.5584250092506409
1781678009807254500,0.628254638671875,5.347360610961914,5.781059741973877,1.2732807397842407
1781678009855777300,0.67677734375,7.025925636291504,5.44426965713501,1.048654556274414
1781678009904300000,0.725300048828125,8.503493309020996,6.232106685638428,-0.494716078042984
1781678009952822800,0.77382275390625,9.224630355834961,5.557629585266113,-0.15493527054786682
1781678010001345500,0.822345458984375,9.08973503112793,5.529214859008789,-0.21296121180057526
1781678010049868300,0.870868408203125,9.28445053100586,5.218746185302734,-0.021236300468444824
1781678010098390800,0.919390869140625,8.27587604522705,5.399105072021484,0.5198407173156738
1781678010146913500,0.96791357421875,8.015058517456055,5.423033237457275,0.4295116662979126
1781678010195436300,1.016436279296875,8.18375301361084,5.304289817810059,0.20129621028900146
1781678010243959000,1.064958984375,7.94716215133667,4.991128921508789,0.005982056725770235
1781678010292481800,1.113481689453125,8.821739196777344,4.943870544433594,0.07417750358581543
1781678010341004500,1.162004638671875,8.367700576782227,5.075475692749023,-0.06789634376764297
1781678010389527000,1.210527099609375,8.450851440429688,5.0949177742004395,0.09511470049619675
1781678010438049800,1.2590498046875,8.568099975585938,5.020740032196045,0.1698904037475586
1781678010486572500,1.307572509765625,8.82652473449707,4.934598445892334,0.04127619042992592
1781678010535095300,1.35609521484375,8.627620697021484,4.934897422790527,0.20159530639648438
1781678010583618000,1.4046181640625,8.486743927001953,4.965705394744873,0.1052841991186142
1781678010632140800,1.453140869140625,8.165507316589355,5.0356950759887695,0.06400800496339798
1781678010680663600,1.50166357421875,8.172087669372559,5.100600719451904,0.3367897868156433
1781678010729186300,1.550186279296875,8.38863754272461,5.30847692489624,1.8128622770309448
1781678010777708800,1.598708740234375,5.161617755889893,4.423132419586182,0.9038887619972229
1781678010826231600,1.6472314453125,5.778367519378662,4.082753658294678,2.3446671962738037
1781678010874754300,1.69575439453125,5.657829284667969,3.8727834224700928,2.3315064907073975
1781678010923277000,1.744277099609375,2.8043880462646484,3.11246395111084,0.9717850685119629
1781678010971799800,1.7927998046875,2.4149563312530518,0.3774677813053131,0.054137613624334335
1781678011020322600,1.841322509765625,3.19441819190979,-3.622434377670288,-0.29371899366378784
1781678011068845000,1.889844970703125,4.364807605743408,-4.728516578674316,5.561817169189453
1781678011165890600,1.986890625,6.566503524780273,-10.32054328918457,12.358928680419922
1781678011214413300,2.035413330078125,3.7489547729492188,-10.956136703491211,13.753944396972656
1781678011262936000,2.08393603515625,9.166305541992188,-10.859526634216309,17.579769134521484
1781678011311458800,2.132458740234375,4.430909156799316,-7.658827304840088,13.384552955627441
1781678011359981600,2.180981689453125,0.7190431952476501,-6.536892414093018,15.023935317993164
1781678011408504300,2.22950439453125,4.384249210357666,-8.685647010803223,5.450850009918213
1781678011457026800,2.27802685546875,5.660222053527832,-10.160223960876465,6.774380207061768
1781678011505549600,2.326549560546875,5.8938212394714355,-9.502198219299316,6.229414463043213
1781678011554072300,2.375072265625,6.436692714691162,-10.105487823486328,3.6364922523498535
1781678011654857000,2.47585693359375,4.440480709075928,-9.120841979980469,1.9764715433120728
1781678011703379700,2.524379638671875,6.006583213806152,-8.802297592163086,2.620738983154297
1781678011751902500,2.57290234375,7.650751113891602,-9.333503723144531,1.2299108505249023
1781678011800425200,2.62142529296875,2.0084755420684814,-7.057032108306885,3.197409152984619
1781678011848948000,2.669947998046875,5.742774486541748,-5.423033237457275,0.23838496208190918
1781678011897470500,2.718470458984375,3.5676984786987305,-3.7199418544769287,-1.2951152324676514
1781678011945993200,2.7669931640625,2.693420886993408,-1.1973086595535278,0.8177471160888672
1781678011994516000,2.815515869140625,4.558925151824951,-6.342475414276123,1.0328021049499512
1781678012091561500,2.9125615234375,5.997011661529541,-7.616952896118164,-0.3939184248447418
1781678012140084000,2.961083984375,2.806781053543091,-5.938088417053223,0.23988047242164612
1781678012188606700,3.009606689453125,4.322933197021484,-8.377870559692383,0.1339980661869049
1781678012237129500,3.05812939453125,1.0271191596984863,-7.907680511474609,5.679962635040283
1781678012285652200,3.10665234375,2.0641086101531982,-9.909575462341309,-0.09152546525001526
1781678012334175000,3.155175048828125,-0.2273181527853012,-11.195119857788086,3.5922250747680664
1781678012382697700,3.20369775390625,2.570788860321045,-23.309980392456055,4.364508628845215
1781678012431220500,3.252220458984375,0.6493522524833679,-7.441080093383789,0.27696922421455383
1781678012479743000,3.300742919921875,2.3880369663238525,-8.735298156738281,1.8448662757873535
1781678012528266000,3.349265869140625,-0.37866419553756714,-10.58495044708252,3.195913791656494
1781678012576788500,3.39778857421875,-0.5255236625671387,-8.73619556427002,2.723630428314209
1781678012625311200,3.446311279296875,1.0513464212417603,-8.248059272766113,1.7682958841323853
1781678012673834000,3.494833984375,-0.4292125701904297,-10.71834945678711,2.1924238204956055
1781678012722356700,3.543356689453125,-0.23449662327766418,-9.740582466125488,3.3714871406555176
1781678012770879500,3.59187939453125,-0.633499801158905,-9.872187614440918,2.8013970851898193
1781678012819402200,3.64040234375,-0.905982494354248,-10.463214874267578,3.2237303256988525
1781678012867925000,3.688925048828125,0.06311069428920746,-8.489734649658203,2.1056840419769287
1781678012916447500,3.737447509765625,-0.8859425783157349,-9.385547637939453,1.6755740642547607
1781678012964970200,3.78597021484375,-0.7890332937240601,-7.973782539367676,1.425225019454956
1781678013013493000,3.834492919921875,-0.5303093194961548,-10.77248764038086,2.0315065383911133
1781678013062016000,3.88301611328125,-0.8309076428413391,-11.308480262756348,1.2652050256729126
1781678013110538500,3.93153857421875,-0.19381862878799438,-12.580862998962402,-0.21146570146083832
1781678013159061200,3.980061279296875,0.34277185797691345,-10.977373123168945,-0.45553362369537354
1781678013207584000,4.028583984375,2.3192434310913086,-8.129016876220703,-1.9013967514038086
1781678013256106800,4.077106689453125,2.037787675857544,-9.213862419128418,-1.5188441276550293
1781678013304629500,4.12562939453125,0.3248256742954254,-9.194122314453125,-0.1381855010986328
1781678013353152300,4.17415234375,-0.8488538265228271,-10.284351348876953,0.5557330846786499
1781678013401675000,4.222675048828125,-1.5726827383041382,-10.568499565124512,-0.25274190306663513
1781678013450197800,4.27119775390625,-0.18125630915164948,-9.998708724975586,0.11545369029045105
1781678013498720300,4.31972021484375,-0.254536509513855,-9.933204650878906,1.4003994464874268
1781678013595766000,4.41676611328125,0.3032902777194977,-9.486045837402344,-0.20099709928035736
1781678013644288800,4.465288818359375,-0.4124628007411957,-9.387042999267578,0.4866403043270111
1781678013692811300,4.513811279296875,-1.6959130764007568,-10.547562599182129,0.0894317477941513
1781678013741334000,4.562333984375,-1.5242279767990112,-10.217352867126465,-0.5536393523216248
1781678013789856800,4.610856689453125,0.06071787327528,-9.82822036743164,0.3125624656677246
1781678013838379500,4.659379638671875,-1.2290135622024536,-9.389435768127441,-0.6681957244873047
1781678013886902300,4.70790234375,-1.4629119634628296,-10.153345108032227,0.5446662306785583
1781678013935424800,4.7564248046875,-1.1276177167892456,-10.189236640930176,0.46360939741134644
1781678013983947800,4.80494775390625,-1.0585249662399292,-9.793225288391113,-0.9786644577980042
1781678014032470500,4.853470458984375,-0.7746763229370117,-9.367900848388672,-0.3646063506603241
1781678014080993000,4.901992919921875,-1.1288141012191772,-9.902397155761719,-0.7977072596549988
1781678014129515800,4.950515869140625,-1.415055513381958,-10.19910717010498,-0.42681974172592163
1781678014178038500,4.99903857421875,-1.4012967348098755,-9.835099220275879,-0.33888351917266846
1781678014226561300,5.047561279296875,-1.0450652837753296,-9.855138778686523,-0.14057832956314087
1781678014275084000,5.096083984375,-1.212562918663025,-9.898209571838379,0.08315058797597885
1781678014323606800,5.144606689453125,-1.2212368249893188,-9.865608215332031,0.5670989751815796
1781678014372129500,5.193129638671875,-1.119242787361145,-10.017850875854492,0.3900300860404968
1781678014420652300,5.24165234375,-1.1288141012191772,-10.029815673828125,0.09900303930044174
1781678014469175000,5.290175048828125,-1.3423734903335571,-9.795618057250977,-0.2709871530532837
1781678014517697800,5.33869775390625,-0.906281590461731,-9.837791442871094,-0.23449662327766418
1781678014566220300,5.38722021484375,-0.9577272534370422,-9.928718566894531,0.3966103494167328
1781678014614743300,5.435743408203125,-1.0534402132034302,-10.010074615478516,0.43489551544189453
1781678014663265800,5.484265869140625,-1.0369895696640015,-10.040882110595703,0.32303106784820557
1781678014711788500,5.53278857421875,-1.0289137363433838,-9.889535903930664,0.09032905846834183
1781678014760311600,5.5813115234375,-1.1766705513000488,-9.853643417358398,0.24017956852912903
1781678014808834000,5.629833984375,-1.1566306352615356,-9.746564865112305,0.44446679949760437
1781678014857356500,5.6783564453125,-1.2083754539489746,-9.980463027954102,0.24825534224510193
1781678014905879600,5.726879638671875,-1.1413763761520386,-9.785149574279785,0.28654050827026367
1781678014954402300,5.77540234375,-1.2113664150238037,-9.898209571838379,0.3397808074951172
1781678015002925000,5.823925048828125,-1.1647064685821533,-9.946066856384277,0.2958126962184906
1781678015051447800,5.87244775390625,-1.2457633018493652,-9.946066856384277,0.24795624613761902
1781678015099970600,5.920970458984375,-1.2146565914154053,-9.766006469726562,0.24556341767311096
1781678015148493300,5.969493408203125,-1.2083754539489746,-9.895816802978516,0.33738797903060913
1781678015245538600,6.06653857421875,-1.225723385810852,-9.860223770141602,0.32961133122444153
1781678015294061600,6.1150615234375,-1.2340983152389526,-9.827322959899902,0.380458801984787
1781678015342584300,6.163584228515625,-1.2538390159606934,-9.883255004882812,0.3852444589138031
1781678015391106800,6.21210693359375,-1.2658032178878784,-9.87368392944336,0.3900300860404968
1781678015439629800,6.2606298828125,-1.2448660135269165,-9.879366874694824,0.3535395562648773
1781678015488152300,6.30915234375,-1.1910275220870972,-9.89970588684082,0.4052843451499939
1781678015536675000,6.357675048828125,-1.2293126583099365,-9.878170013427734,0.367597371339798
1781678015585197800,6.40619775390625,-1.2275179624557495,-9.865009307861328,0.39481574296951294
1781678015633720600,6.454720458984375,-1.1766705513000488,-9.898209571838379,0.39960137009620667
1781678015682243300,6.503243408203125,-1.2403794527053833,-9.872187614440918,0.38285163044929504
1781678015730766000,6.55176611328125,-1.1907284259796143,-9.862616539001465,0.4325026869773865
1781678015779288600,6.60028857421875,-1.1874382495880127,-9.885647773742676,0.37477585673332214
1781678015827811600,6.6488115234375,-1.2029916048049927,-9.876974105834961,0.4537389874458313
1781678015876334300,6.697334228515625,-1.176371455192566,-9.872786521911621,0.38344982266426086
1781678015924857000,6.745857177734375,-1.1958130598068237,-9.89432144165039,0.41156548261642456
1781678015973379800,6.7943798828125,-1.1518449783325195,-9.881460189819336,0.3643072545528412
1781678016021902600,6.842902587890625,-1.169192910194397,-9.874281883239746,0.3852444589138031
1781678016070425000,6.891425048828125,-1.153340458869934,-9.886245727539062,0.4091726839542389
1781678016118947800,6.93994775390625,-1.1877373456954956,-9.889535903930664,0.39481574296951294
1781678016167470600,6.988470703125,-1.1877373456954956,-9.884750366210938,0.3574278950691223
1781678016215993600,7.03699365234375,-1.196411371231079,-9.882357597351074,0.3317050337791443
1781678016264516000,7.08551611328125,-1.1859427690505981,-9.89970588684082,0.3158525824546814
1781678016313038800,7.134038818359375,-1.1901301145553589,-9.893424034118652,0.3924229145050049
1781678016410084400,7.23108447265625,-1.1662019491195679,-9.903294563293457,0.373878538608551
1781678016458607000,7.279607177734375,-1.205085277557373,-9.881759643554688,0.37477585673332214
1781678016507129600,7.328129638671875,-1.2140583992004395,-9.867103576660156,0.393320232629776
1781678016555652400,7.37665234375,-1.1874382495880127,-9.885647773742676,0.349352091550827
1781678016604175400,7.42517529296875,-1.2140583992004395,-9.881759643554688,0.41485562920570374
1781678016652697900,7.47369775390625,-1.201795220375061,-9.871889114379883,0.4133601188659668
1781678016701220600,7.522220703125,-1.2029916048049927,-9.888040542602539,0.384347140789032
1781678016749743600,7.57074365234375,-1.1581261157989502,-9.869794845581055,0.35503506660461426
1781678016846788900,7.667788818359375,-1.1892328262329102,-9.885647773742676,0.4124628007411957
1781678016895311600,7.7163115234375,-1.1772687435150146,-9.875179290771484,0.37866419553756714
1781678016943834400,7.76483447265625,-1.1835498809814453,-9.869794845581055,0.3717848062515259
1781678016992357000,7.813357177734375,-1.1820544004440308,-9.888638496398926,0.41874396800994873
1781678017040879900,7.8618798828125,-1.2221341133117676,-9.882955551147461,0.41066819429397583
1781678017089402400,7.91040234375,-1.1877373456954956,-9.87667465209961,0.3798605799674988
1781678017137925400,7.95892529296875,-1.210170030593872,-9.886545181274414,0.3813561201095581
1781678017186448100,8.0074482421875,-1.1955139636993408,-9.843474388122559,0.42771705985069275
1781678017234970600,8.055970703125,-1.176371455192566,-9.897611618041992,0.42771705985069275
1781678017283493400,8.104493408203124,-1.2601202726364136,-9.897313117980957,0.4043870270252228
1781678017332016000,8.15301611328125,-1.1802598237991333,-9.844670295715332,0.4181457459926605
1781678017380539000,8.201538818359374,-1.202094316482544,-9.89432144165039,0.359820693731308
1781678017429061600,8.2500615234375,-1.20687997341156,-9.897611618041992,0.44027936458587646
1781678017477584400,8.29858447265625,-1.1853444576263428,-9.85274600982666,0.38344982266426086
1781678017526107000,8.34710693359375,-1.202094316482544,-9.903892517089844,0.353240430355072
1781678017574630000,8.3956298828125,-1.1718848943710327,-9.861719131469727,0.4169493317604065
1781678017623152600,8.444152587890626,-1.1901301145553589,-9.8838529586792,0.38225340843200684
1781678017671675100,8.492675048828126,-1.2131611108779907,-9.880562782287598,0.39541393518447876
1781678017720198000,8.541197998046876,-1.1778669357299805,-9.882357597351074,0.3858426511287689
1781678017768720600,8.589720703125,-1.200299620628357,-9.864710807800293,0.3966103494167328
1781678017817243400,8.638243408203126,-1.2011969089508057,-9.88415241241455,0.40767714381217957
1781678017865766100,8.68676611328125,-1.150349497795105,-9.888638496398926,0.41575294733047485
1781678017914289000,8.735288818359376,-1.1994023323059082,-9.888040542602539,0.3858426511287689
1781678017962811400,8.783811279296875,-1.2065808773040771,-9.892826080322266,0.37148571014404297
1781678018011334100,8.832334228515625,-1.1766705513000488,-9.892526626586914,0.389431893825531
1781678018059856600,8.880856689453125,-1.1886346340179443,-9.842277526855469,0.38614174723625183
1781678018108379600,8.929379638671875,-1.191625714302063,-9.906285285949707,0.3798605799674988
1781678018156902400,8.97790234375,-1.1934202909469604,-9.879067420959473,0.3939184248447418
1781678018205425200,9.026425048828125,-1.212263822555542,-9.878469467163086,0.36311084032058716
1781678018253947600,9.07494775390625,-1.2221341133117676,-9.895218849182129,0.397208571434021
1781678018302470400,9.123470458984375,-1.1805589199066162,-9.880562782287598,0.38763725757598877
1781678018350993200,9.1719931640625,-1.1883355379104614,-9.855438232421875,0.3981058597564697
1781678018399516000,9.220515869140625,-1.1748759746551514,-9.867402076721191,0.3358924686908722
1781678018496561400,9.3175615234375,-1.2113664150238037,-9.892826080322266,0.3613162338733673
1781678018545084000,9.366083984375,-1.184447169303894,-9.855138778686523,0.3930211067199707
1781678018593606700,9.414606689453125,-1.2281162738800049,-9.883255004882812,0.373878538608551
1781678018642129400,9.46312939453125,-1.246660590171814,-9.864710807800293,0.41874396800994873
1781678018690652200,9.511652099609375,-1.1850453615188599,-9.841679573059082,0.393320232629776
1781678018739175000,9.5601748046875,-1.0082756280899048,-9.71396255493164,0.35473597049713135
1781678018787697400,9.608697509765625,-0.7977072596549988,-10.000204086303711,0.5614160299301147
1781678018836220200,9.65722021484375,-1.028315544128418,-10.113563537597656,0.3454637825489044
1781678018933265400,9.754265380859374,-0.7537391185760498,-9.8871431350708,0.44446679949760437
1781678018981788200,9.8027880859375,-0.729810893535614,-9.914959907531738,0.30239295959472656
1781678019030311000,9.851310791015624,-0.7920243144035339,-9.748359680175781,0.5344967842102051
1781678019078833700,9.899833740234374,-0.8225327730178833,-9.455537796020508,0.3939184248447418
1781678019127356400,9.9483564453125,-0.7728816866874695,-8.87109088897705,0.4618147611618042
1781678019175879200,9.996879150390624,-0.8470591902732849,-8.799007415771484,0.0933200865983963
1781678019224401700,10.045401611328124,-0.5159524083137512,-9.490832328796387,0.3445664644241333
1781678019272924400,10.09392431640625,1.7138592004776,-10.423733711242676,2.643171787261963
1781678019321447200,10.142447265625,-1.0298110246658325,-13.113265991210938,2.511566400527954
1781678019369969700,10.1909697265625,1.0893324613571167,-10.40339469909668,2.6886353492736816
1781678019418492400,10.239492431640626,0.9388837814331055,-9.41037368774414,2.1143579483032227
1781678019467015000,10.288014892578126,1.6253247261047363,-8.831010818481445,1.2975081205368042
1781678019515537700,10.33653759765625,1.5448660850524902,-8.98086166381836,1.210768222808838
1781678019564060400,10.385060302734376,1.3767703771591187,-8.739485740661621,1.2275179624557495
1781678019612583200,10.433583251953126,1.1730812788009644,-9.25154972076416,2.1281166076660156
1781678019661106000,10.48210595703125,2.0572292804718018,-9.554540634155273,2.9374887943267822
1781678019709628700,10.530628662109375,1.8705891370773315,-11.673086166381836,3.547060489654541
1781678019758151400,10.5791513671875,0.3439682424068451,-14.15982723236084,1.7389838695526123
1781678019806674000,10.627673828125,-0.1301097273826599,-12.81177043914795,-0.3077768087387085
1781678019855196700,10.67619677734375,-1.404586911201477,-8.478668212890625,1.8526428937911987
1781678019903719400,10.724719482421875,-1.877767562866211,-7.8780694007873535,0.384347140789032
1781678019952242000,10.773241943359375,-0.5694918036460876,-10.653743743896484,-2.0895323753356934
1781678020000764700,10.8217646484375,-0.7752745151519775,-8.7236328125,0.4384847581386566
1781678020097810000,10.918809814453125,-0.27427729964256287,-7.798807144165039,-1.1156535148620605
1781678020146332700,10.967332763671875,-0.6275177597999573,-9.548857688903809,2.0425732135772705
1781678020194855400,11.01585546875,-0.21236300468444824,-8.973084449768066,2.006680965423584
1781678020243378000,11.0643779296875,0.781555712223053,-8.495118141174316,1.4763715267181396
1781678020291900700,11.112900634765625,1.2915260791778564,-11.109875679016113,0.5653043389320374
1781678020340423200,11.161423095703125,0.0364905446767807,-13.039387702941895,0.5494518876075745
1781678020388946000,11.20994580078125,-2.257927179336548,-11.737393379211426,-0.5545366406440735
1781678020437468700,11.25846875,-3.5763726234436035,-8.735597610473633,0.6125625967979431
1781678020485991200,11.3069912109375,-2.974876642227173,-13.454243659973145,-0.16031911969184875
1781678020534514000,11.355513916015624,-3.129213809967041,-13.17398452758789,3.004487991333008
1781678020583036400,11.404036376953124,0.50907301902771,-8.267202377319336,1.236191987991333
1781678020631559000,11.452558837890624,2.037189483642578,-8.696115493774414,0.3858426511287689
1781678020680081700,11.50108154296875,0.004187439568340778,-7.359724044799805,2.9877381324768066
1781678020728604400,11.5496044921875,2.754138946533203,-4.776073932647705,1.83828604221344
1781678020777127000,11.598126953125,0.6323033571243286,-6.012266159057617,2.691028118133545
1781678020825649700,11.646649658203126,1.7338991165161133,-15.349957466125488,-0.022432712838053703
1781678020874172400,11.69517236328125,-1.7868403196334839,-16.941781997680664,1.7596219778060913
1781678020922695000,11.74369482421875,-0.6705885529518127,-11.392827033996582,-0.92691969871521
1781678020971217700,11.7922177734375,-0.23988047242164612,-10.618748664855957,-0.19202402234077454
1781678021019740400,11.840740478515626,0.615553617477417,-11.132308006286621,-3.180659532546997
1781678021068263000,11.889262939453126,0.06759724020957947,-7.504789352416992,-2.393420934677124
1781678021165308200,11.98630810546875,0.4052843451499939,-7.345367431640625,0.10348957777023315
1781678021213830700,12.03483056640625,-0.8318049907684326,-8.173882484436035,2.251646041870117
1781678021262353400,12.083353515625,0.8772686123847961,-8.667402267456055,2.5746772289276123
1781678021310876200,12.131876220703125,2.868396043777466,-10.094720840454102,1.1150553226470947
1781678021359398700,12.180398681640625,0.737587571144104,-12.377472877502441,1.5744773149490356
1781678021407921400,12.22892138671875,-1.2759727239608765,-12.197712898254395,-2.234896421432495
1781678021456444000,12.27744384765625,-2.2764716148376465,-6.158228397369385,-0.21595224738121033
1781678021504966700,12.325966552734375,-5.682056427001953,-16.518253326416016,0.20159530639648438
1781678021553489200,12.3744892578125,-1.9079769849777222,-16.610076904296875,0.47796630859375
1781678021602011600,12.42301171875,2.1693928241729736,-5.726922035217285,4.159623146057129
1781678021699057200,12.52005712890625,1.4611172676086426,-6.591329097747803,-2.463710069656372
1781678021796102100,12.61710205078125,-0.9771689176559448,-9.358927726745605,2.678166627883911
1781678021844625000,12.665625,3.597010612487793,-15.130714416503906,1.4347963333129883
1781678021893147400,12.7141474609375,-3.1244282722473145,-17.239389419555664,3.547060489654541
1781678021941670100,12.762670166015624,-2.4717857837677,-10.874780654907227,-3.2548370361328125
1781678021990193000,12.81119287109375,-0.22103698551654816,-10.276275634765625,-0.01375873014330864
1781678022038715400,12.85971533203125,-1.7252250909805298,-12.253046989440918,-4.313661098480225
1781678022087238000,12.90823779296875,0.4387838542461395,-6.870391845703125,-3.64337158203125
1781678022135760600,12.9567607421875,-2.5995028018951416,-7.4949188232421875,-2.1975085735321045
1781678022184283100,13.005283203125,1.9567307233810425,-7.511668682098389,-1.1300104856491089
1781678022232805600,13.0538056640625,0.6011967062950134,-6.6984076499938965,5.021936416625977
1781678022281328400,13.102328369140626,0.10588239878416061,-8.782556533813477,3.1172497272491455
1781678022329851000,13.150850830078125,0.9969097375869751,-11.539985656738281,3.0346972942352295
1781678022378373600,13.19937353515625,-0.26141586899757385,-11.641081809997559,2.4951157569885254
1781678022426896100,13.247896240234375,-2.416750907897949,-10.59631633758545,-0.7283154129981995
1781678022475418600,13.296418701171875,-3.469592809677124,-12.063116073608398,-2.729313373565674
1781678022523941400,13.34494140625,-3.48783802986145,-17.462221145629883,1.4889339208602905
1781678022572464000,13.393464111328125,-0.628415048122406,-9.357730865478516,5.6656060218811035
1781678022620986600,13.441986572265625,2.0171494483947754,-8.203194618225098,1.7682958841323853
1781678022669509000,13.490509033203125,0.6293123364448547,-7.366603374481201,-0.7088736891746521
1781678022718031600,13.539031494140625,1.4841482639312744,-4.77039098739624,0.8464609980583191
1781678022766554000,13.58755419921875,2.7412774562835693,-3.39870548248291,2.9129624366760254
1781678022815076900,13.636076904296875,-2.9856443405151367,-12.512667655944824,1.9399809837341309
1781678022863599400,13.684599365234375,5.657230854034424,-13.663914680480957,0.8584251403808594
1781678022912122000,13.7331220703125,-6.019444465637207,-15.699309349060059,2.642573595046997
1781678022960644600,13.78164453125,-1.1102696657180786,-12.480364799499512,-3.344268798828125
1781678023009167000,13.8301669921875,-1.8837496042251587,-10.001998901367188,-0.04007977992296219
1781678023057689600,13.878689697265624,-0.99481600522995,-11.932108879089355,-6.2638115882873535
1781678023106212400,13.92721240234375,0.7328019142150879,-7.387540817260742,-3.4097721576690674
1781678023154734800,13.97573486328125,-1.0432707071304321,-8.13260555267334,-3.342773199081421
1781678023203257300,14.02425732421875,3.601198196411133,-8.041379928588867,0.7393822073936462
1781678023251780000,14.072780029296876,-0.32123643159866333,-7.998608112335205,6.678966045379639
1781678023300302600,14.121302490234376,0.8192426562309265,-9.458230018615723,2.7726831436157227
1781678023348825000,14.1698251953125,1.2903295755386353,-10.404890060424805,3.448655605316162
1781678023445870000,14.2668701171875,-2.500499725341797,-10.728519439697266,-0.5368895530700684
1781678023494392800,14.315392822265625,-3.7740795612335205,-11.338688850402832,-2.195115566253662
1781678023542915300,14.363915283203125,-3.53031063079834,-16.753047943115234,-0.48514479398727417
1781678023591437800,14.412437744140625,-3.1519455909729004,-10.268499374389648,5.110470771789551
1781678023639960300,14.460960205078125,4.080659866333008,-6.6984076499938965,1.872084617614746
1781678023688483000,14.509483154296875,0.22193430364131927,-7.095317363739014,0.30628129839897156
1781678023737005600,14.558005615234375,0.8270193338394165,-5.8953166007995605,0.716949462890625
1781678023785528000,14.606528076171875,3.8126637935638428,-3.8913278579711914,1.1303095817565918
1781678023834050800,14.65505078125,-2.313859462738037,-14.092229843139648,0.9379864931106567
1781678023882573300,14.7035732421875,4.645066738128662,-14.035400390625,2.121835470199585
1781678023931095600,14.752095458984375,-5.37278413772583,-17.794824600219727,0.44745782017707825
1781678023979618300,14.800618408203125,-1.2355937957763672,-9.005088806152344,0.09810572862625122
1781678024028140800,14.849140869140625,-1.472184181213379,-10.822138786315918,-2.572284460067749
1781678024076663600,14.89766357421875,-0.5437689423561096,-9.845867156982422,-4.138685703277588
1781678024125186000,14.94618603515625,0.47198426723480225,-6.400800704956055,-0.15882360935211182
1781678024173708500,14.99470849609375,-1.6238292455673218,-6.704689025878906,-1.438983678817749
1781678024222231000,15.04323095703125,0.5557330846786499,-7.424330234527588,1.0992028713226318
1781678024270753500,15.09175341796875,0.4911268353462219,-7.70877742767334,4.103092670440674
1781678024319276000,15.140276123046876,-0.2066800594329834,-10.91037368774414,2.984447956085205
1781678024416321000,15.237321044921876,-1.555932879447937,-12.77767276763916,0.6804589629173279
1781678024464843800,15.28584375,-2.1918256282806396,-9.009575843811035,-1.4231312274932861
1781678024513366300,15.3343662109375,-3.1091740131378174,-11.725728034973145,-3.8327035903930664
1781678024610411300,15.431411376953125,0.4085744619369507,-7.991130352020264,5.528018474578857
1781678024658933800,15.479933837890625,1.6070795059204102,-6.524330139160156,0.4339981973171234
1781678024707456300,15.528456298828125,1.0630114078521729,-6.321238994598389,-1.8696918487548828
1781678024755978800,15.576978759765625,1.8026927709579468,-5.224130153656006,-0.08225327730178833
1781678024804501500,15.62550146484375,-0.4049852192401886,-8.087141990661621,2.2474586963653564
1781678024853023700,15.674023681640625,4.243969917297363,-15.496517181396484,0.05114658549427986
1781678024901546200,15.722546142578125,-2.3132612705230713,-15.081960678100586,4.42821741104126
1781678024950069000,15.771069091796875,-2.193620204925537,-13.841880798339844,-2.667997360229492
1781678024998591200,15.81959130859375,-1.85383939743042,-10.83559799194336,0.2997010350227356
1781678025047114000,15.868114013671875,-0.4492524564266205,-10.05404281616211,-3.991826295852661
1781678025095636500,15.916636474609374,1.7772690057754517,-6.237191200256348,-1.866999864578247
1781678025144158700,15.96515869140625,-3.008376359939575,-5.8959150314331055,0.5497509837150574
1781678025192681200,16.01368115234375,-1.2975081205368042,-8.000701904296875,-0.6263213157653809
1781678025241204000,16.062203857421874,0.18723836541175842,-6.363412857055664,1.4036896228790283
1781678025289726500,16.1107265625,0.5760720372200012,-9.35025405883789,3.222533941268921
1781678025338249000,16.1592490234375,1.5568302869796753,-11.992827415466309,1.5831513404846191
1781678025435293700,16.256293701171874,-1.9914265871047974,-11.148160934448242,-1.4796617031097412
1781678025483816400,16.30481640625,-2.652743101119995,-7.036693096160889,-0.4043870270252228
1781678025532338700,16.353338623046874,-3.3293135166168213,-17.116758346557617,-2.682354211807251
1781678025580861400,16.401861328125,-3.90987229347229,-14.478072166442871,5.350949764251709
1781678025629383700,16.4503837890625,3.10109806060791,-7.181458950042725,3.854238986968994
1781678025726428700,16.5474287109375,1.2795618772506714,-4.713262557983398,-1.1611171960830688
1781678025774951200,16.595951171875,2.9479575157165527,-4.063611030578613,-0.0972084179520607
1781678025823473400,16.644473388671877,-2.085644006729126,-12.917353630065918,1.8131613731384277
1781678025871996200,16.69299609375,5.72123908996582,-14.274682998657227,2.8899314403533936
1781678025920518700,16.7415185546875,-3.416053533554077,-15.635600090026855,4.476073741912842
1781678025969041200,16.790041259765626,-1.6630117893218994,-12.324831008911133,-2.589034080505371
1781678026017563600,16.838563720703124,-1.7045869827270508,-10.9573335647583,-1.2403794527053833
1781678026066086100,16.887086181640626,-0.2431706041097641,-9.54915714263916,-3.084348440170288
1781678026163131100,16.984131103515626,-3.271885871887207,-6.774080753326416,-2.8636105060577393
1781678026211653400,17.0326533203125,0.6598208546638489,-8.500801086425781,0.46331027150154114
1781678026260176100,17.081176025390626,0.8335995674133301,-6.597609996795654,4.323830604553223
1781678026308698600,17.12969873046875,-0.018544375896453857,-7.8092756271362305,4.0543389320373535
1781678026357220900,17.178220947265626,1.311864972114563,-13.644771575927734,2.3344976902008057
1781678026405743400,17.226743408203124,0.26231318712234497,-13.328919410705566,2.752643346786499
1781678026454266000,17.27526611328125,-2.201396942138672,-10.536495208740234,-0.9613165259361267
1781678026502788400,17.323788330078123,-2.7550361156463623,-8.724231719970703,-2.297708034515381
1781678026551310800,17.372310791015625,-3.471088409423828,-18.028423309326172,-3.548556089401245
1781678026599833300,17.420833251953123,-3.1896326541900635,-11.106884956359863,5.674279689788818
1781678026648355600,17.46935546875,3.317349433898926,-6.761518478393555,3.1435706615448
1781678026696878000,17.517878173828127,0.1818545162677765,-6.461219310760498,-1.6040884256362915
1781678026745400600,17.566400634765625,1.2675977945327759,-5.506782054901123,-2.2220349311828613
1781678026793923000,17.614923095703126,2.8935208320617676,-4.12851619720459,1.3010972738265991
1781678026842445600,17.663445556640625,-1.7620147466659546,-12.938590049743652,2.2342982292175293
1781678026890968000,17.711968017578126,3.888935089111328,-16.22513198852539,2.037787675857544
1781678026939490300,17.760490234375,-2.432603359222412,-16.37946891784668,2.7574288845062256
1781678026988012800,17.8090126953125,-1.0704890489578247,-9.779465675354004,-0.9619147181510925
1781678027036535300,17.857535400390624,-1.4901303052902222,-10.272387504577637,-0.5853442549705505
1781678027085057800,17.906057861328126,-0.15074782073497772,-9.958329200744629,-4.289433479309082
1781678027133580300,17.954580322265624,0.776171863079071,-6.586543560028076,-1.4413765668869019
1781678027182102800,18.003102783203126,-2.7269206047058105,-6.3993048667907715,-0.8838488459587097
1781678027230625300,18.051625244140624,0.09481559693813324,-7.830811023712158,0.07986045628786087
1781678027279147500,18.1001474609375,0.09810572862625122,-7.643273830413818,2.940180778503418
1781678027327670000,18.148669921875,0.9553344249725342,-9.594620704650879,3.0340991020202637
1781678027376192300,18.197192138671873,1.5448660850524902,-12.467204093933105,1.8625133037567139
1781678027424714800,18.24571484375,0.10827522724866867,-13.304692268371582,1.0498509407043457
1781678027473237200,18.2942373046875,-2.326720952987671,-9.978668212890625,-1.3357932567596436
1781678027521759700,18.342759765625,-3.0275187492370605,-10.195816993713379,-1.8550357818603516
1781678027570282000,18.391281982421877,-4.13060998916626,-17.906389236450195,-1.552343726158142
1781678027618804500,18.439804443359375,-2.484647274017334,-10.074381828308105,5.446064472198486
1781678027667327000,18.488326904296876,2.4741785526275635,-6.999006271362305,1.9286150932312012
1781678027764371700,18.585371826171876,1.0217353105545044,-5.580062389373779,-0.8527421951293945
1781678027812894500,18.63389453125,2.210070848464966,-3.9370906352996826,1.5394822359085083
1781678027861416700,18.682416748046876,0.14267204701900482,-14.977574348449707,1.189831018447876
1781678027909939200,18.730939208984374,1.32711923122406,-15.513566970825195,3.4025938510894775
1781678027958461400,18.77946142578125,-1.9974087476730347,-16.43091583251953,-0.22103698551654816
1781678028006984000,18.82798388671875,-1.2197413444519043,-7.638488292694092,0.6849454641342163
1781678028055506400,18.87650634765625,-0.7794619798660278,-11.319846153259277,-2.8037898540496826
1781678028104029000,18.92502880859375,0.2871387302875519,-8.714061737060547,-2.601895570755005
1781678028152551200,18.97355126953125,-0.7292127013206482,-7.572386264801025,-0.6092724800109863
1781678028201073700,19.02207373046875,-1.0160523653030396,-7.009474754333496,-1.1327024698257446
1781678028249596200,19.07059619140625,-0.5330012440681458,-7.256533622741699,2.013859272003174
1781678028298118400,19.119118408203125,-0.29820552468299866,-8.212167739868164,2.5537400245666504
1781678028346641000,19.167640869140627,2.242672920227051,-8.810373306274414,2.5061826705932617
1781678028395163400,19.216163330078125,1.9405791759490967,-12.333505630493164,1.8903298377990723
1781678028443685600,19.264685546875,-0.6813562512397766,-14.298012733459473,-0.6909275650978088
1781678028492208000,19.3132080078125,-3.1642088890075684,-9.48903751373291,-0.8943174481391907
1781678028540730600,19.361730712890626,-2.455035924911499,-9.114859580993652,-1.7198412418365479
1781678028589252900,19.4102529296875,-2.4646072387695312,-16.899608612060547,0.0687936544418335
1781678028637775400,19.458775390625,-3.022135019302368,-11.667403221130371,4.7264227867126465
1781678028686297600,19.507297607421876,2.628814697265625,-7.51286506652832,2.1454646587371826
1781678028734819800,19.55581982421875,0.19561325013637543,-6.487540245056152,-1.200299620628357
1781678028783342300,19.60434228515625,1.2089736461639404,-5.766104221343994,-0.9173483848571777
1781678028831864800,19.65286474609375,3.384049415588379,-3.4106695652008057,1.337587833404541
1781678028880387000,19.701386962890624,-2.2190439701080322,-14.947065353393555,1.8687944412231445
1781678028928909600,19.74990966796875,4.068696022033691,-14.80977725982666,3.0933215618133545
1781678028977431800,19.798431884765623,-2.2881367206573486,-16.03580093383789,2.1511476039886475
1781678029025954300,19.846954345703125,-0.9158528447151184,-9.319147109985352,-0.6876373887062073
1781678029074476800,19.895476806640627,-2.2627129554748535,-9.98136043548584,-1.841576099395752
1781678029122999300,19.943999267578125,0.13489536941051483,-9.565906524658203,-4.8661041259765625
1781678029171521500,19.992521484375,1.4826527833938599,-6.93529748916626,-1.108774185180664
1781678029220044000,20.0410439453125,-2.9940192699432373,-8.251349449157715,-0.21684955060482025
1781678029317088800,20.1380888671875,0.4013960063457489,-7.633702278137207,2.4119651317596436
1781678029365611000,20.186611083984374,1.2179467678070068,-8.532805442810059,3.6553356647491455
1781678029414133500,20.235133544921876,0.8461619019508362,-12.148959159851074,2.305783748626709
1781678029462655700,20.28365576171875,-0.1618146300315857,-14.096715927124023,2.675175666809082
1781678029511178200,20.33217822265625,-2.0967109203338623,-11.032707214355469,-1.5098711252212524
1781678029559700700,20.38070068359375,-2.1903300285339355,-7.313363075256348,-1.4868401288986206
1781678029608223000,20.429222900390624,-2.448455810546875,-13.580763816833496,-3.4570305347442627
1781678029656745200,20.4777451171875,-3.7525441646575928,-14.482857704162598,5.50438928604126
1781678029705267700,20.526267822265623,1.8409779071807861,-7.411468982696533,4.635794639587402
1781678029753790000,20.5747900390625,1.3073785305023193,-7.333104133605957,-1.7066807746887207
1781678029802312400,20.6233125,1.0097711086273193,-6.186343669891357,-1.0495518445968628
1781678029850835000,20.6718349609375,2.9374887943267822,-5.059324264526367,0.2153540402650833
1781678029899357000,20.72035693359375,-1.6480566263198853,-10.574780464172363,2.59621262550354
1781678029947879400,20.76887939453125,3.7639100551605225,-14.987743377685547,1.1724830865859985
1781678029996402000,20.81740185546875,-0.6421737670898438,-15.39781379699707,4.345963954925537
1781678030044924200,20.865924072265624,-2.318047046661377,-12.266206741333008,-1.0941181182861328
1781678030093446400,20.9144462890625,-1.445863127708435,-8.709874153137207,-0.2709871530532837
1781678030141969000,20.962968994140624,-0.7959126234054565,-10.521241188049316,-3.9610188007354736
1781678030190491100,21.0114912109375,2.415853500366211,-7.946564197540283,-1.8409779071807861
1781678030239013600,21.060013671875,-3.5901312828063965,-7.368099212646484,-0.0364905446767807
1781678030287535900,21.108535888671874,-0.7250252366065979,-7.482356548309326,-1.2577273845672607
1781678030336058000,21.15705810546875,0.019740786403417587,-7.439285755157471,1.379163146018982
1781678030384580600,21.20558056640625,1.0863415002822876,-8.763114929199219,4.029513359069824
1781678030433103000,21.25410302734375,1.0893324613571167,-11.548359870910645,2.14935302734375
1781678030481625300,21.302625244140625,-0.3613162338733673,-14.869598388671875,2.635993242263794
1781678030530147600,21.351147705078127,-1.201795220375061,-11.164012908935547,-0.9849455952644348
1781678030578669800,21.399669921875,-1.7012969255447388,-5.110171794891357,-1.5020943880081177
1781678030627192300,21.4481923828125,-1.968395709991455,-14.349757194519043,-3.6017963886260986
1781678030675714800,21.49671484375,-4.689034938812256,-15.735799789428711,3.5150563716888428
1781678030724237000,21.545237060546874,1.0785647630691528,-7.618747234344482,4.410869598388672
1781678030772759300,21.59375927734375,1.3854442834854126,-6.74446964263916,0.24077777564525604
1781678030821281800,21.64228173828125,1.337587833404541,-6.945466995239258,-1.6875381469726562
1781678030918326500,21.739326416015626,0.06789634376764297,-10.79013442993164,2.226820468902588
1781678030966848800,21.787848876953124,2.822932481765747,-15.180665016174316,1.6342978477478027
1781678031015371300,21.836371337890625,-1.6615161895751953,-15.731911659240723,2.375474691390991
1781678031063893200,21.884893310546875,-0.9987043738365173,-9.592825889587402,0.1537388563156128
1781678031112415700,21.933415771484373,-0.9373882412910461,-11.114063262939453,-1.7291134595870972
1781678031160938200,21.981938232421875,-0.06161518394947052,-9.736993789672852,-4.373481750488281
1781678031209460500,22.03046044921875,1.267298698425293,-6.901498794555664,-0.5796613097190857
1781678031257982700,22.078982666015627,-2.692523717880249,-8.101499557495117,0.8297112584114075
1781678031306505200,22.127505126953125,-0.7905287742614746,-7.89332389831543,1.1216355562210083
1781678031355027500,22.17602734375,0.3397808074951172,-7.435397148132324,1.927119493484497
1781678031403549700,22.2245498046875,1.5242279767990112,-7.500601768493652,1.5044872760772705
1781678031452072200,22.273072265625,1.3049856424331665,-12.282957077026367,0.4983053207397461
1781678031500594200,22.32159423828125,-0.5042873620986938,-13.08245849609375,-0.24077777564525604
1781678031549116700,22.37011669921875,-1.40279221534729,-8.894720077514648,-0.8895317912101746
1781678031597639000,22.418638916015624,-2.606382131576538,-12.245867729187012,-2.2549362182617188
1781678031694683600,22.51568359375,-0.9314061999320984,-9.47647476196289,5.514558792114258
1781678031743206000,22.564205810546873,2.8507490158081055,-7.564609527587891,-0.10827522724866867
1781678031791728000,22.61272802734375,1.3334003686904907,-6.265905380249023,-2.0904297828674316
1781678031840250400,22.66125048828125,0.7959126234054565,-5.065605640411377,-1.7856439352035522
1781678031888772900,22.70977294921875,2.075474500656128,-6.345765590667725,0.9323035478591919
1781678031937295000,22.758295166015625,-0.7648059129714966,-15.422638893127441,0.9840483069419861
1781678031985817600,22.806817626953126,3.9792640209198,-12.938590049743652,6.167201042175293
1781678032034339800,22.85533984375,-2.6336004734039307,-14.276476860046387,1.181157112121582
1781678032082862000,22.903862060546874,-0.18843477964401245,-9.924530982971191,-1.7856439352035522
1781678032131384300,22.95238427734375,-1.505982756614685,-9.501001358032227,-0.27038896083831787
1781678032179906600,23.000906494140626,0.4618147611618042,-11.504093170166016,-4.646861553192139
1781678032228428800,23.0494287109375,2.6862425804138184,-7.371389389038086,-1.1850453615188599
1781678032276951300,23.097951416015626,-6.285048007965088,-8.930013656616211,0.125922292470932
1781678032325473500,23.1464736328125,0.30957141518592834,-8.606085777282715,0.17766708135604858
1781678032373995800,23.194995849609374,-0.22492532432079315,-6.234200477600098,0.4624129831790924
1781678032422518300,23.243518310546875,1.6501502990722656,-8.082955360412598,-0.008973085321485996
1781678032519562800,23.340562744140627,-0.5138586759567261,-12.686147689819336,1.0680961608886719
1781678032568085000,23.3890849609375,-1.4039887189865112,-10.040284156799316,-2.446362018585205
1781678032616607500,23.437607421875,-2.729612350463867,-11.466405868530273,-2.9168508052825928
1781678032665129500,23.48612939453125,-3.2120652198791504,-16.55414581298828,0.9744769930839539
1781678032713652000,23.53465185546875,-2.5525436401367188,-10.013962745666504,4.960919380187988
1781678032762174200,23.58317431640625,1.48055899143219,-7.334898948669434,1.191625714302063
1781678032810696400,23.631696533203126,1.490728497505188,-6.808178424835205,-2.08713960647583
1781678032859218700,23.68021875,1.3630115985870361,-5.4556355476379395,-1.7330018281936646
1781678032907741200,23.7287412109375,1.3576277494430542,-5.7394843101501465,1.9381862878799438
1781678032956263200,23.77726318359375,2.012363910675049,-15.114862442016602,-0.6493522524833679
1781678033004785700,23.82578564453125,2.65842604637146,-13.017553329467773,5.9886369705200195
1781678033053308000,23.874307861328123,-5.312963485717773,-15.828521728515625,-0.4657030999660492
1781678033101830100,23.922830078125,-0.9936196208000183,-9.592227935791016,-0.6508477330207825
1781678033150352400,23.971352294921875,-1.1237293481826782,-11.401201248168945,-3.649054527282715
1781678033198875000,24.019875,1.3806586265563965,-7.980960845947266,-3.707080364227295
1781678033247397000,24.068397216796875,-2.0141584873199463,-6.734001159667969,1.069591760635376
1781678033295919400,24.11691943359375,-2.3778674602508545,-8.93420124053955,-1.2403794527053833
1781678033344441600,24.165441650390626,0.07477571070194244,-7.179066181182861,0.875174880027771
1781678033392963600,24.213963623046876,0.8350951075553894,-6.879963397979736,1.4327025413513184
1781678033441486000,24.262486083984374,2.1505494117736816,-10.11296558380127,1.9986051321029663
1781678033490008300,24.31100830078125,-0.2871387302875519,-14.535500526428223,2.9856443405151367
1781678033538530600,24.359530517578126,-0.380458801984787,-13.630414962768555,0.6149554252624512
1781678033587052800,24.408052734375,-2.077867269515991,-7.918448448181152,-1.5332010984420776
1781678033635575000,24.456574951171874,-1.7976080179214478,-9.345467567443848,-3.1268210411071777
1781678033684097300,24.50509716796875,-3.6834514141082764,-17.14397621154785,-0.2144567221403122
1781678033732619800,24.553619873046873,-1.6016956567764282,-10.08006477355957,6.141777515411377
1781678033781142000,24.60214208984375,2.0425732135772705,-6.68225622177124,1.3773685693740845
1781678033829664300,24.650664306640625,0.9900303483009338,-6.15972375869751,-1.965105652809143
1781678033878186500,24.6991865234375,2.0018951892852783,-4.596612453460693,-0.97926265001297
1781678033926708700,24.747708740234376,1.932802438735962,-5.347958564758301,2.6066811084747314
1781678033975231000,24.79623095703125,-0.6622136831283569,-18.589839935302734,1.446162223815918
1781678034072275500,24.893275390625,-2.3712873458862305,-15.145071983337402,-0.5138586759567261
1781678034120797700,24.941797607421876,-1.2714861631393433,-8.722436904907227,0.29371899366378784
1781678034169320000,24.99031982421875,-0.986740231513977,-10.830513954162598,-3.915555238723755
1781678034217842200,25.03884228515625,1.2029916048049927,-8.139784812927246,-4.19072961807251
1781678034266364400,25.087364501953125,-0.737587571144104,-6.56829833984375,1.1470593214035034
1781678034314887000,25.135886962890623,-1.0917253494262695,-7.752745151519775,-0.9074779748916626
1781678034363409000,25.184408935546877,-0.7758727669715881,-8.012067794799805,2.2055842876434326
1781678034411931100,25.23293115234375,0.3406781256198883,-8.124231338500977,3.358027458190918
1781678034460453400,25.281453369140625,2.0243279933929443,-9.890433311462402,1.3432707786560059
1781678034508975600,25.3299755859375,0.9110672473907471,-13.674981117248535,0.9858429431915283
1781678034557497900,25.378497802734376,-0.018544375896453857,-13.741382598876953,0.794417142868042
1781678034606020000,25.42702001953125,-1.8059829473495483,-8.77059268951416,-0.753140926361084
1781678034654542300,25.475542236328124,-2.5522444248199463,-8.487939834594727,-2.5995028018951416
1781678034703064600,25.524064697265626,-3.6400814056396484,-16.850257873535156,-2.68325138092041
1781678034751586800,25.5725869140625,-2.596810817718506,-11.341381072998047,5.334199905395508
1781678034800109000,25.621109130859374,2.4400808811187744,-6.416653156280518,2.675773859024048
1781678034848631300,25.66963134765625,1.215553879737854,-6.318547248840332,-1.633699655532837
1781678034897153500,25.718153564453125,1.9423737525939941,-5.226522922515869,-1.2233306169509888
1781678034945675800,25.76667578125,2.665006160736084,-4.622035980224609,2.115255117416382
1781678034994197800,25.81519775390625,-1.4970096349716187,-17.545671463012695,2.0404794216156006
1781678035042720300,25.86372021484375,2.975774049758911,-14.087444305419922,5.443073272705078
1781678035091242500,25.912242431640625,-1.9516459703445435,-16.011871337890625,-0.5461617708206177
1781678035139764700,25.9607646484375,-0.9628120064735413,-8.458029747009277,0.16091732680797577
1781678035188287000,26.009286865234376,-0.6131607890129089,-10.7826566696167,-1.6342978477478027
1781678035236809200,26.057809326171874,1.740180253982544,-8.880363464355469,-3.759124279022217
1781678035285331200,26.106331298828124,-0.6939185857772827,-6.626623153686523,-1.2484551668167114
1781678035333853700,26.154853759765626,-1.7228323221206665,-6.470790863037109,-1.9917258024215698
1781678035382375700,26.203375732421875,-0.3885345757007599,-8.108378410339355,1.3558331727981567
1781678035430898000,26.25189794921875,0.9317052960395813,-8.57767105102539,2.5674986839294434
1781678035479420200,26.300420166015623,0.4579264223575592,-8.729615211486816,3.6681971549987793
1781678035527942400,26.3489423828125,1.5260226726531982,-13.074382781982422,-0.052043892443180084
1781678035576464600,26.397464599609375,0.6906284093856812,-14.567503929138184,-0.539880633354187
1781678035673508900,26.4945087890625,-2.9724838733673096,-8.522336959838867,-0.46480581164360046
1781678035722031400,26.54303125,-2.854039192199707,-14.465510368347168,-3.702594041824341
1781678035770553600,26.5915537109375,-3.1289145946502686,-12.782458305358887,4.156332969665527
1781678035819075600,26.64007568359375,2.8354947566986084,-7.372286796569824,3.602693557739258
1781678035867597800,26.688597900390626,0.5168496966362,-6.663413047790527,-0.41066819429397583
1781678035916120000,26.7371201171875,1.89840567111969,-5.12602424621582,-1.8753747940063477
1781678035964642300,26.785642333984374,2.910569667816162,-3.665804386138916,0.06071787327528
1781678036013164500,26.83416455078125,-1.0211371183395386,-12.565309524536133,2.942274570465088
1781678036061686800,26.882686767578125,3.2781670093536377,-16.929819107055664,0.748056173324585
1781678036110208800,26.931208740234375,-3.4606196880340576,-17.262720108032227,3.0340991020202637
1781678036207253200,27.028253173828126,-0.9864411354064941,-11.20798110961914,-1.3265210390090942
1781678036255775200,27.076775146484376,-0.15732808411121368,-10.338788032531738,-4.881956577301025
1781678036304297500,27.12529736328125,0.31764721870422363,-7.657032489776611,-0.7992027401924133
1781678036352819700,27.17381982421875,-2.0832512378692627,-7.05344295501709,-1.3202399015426636
1781678036401342000,27.222342041015626,0.2880360186100006,-6.9756760597229,-0.5617151260375977
1781678036449864200,27.2708642578125,-0.5497509837150574,-7.825427532196045,1.485344648361206
1781678036498386400,27.319386474609374,1.0307083129882812,-8.007282257080078,2.9536404609680176
1781678036546908400,27.367908447265624,2.5899314880371094,-12.510574340820312,3.5446677207946777
1781678036595430700,27.4164306640625,0.06939185410737991,-13.759627342224121,1.257129192352295
1781678036643953000,27.464952880859375,-2.3778674602508545,-9.427123069763184,-0.18424734473228455
1781678036692475100,27.51347509765625,-2.6057839393615723,-9.827920913696289,-1.3414762020111084
1781678036740997000,27.5619970703125,-4.051048755645752,-19.67139434814453,-1.2131611108779907
1781678036789519400,27.610519287109376,-1.5894324779510498,-10.081560134887695,5.1080780029296875
1781678036838041600,27.65904150390625,2.345564365386963,-5.80917501449585,4.29033088684082
1781678036886563800,27.707563720703124,0.6915257573127747,-5.798706531524658,-1.3405789136886597
1781678036935085800,27.7560859375,3.0789644718170166,-4.650749683380127,-1.8966110944747925
1781678036983608300,27.8046083984375,1.0040881633758545,-5.387141227722168,2.2860429286956787
1781678037032130300,27.85313037109375,0.1178465187549591,-17.04108428955078,0.3119642436504364
1781678037080652500,27.901652587890624,4.603192329406738,-13.810773849487305,4.7967119216918945
1781678037177696800,27.99869677734375,-0.363709032535553,-8.550153732299805,-1.4506487846374512
1781678037226219000,28.047218994140625,-1.5361921787261963,-10.14616584777832,-1.6002001762390137
1781678037274741200,28.0957412109375,0.09631111472845078,-10.25503921508789,-4.084548473358154
1781678037323263200,28.14426318359375,0.025722842663526535,-7.356434345245361,0.15732808411121368
1781678037371785500,28.192785400390626,-2.390429735183716,-7.622934818267822,-1.8993029594421387
1781678037420307700,28.2413076171875,0.2267199456691742,-7.703393459320068,-0.33798620104789734
1781678037468830000,28.289829833984374,0.8991031050682068,-6.856334209442139,3.155235767364502
1781678037517352200,28.338352294921876,0.5694918036460876,-8.40030288696289,4.243969917297363
1781678037565874200,28.386874267578126,0.37507495284080505,-13.62174129486084,2.4747767448425293
1781678037614396200,28.435396240234375,0.16271193325519562,-12.92602825164795,1.7189439535140991
1781678037662918400,28.48391845703125,-1.3728820085525513,-9.064909934997559,-0.8009973764419556
1781678037711440600,28.532440673828123,-2.0297117233276367,-8.959325790405273,-2.661417007446289
1781678037759963000,28.580962890625,-3.799802303314209,-19.578672409057617,-2.903989315032959
1781678037808485000,28.629485107421875,-2.123929262161255,-10.6624174118042,4.806582450866699
1781678037857007000,28.678007080078125,2.2301106452941895,-6.256333827972412,5.234000205993652
1781678037905529000,28.726529052734374,1.2011969089508057,-5.54596471786499,-2.4996023178100586
1781678037954051300,28.77505126953125,1.9348962306976318,-6.518647193908691,-2.1975085735321045
1781678038002573600,28.823573486328126,1.6516457796096802,-5.579164981842041,1.7461622953414917
1781678038051095600,28.872095458984376,-0.2315055876970291,-15.708282470703125,1.031306505203247
1781678038099617800,28.92061767578125,4.679463863372803,-14.033905029296875,4.804787635803223
1781678038148139800,28.969139892578124,-4.343571186065674,-16.162620544433594,1.1662019491195679
1781678038196662000,29.017662109375,-0.2431706041097641,-8.73619556427002,0.012562318705022335
1781678038245184300,29.066184326171875,-0.9729815125465393,-10.159924507141113,-0.9373882412910461
1781678038293706500,29.11470654296875,0.740279495716095,-9.132506370544434,-4.402195453643799
1781678038342228500,29.163228515625,-0.9876375198364258,-6.448058605194092,-1.4036896228790283
1781678038390750700,29.211750732421876,-1.3001999855041504,-6.943971157073975,-2.032104730606079
1781678038487795000,29.308794921875,0.3981058597564697,-8.706583976745605,3.16749906539917
1781678038536317000,29.35731689453125,1.5514464378356934,-8.722436904907227,3.109772205352783
1781678038584839200,29.405839111328124,1.7338991165161133,-11.587841987609863,1.5427724123001099
1781678038633361400,29.454361328125,-0.24077777564525604,-14.956038475036621,-1.083350419998169
1781678038681883400,29.50288330078125,-3.5590245723724365,-8.319246292114258,0.6038886308670044
1781678038730405600,29.551405517578125,-3.706482172012329,-10.967203140258789,-2.0003998279571533
1781678038778927600,29.599927734375,-2.8674988746643066,-18.466310501098633,-0.4013960063457489
1781678038827449900,29.648449951171877,-0.8237292170524597,-8.539385795593262,5.726622581481934
1781678038875971800,29.696971923828126,2.280359983444214,-6.3978095054626465,4.030111312866211
1781678038924494000,29.745494140625,1.210170030593872,-6.2428741455078125,-2.740380048751831
1781678038973016000,29.79401611328125,2.9925239086151123,-4.662714004516602,-2.2342982292175293
1781678039021538300,29.842538330078124,0.8198408484458923,-5.97727108001709,2.0129621028900146
1781678039070060300,29.891060302734374,0.7172485589981079,-16.899011611938477,0.06999006122350693
1781678039118582500,29.93958251953125,4.704289436340332,-13.523634910583496,5.01715087890625
1781678039167104800,29.988104736328125,-5.878567218780518,-15.611372947692871,2.196611166000366
1781678039215626800,30.036626708984375,0.06849455088376999,-9.460323333740234,-2.343470573425293
1781678039264149000,30.08514892578125,-1.8400806188583374,-10.085148811340332,-1.6301103830337524
1781678039312671000,30.1336708984375,0.9308080077171326,-9.406784057617188,-4.882255554199219
1781678039361193200,30.182193115234377,-0.24017956852912903,-6.425626277923584,0.844068169593811
1781678039409715200,30.230715087890626,-2.9377880096435547,-7.950751304626465,-0.7459624409675598
1781678039458237400,30.279237548828124,0.7450651526451111,-8.166703224182129,0.18574285507202148
1781678039555281700,30.37628173828125,2.879462957382202,-9.80817985534668,2.4798614978790283
1781678039603804000,30.424803955078126,0.4579264223575592,-13.708480834960938,3.4259238243103027
1781678039700848000,30.52184814453125,-2.9958138465881348,-8.402695655822754,-1.5487544536590576
1781678039749370000,30.5703701171875,-1.6893328428268433,-11.380264282226562,-4.7611188888549805
1781678039797892000,30.61889208984375,-4.507180690765381,-18.035600662231445,2.113759756088257
1781678039846414000,30.6674140625,-0.698704183101654,-8.254639625549316,4.501497745513916
1781678039894936300,30.715936279296876,3.1902308464050293,-5.461019515991211,1.4898312091827393
1781678039943458600,30.76445849609375,1.0304092168807983,-5.447858810424805,-1.4518451690673828
1781678039991980500,30.81298046875,2.105085611343384,-4.951348304748535,-0.5997011661529541
1781678040040502500,30.86150244140625,0.5440680384635925,-7.718647480010986,2.62313175201416
1781678040089024800,30.910024658203124,0.9508479237556458,-18.465412139892578,2.020439624786377
1781678040137546800,30.958546630859374,2.072782516479492,-12.7456693649292,7.334001541137695
1781678040186069000,31.007069091796875,-3.1250264644622803,-15.059528350830078,-2.86989164352417
1781678040234591000,31.055591064453125,0.02153540402650833,-7.394719123840332,-0.709172785282135
1781678040283113000,31.104113037109375,-0.7441678643226624,-11.073983192443848,-2.3961126804351807
1781678040331635200,31.15263525390625,1.1853444576263428,-8.907581329345703,-3.990330934524536
1781678040380157200,31.2011572265625,-1.4602199792861938,-7.146463871002197,1.7569299936294556
1781678040428679400,31.249679443359376,-1.965404748916626,-8.046165466308594,-0.6714858412742615
1781678040477201400,31.298201416015626,0.3284149169921875,-7.342077255249023,1.0187442302703857
1781678040525723600,31.3467236328125,0.6933203339576721,-6.678368091583252,2.202294111251831
1781678040574245600,31.39524560546875,2.3306093215942383,-9.538688659667969,1.9175482988357544
1781678040622767900,31.443767822265624,0.9924231767654419,-13.173385620117188,1.568196177482605
1781678040671289900,31.492289794921874,-1.4889339208602905,-12.834203720092773,-0.23210379481315613
1781678040719811800,31.540811767578123,-3.5676984786987305,-9.355039596557617,0.031106693670153618
1781678040768333800,31.589333740234373,-3.193819999694824,-16.82303810119629,-3.5685958862304688
1781678040816856000,31.63785595703125,-3.239881753921509,-14.198112487792969,2.4080770015716553
1781678040865378000,31.6863779296875,0.96370929479599,-7.015756130218506,5.5998029708862305
1781678040913900000,31.734900146484375,1.6313068866729736,-5.822634696960449,1.2194422483444214
1781678040962422300,31.78342236328125,2.0099709033966064,-5.357530117034912,-2.7176482677459717
1781678041010944300,31.8319443359375,2.74546480178833,-3.4953157901763916,-0.08703892678022385
1781678041059466200,31.88046630859375,-1.8233308792114258,-12.294322967529297,2.8268208503723145
1781678041107988500,31.928988525390626,5.03061056137085,-15.992131233215332,1.6612170934677124
1781678041156510500,31.977510498046875,-2.5920250415802,-15.925729751586914,4.235296249389648
1781678041253554400,32.074554443359375,-1.2137593030929565,-10.322038650512695,-2.455634355545044
1781678041302076700,32.12307666015625,-0.5240281820297241,-10.598409652709961,-4.4736809730529785
1781678041350599000,32.17159887695313,1.0992028713226318,-7.1799635887146,-0.5958128571510315
1781678041399121000,32.22012084960937,-2.222334146499634,-6.329015731811523,-0.3206382393836975
1781678041447643000,32.268642822265626,-0.09810572862625122,-7.331608772277832,-0.7770691514015198
1781678041496164900,32.31716479492187,1.124626636505127,-7.153642177581787,3.8413777351379395
1781678041544686800,32.365686767578126,0.39481574296951294,-8.681160926818848,4.041477680206299
1781678041593209000,32.414208984375,1.6420745849609375,-12.887144088745117,2.170290231704712
1781678041641731000,32.46273095703125,0.024526432156562805,-14.199009895324707,2.7595226764678955
1781678041690253000,32.51125317382812,-1.4931213855743408,-11.061420440673828,-0.6445665955543518
1781678041738775300,32.559775390625,-2.854637384414673,-7.0770721435546875,-2.4023938179016113
1781678041787297300,32.60829736328125,-2.3647069931030273,-15.772889137268066,-3.1695926189422607
1781678041835819300,32.6568193359375,-3.320340633392334,-13.927124977111816,3.9224345684051514
1781678041884341200,32.70534130859375,1.8305093050003052,-7.11565637588501,4.9052863121032715
1781678041932863500,32.75386352539063,0.8437690734863281,-5.641677379608154,0.3206382393836975
1781678041981385500,32.802385498046874,2.425424814224243,-4.6148576736450195,-2.2770698070526123
1781678042029907500,32.85090747070313,2.5450658798217773,-4.48115873336792,0.38763725757598877
1781678042078429700,32.8994296875,-1.332203984260559,-14.273186683654785,2.1655044555664062
1781678042126951700,32.94795166015625,5.214858055114746,-14.944972038269043,3.750450372695923
1781678042175473400,32.99647338867187,-2.8737800121307373,-15.649060249328613,2.9709885120391846
1781678042223995600,33.04499560546875,-0.5623133182525635,-9.235398292541504,-0.6810571551322937
1781678042272517600,33.093517578125,-1.6190435886383057,-11.010872840881348,-1.8367904424667358
1781678042321040000,33.14203979492188,-0.7863413691520691,-10.030712127685547,-4.247260093688965
1781678042369561900,33.190561767578124,0.2386840581893921,-7.330112934112549,-1.454237937927246
1781678042418083800,33.23908374023438,-2.132004976272583,-7.27956485748291,-0.7935197949409485
1781678042466605800,33.287605712890624,-1.2236297130584717,-7.321139812469482,0.046061836183071136
1781678042515128000,33.33612817382812,1.4063814878463745,-5.8082780838012695,2.280359983444214
1781678042563650000,33.384650146484375,1.2284153699874878,-8.364410400390625,3.407379388809204
1781678042612172000,33.43317211914062,2.2474586963653564,-14.187045097351074,2.0706889629364014
1781678042660694000,33.481694091796875,0.7354938387870789,-14.340784072875977,1.103988528251648
1781678042709216000,33.53021606445313,-2.948854923248291,-9.421140670776367,0.9029914736747742
1781678042757738200,33.57873828125,-3.0969107151031494,-11.206186294555664,-3.7298123836517334
1781678042854782200,33.6757822265625,-2.018944025039673,-10.055538177490234,4.5924248695373535
1781678042903304200,33.72430419921875,2.5755743980407715,-6.119045734405518,3.7956149578094482
1781678042951826200,33.772826171875,1.334297776222229,-5.635097503662109,-1.2936197519302368
1781678043000348200,33.82134814453125,2.0213370323181152,-4.575973987579346,-1.8385851383209229
1781678043048870100,33.8698701171875,1.9199410676956177,-4.360321044921875,1.2658032178878784
1781678043097392400,33.91839233398437,-1.077667474746704,-17.709280014038086,0.2273181527853012
1781678043145914400,33.966914306640625,4.047160625457764,-13.459029197692871,5.617749214172363
1781678043194436400,34.01543627929688,-2.5594229698181152,-16.318153381347656,1.3591232299804688
1781678043242958300,34.063958251953125,-0.7447660565376282,-9.713364601135254,-1.571486234664917
1781678043291480300,34.11248022460938,-1.5242279767990112,-10.149456024169922,-1.9453648328781128
1781678043340002300,34.161002197265624,-0.3613162338733673,-9.614361763000488,-3.978665828704834
1781678043388524500,34.20952465820312,0.1666002720594406,-6.524330139160156,0.6526423692703247
1781678043437046300,34.25804638671875,-2.5118656158447266,-6.8141608238220215,-1.0504491329193115
1781678043485568300,34.306568359375,0.34606197476387024,-7.907680511474609,0.2392822653055191
1781678043534090200,34.35509033203125,0.6158527135848999,-7.322635650634766,3.2916266918182373
1781678043582612500,34.40361254882812,1.6184453964233398,-8.741878509521484,2.612065076828003
1781678043631134500,34.452134521484375,1.0704890489578247,-13.45872974395752,2.8109683990478516
1781678043679656400,34.50065649414063,-1.0208379030227661,-14.400605201721191,0.6732804775238037
1781678043728178400,34.549178466796874,-3.1283164024353027,-8.994620323181152,-0.7316055297851562
1781678043776700400,34.59770043945313,-2.996711254119873,-11.178370475769043,-3.9514474868774414
1781678043825222400,34.646222412109374,-2.6327030658721924,-15.666707038879395,0.7887341380119324
1781678043873744400,34.69474438476563,-1.389631748199463,-9.134899139404297,5.183751106262207
1781678043922266400,34.743266357421874,2.4287149906158447,-7.100401878356934,2.5076780319213867
1781678043970788600,34.79178857421875,1.155733346939087,-6.75583553314209,-1.550549030303955
1781678044019310600,34.840310546875,2.424527645111084,-5.026721954345703,-0.5473581552505493
1781678044067832300,34.88883227539063,0.15493527054786682,-5.879165172576904,2.707777976989746
1781678044116354300,34.93735424804687,1.72941255569458,-14.605789184570312,0.027218356728553772
1781678044164876500,34.98587646484375,3.3672995567321777,-13.65494155883789,4.436293125152588
1781678044213398300,35.03439819335937,-5.313561916351318,-17.67877197265625,0.802193820476532
1781678044261920500,35.08292041015625,0.18903298676013947,-8.84088134765625,-1.70039963722229
1781678044310442500,35.1314423828125,-2.257927179336548,-10.754241943359375,-3.6089746952056885
1781678044358964500,35.17996459960938,1.9486548900604248,-7.730312824249268,-4.793421745300293
1781678044456008400,35.27700854492188,-1.6701902151107788,-7.867002487182617,-0.8476574420928955
1781678044504530400,35.32553051757812,0.7983054518699646,-7.576573848724365,0.5138586759567261
1781678044553052400,35.37405249023438,0.597308337688446,-7.821538925170898,3.7654054164886475
1781678044601574400,35.42257446289062,1.6112669706344604,-10.397711753845215,3.325425386428833
1781678044650096400,35.471096435546876,0.19680966436862946,-13.296915054321289,4.640580177307129
1781678044747140000,35.56814013671875,-2.6521449089050293,-8.330312728881836,-1.8975083827972412
1781678044795662300,35.61666235351562,-1.950150489807129,-13.106985092163086,-5.335097312927246
1781678044844184300,35.665184326171875,-4.37318229675293,-16.208980560302734,2.967100143432617
1781678044892706300,35.71370629882812,0.08853443711996078,-7.602595806121826,4.420141696929932
1781678044941228300,35.762228271484375,2.200798511505127,-5.7720866203308105,1.8592232465744019
1781678044989750300,35.81075024414063,1.5044872760772705,-5.313860893249512,-1.6055840253829956
1781678045038272300,35.859272216796874,3.0382864475250244,-4.862813949584961,-0.7746763229370117
1781678045086794200,35.90779418945313,-1.9199410676956177,-9.767501831054688,3.5045878887176514
1781678045135316200,35.956316162109374,3.34995174407959,-16.733905792236328,2.018944025039673
1781678045183838200,36.00483813476563,-1.074377417564392,-15.546767234802246,5.219344615936279
1781678045232360200,36.053360107421874,-0.92691969871521,-12.625429153442383,-2.8833513259887695
1781678045280882000,36.1018818359375,-0.8509475588798523,-8.67069149017334,-0.4953143000602722
1781678045329404200,36.15040405273437,-0.30239295959472656,-11.437093734741211,-4.67078971862793
1781678045377926000,36.19892578125,1.561017632484436,-6.8823561668396,-2.7080769538879395
1781678045426448000,36.24744775390625,-3.0164520740509033,-7.620242595672607,2.1640090942382812
1781678045474970000,36.29597021484375,-0.5455635786056519,-8.37009334564209,0.09990034252405167
1781678045523491800,36.34449194335937,-0.20997019112110138,-7.720741271972656,1.2197413444519043
1781678045620535800,36.44153588867187,3.363710403442383,-10.625628471374512,1.607378602027893
1781678045669057800,36.490057861328125,0.4289134442806244,-13.809876441955566,2.8028926849365234
1781678045717579500,36.53857958984375,-1.9989042282104492,-11.157732009887695,0.29012975096702576
1781678045766101800,36.587101806640625,-2.6168506145477295,-8.007282257080078,-1.1518449783325195
1781678045814623700,36.63562377929688,-2.4364917278289795,-17.493328094482422,-2.2773690223693848
1781678045863145700,36.684145751953125,-3.9212381839752197,-14.508281707763672,3.903291940689087
1781678045911667700,36.73266772460938,2.7559335231781006,-5.616852283477783,4.625326156616211
1781678045960189400,36.781189453125,1.0758728981018066,-5.750850200653076,0.11006984114646912
1781678046057233400,36.8782333984375,2.3443679809570312,-4.547858715057373,0.15164513885974884
1781678046105755400,36.92675537109375,-1.179661512374878,-13.10219955444336,2.754138946533203
1781678046154277400,36.97527734375,5.315954685211182,-15.471991539001465,2.495713949203491
1781678046202799400,37.02379931640625,-1.3812568187713623,-13.243375778198242,4.542474746704102
1781678046251321000,37.07232104492188,-3.438486099243164,-14.033007621765137,-1.710868239402771
1781678046299843300,37.12084326171875,-1.1356934309005737,-9.605388641357422,-2.562713146209717
1781678046348365000,37.16936499023438,-0.4863412082195282,-9.886245727539062,-3.8745779991149902
1781678046396887000,37.217886962890624,0.6317051649093628,-6.616752624511719,-1.4676976203918457
1781678046445409000,37.26640893554688,-2.1266210079193115,-7.183851718902588,-0.3900300860404968
1781678046493931000,37.314930908203124,-0.25752753019332886,-8.779266357421875,-0.12741780281066895
1781678046542453000,37.36345288085938,1.090528964996338,-6.64486837387085,3.393620729446411
1781678046590974700,37.411974609375,1.124626636505127,-8.592626571655273,2.760719060897827
1781678046639496700,37.46049658203125,1.7635103464126587,-12.744771957397461,3.161816120147705
1781678046688018700,37.50901879882812,0.3604189157485962,-13.769198417663574,1.5951154232025146
1781678046736540700,37.557540771484376,-2.6937201023101807,-9.718748092651367,-0.7369893789291382
1781678046833584600,37.654584716796876,-2.7355945110321045,-18.32573127746582,-0.9284151792526245
1781678046882106600,37.70310668945312,-2.8154549598693848,-11.03480052947998,4.854139804840088
1781678046930628400,37.75162841796875,2.3575284481048584,-6.176772594451904,4.35882568359375
1781678046979150300,37.800150390625,1.1629117727279663,-5.056931495666504,-0.9529415965080261
1781678047027672300,37.84867236328125,2.286940336227417,-5.1876397132873535,-1.950150489807129
1781678047124716000,37.94571606445312,-0.2312064915895462,-15.768102645874023,1.8215361833572388
1781678047173238000,37.994238037109376,1.8263218402862549,-16.14826202392578,3.6864423751831055
1781678047221760000,38.04276000976562,-2.730210542678833,-16.17936897277832,1.4898312091827393
1781678047270282000,38.091281982421876,-0.8383852243423462,-7.744968891143799,-0.18813568353652954
1781678047318804000,38.13980395507812,-0.6801598072052002,-11.823834419250488,-3.916452407836914
1781678047367326000,38.188325927734375,0.6661019921302795,-7.718647480010986,-4.062115669250488
1781678047415848000,38.23684790039062,-1.3959128856658936,-6.46241569519043,0.9553344249725342
1781678047464369700,38.28536962890625,-0.6358926296234131,-7.454240798950195,-0.9858429431915283
1781678047512891600,38.3338916015625,-0.22552353143692017,-7.536793231964111,1.2667005062103271
1781678047609935600,38.430935546875,2.7391836643218994,-10.302597045898438,1.5825530290603638
1781678047658457300,38.47945727539062,0.023330021649599075,-13.817952156066895,2.342573404312134
1781678047706979300,38.527979248046876,-0.5042873620986938,-12.150155067443848,-0.064606212079525
1781678047755501000,38.5765009765625,-2.305185556411743,-7.608577728271484,-1.0271191596984863
1781678047804023000,38.62502294921875,-3.4857444763183594,-15.936797142028809,-2.824428081512451
1781678047852544800,38.67354467773438,-4.12761926651001,-15.50967788696289,2.960519790649414
1781678047901067000,38.72206689453125,2.369492530822754,-7.320541858673096,4.3280181884765625
1781678047949588700,38.770588623046876,0.5365904569625854,-6.1241302490234375,1.347757339477539
1781678047998110700,38.81911083984375,1.9199410676956177,-5.36769962310791,-2.7340989112854004
1781678048046632700,38.8676328125,2.2857437133789062,-4.85324239730835,-0.41066819429397583
1781678048095154400,38.91615454101562,-1.2864413261413574,-9.671789169311523,2.4233310222625732
1781678048143676700,38.9646767578125,4.804189682006836,-16.153047561645508,0.6969096064567566
1781678048192198400,39.01319848632812,-1.4979069232940674,-16.170696258544922,4.773681163787842
1781678048240720400,39.061720458984375,-2.7580273151397705,-12.453145980834961,-0.9924231767654419
1781678048289242000,39.1102421875,-0.20398813486099243,-7.895716667175293,-0.9299107193946838
1781678048337764000,39.15876416015625,-0.5111667513847351,-11.85165023803711,-3.082852840423584
1781678048434807800,39.25580786132812,-2.6775684356689453,-7.096214771270752,0.5901299118995667
1781678048531851800,39.35285180664062,0.2790629267692566,-6.603592395782471,1.9175482988357544
1781678048580373800,39.401373779296875,0.8844470977783203,-8.123034477233887,2.864806890487671
1781678048628895500,39.4498955078125,2.496312141418457,-11.360224723815918,1.628016710281372
1781678048677417500,39.49841748046875,0.11186445504426956,-14.00100326538086,1.6869399547576904
1781678048725939200,39.54693920898438,-2.228316068649292,-10.141679763793945,-0.3355933725833893
1781678048774461200,39.59546118164062,-2.6814568042755127,-7.752147197723389,-1.2490534782409668
1781678048822983000,39.64398291015625,-3.9951164722442627,-20.024036407470703,-1.319043517112732
1781678048871505000,39.6925048828125,-2.9240293502807617,-12.054442405700684,3.559921979904175
1781678048920027000,39.74102685546875,2.4424736499786377,-5.792425632476807,4.381856441497803
1781678048968548900,39.789548828125,0.4695914387702942,-6.113063812255859,0.0023928226437419653
1781678049017070800,39.83807080078125,2.3315064907073975,-5.300102233886719,-2.412862539291382
1781678049065592600,39.88659252929688,2.933600664138794,-4.1659040451049805,0.41964125633239746
1781678049114114600,39.93511450195312,-1.1548360586166382,-13.554741859436035,3.4642090797424316
1781678049162636300,39.98363623046875,4.585246562957764,-15.302699089050293,1.7578272819519043
1781678049259680000,40.080679931640624,-1.2026925086975098,-13.096516609191895,-4.459323883056641
1781678049308202000,40.12920190429688,-1.0639088153839111,-8.894720077514648,-1.043868899345398
1781678049356723700,40.1777236328125,-0.6795616149902344,-10.097113609313965,-3.7226338386535645
1781678049405245700,40.22624560546875,0.14416755735874176,-5.860620975494385,-0.9173483848571777
1781678049453767400,40.27476733398437,-3.0780673027038574,-7.1799635887146,-0.6502495408058167
1781678049502289700,40.32328955078125,0.4226323068141937,-7.417750358581543,-0.2928216755390167
1781678049550811400,40.37181127929688,0.09182456880807877,-7.240681171417236,4.4620161056518555
1781678049599333400,40.42033349609375,2.102393865585327,-10.020243644714355,1.4470595121383667
1781678049647855400,40.46885546875,1.800299882888794,-13.02652645111084,2.8944180011749268
1781678049696377000,40.517377197265624,-1.057029366493225,-13.477274894714355,1.2547364234924316
1781678049744899000,40.56589916992188,-3.3924243450164795,-8.796015739440918,-0.6771687865257263
1781678049793420800,40.6144208984375,-2.9413771629333496,-13.852648735046387,-4.032803535461426
1781678049841942800,40.66294287109375,-4.094717979431152,-16.67169189453125,3.25663161277771
1781678049890464500,40.71146459960938,0.6717849373817444,-7.794320583343506,4.776971340179443
1781678049938986500,40.759986572265625,1.2801600694656372,-5.901298999786377,2.0425732135772705
1781678049987508200,40.80850830078125,1.4572290182113647,-5.238786220550537,-1.7976080179214478
1781678050036030200,40.8570302734375,2.463710069656372,-4.314857482910156,-0.9762716293334961
1781678050084552200,40.90555224609375,0.7785646915435791,-7.024429798126221,1.9986051321029663
1781678050133074000,40.95407397460937,2.0955145359039307,-17.935701370239258,1.3567304611206055
1781678050181596000,41.002595947265625,0.21774685382843018,-12.287144660949707,5.672784328460693
1781678050230117600,41.05111767578125,-4.855037212371826,-18.80339813232422,-1.5257235765457153
1781678050278639600,41.0996396484375,0.8868398666381836,-7.985746383666992,-3.0978081226348877
1781678050327161300,41.14816137695313,-1.5849459171295166,-11.152946472167969,-4.0935211181640625
1781678050375683300,41.19668334960937,1.1476575136184692,-7.558926582336426,-2.809173822402954
1781678050424205000,41.245205078125,-2.617149829864502,-7.444669246673584,0.9361918568611145
1781678050472727000,41.29372705078125,-0.4292125701904297,-7.558926582336426,-1.5705889463424683
1781678050521248800,41.342248779296874,2.268994092941284,-5.087141036987305,3.901796340942383
1781678050569770800,41.39077075195313,-0.3128615617752075,-8.561519622802734,3.6792638301849365
1781678050618292500,41.43929248046875,1.721336841583252,-12.254542350769043,1.6414763927459717
1781678050715336400,41.53633642578125,-0.7241279482841492,-11.475976943969727,-0.6738786697387695
1781678050812380200,41.63338012695313,-2.345564365386963,-16.896617889404297,-3.0957143306732178
1781678050860902000,41.68190185546875,-4.677968502044678,-15.849160194396973,4.686941146850586
1781678050909423900,41.730423828125,2.233999013900757,-6.74237585067749,4.9378886222839355
1781678050957945600,41.77894555664062,1.35822594165802,-5.713163375854492,0.5958128571510315
1781678051006467600,41.827467529296875,2.1981067657470703,-4.814359188079834,-2.3147568702697754
1781678051054989300,41.8759892578125,3.0732815265655518,-4.600500583648682,-1.1611171960830688
1781678051103511300,41.92451123046875,-1.2649059295654297,-11.427522659301758,2.4765713214874268
1781678051152033000,41.973032958984376,3.817150354385376,-16.24786376953125,2.6183462142944336
1781678051200555000,42.02155493164062,-1.2547364234924316,-16.718053817749023,3.4591243267059326
1781678051249076700,42.07007666015625,-2.249253273010254,-11.382059097290039,-1.444367527961731
1781678051297598500,42.11859838867188,-0.32721850275993347,-8.639883995056152,-0.4570291340351105
1781678051346120400,42.167120361328124,-0.6275177597999573,-11.652149200439453,-4.562215328216553
1781678051394642200,42.21564208984375,0.8072785139083862,-6.871588230133057,-0.3451646566390991
1781678051443164200,42.2641640625,-1.939681887626648,-7.013363361358643,0.47198426723480225
1781678051540207900,42.36120776367188,0.6804589629173279,-6.473482608795166,1.7569299936294556
1781678051588729600,42.4097294921875,1.3513466119766235,-9.264111518859863,2.958425998687744
1781678051637251600,42.45825146484375,1.9516459703445435,-11.700304985046387,1.3438689708709717
1781678051685773300,42.50677319335937,-0.587138831615448,-13.919049263000488,3.0882368087768555
1781678051734295300,42.55529541015625,-1.94297194480896,-10.68544864654541,-1.298405408859253
1781678051782817000,42.60381713867187,-1.8047864437103271,-8.47477912902832,-2.337787628173828
1781678051831338800,42.6523388671875,-2.943770170211792,-17.382061004638672,-2.1918256282806396
1781678051879860700,42.70086083984375,-3.068495988845825,-11.578868865966797,4.298107624053955
1781678051928382500,42.74938256835937,2.162513494491577,-6.158228397369385,3.776472330093384
1781678051976904200,42.797904296875,0.9699904918670654,-5.5758748054504395,-0.508773922920227
1781678052025426200,42.84642626953125,2.6647071838378906,-5.433502197265625,-1.4015958309173584
1781678052073948200,42.8949482421875,1.8266209363937378,-6.143871307373047,1.4706885814666748
1781678052122470000,42.94346997070313,0.16420745849609375,-14.388042449951172,2.8603203296661377
1781678052170991900,42.99199194335937,3.4250264167785645,-13.819448471069336,3.525225877761841
1781678052219513600,43.040513671875,-3.31884503364563,-16.844573974609375,0.8742775917053223
1781678052268035300,43.08903540039063,-0.5341976284980774,-9.084052085876465,-1.3668999671936035
1781678052365079000,43.1860791015625,0.8536394834518433,-9.149256706237793,-3.738187074661255
1781678052462122800,43.283122802734376,-1.662413477897644,-7.590631484985352,-0.5901299118995667
1781678052510644700,43.33164477539062,-0.47557350993156433,-6.8823561668396,0.06610172241926193
1781678052559166200,43.38016625976562,1.5822539329528809,-6.994818687438965,2.5334010124206543
1781678052607688200,43.42868823242188,1.8032909631729126,-9.955039978027344,2.5522444248199463
1781678052656210000,43.4772099609375,0.8644071817398071,-13.727025032043457,3.1657042503356934
1781678052704732000,43.52573193359375,-1.2699905633926392,-12.934103965759277,1.0067801475524902
1781678052753253600,43.57425366210938,-3.4235310554504395,-9.568000793457031,-1.9869401454925537
1781678052801775600,43.622775634765624,-1.8909281492233276,-13.118051528930664,-4.275974273681641
1781678052850297300,43.67129736328125,-5.311169147491455,-17.0234375,3.7250266075134277
1781678052898819000,43.71981909179687,2.1062822341918945,-7.408777236938477,4.710570335388184
1781678052947340800,43.7683408203125,1.5314065217971802,-5.84147834777832,1.5690934658050537
1781678052995862800,43.81686279296875,1.5035899877548218,-4.893920421600342,-0.984347403049469
1781678053044384500,43.86538452148437,2.9925239086151123,-3.9738802909851074,-0.046061836183071136
1781678053092906200,43.91390625,-0.2066800594329834,-8.406583786010742,2.5118656158447266
1781678053141428200,43.96242822265625,2.6662025451660156,-17.99312973022461,1.6525431871414185
1781678053189950000,44.010949951171874,-1.1404790878295898,-15.552748680114746,5.535196781158447
1781678053238472000,44.05947192382813,-1.571187138557434,-13.10937786102295,-2.0961127281188965
1781678053286993700,44.10799365234375,-1.4602199792861938,-9.037691116333008,-0.2231307178735733
1781678053335515400,44.156515380859375,-0.8380861282348633,-12.037692070007324,-4.276572227478027
1781678053384037000,44.205037109375,1.6630117893218994,-6.815357208251953,-2.2046868801116943
1781678053432559000,44.25355908203125,-1.9878374338150024,-7.2349982261657715,1.1045867204666138
1781678053481080800,44.302080810546876,-0.4465605318546295,-7.443173885345459,0.09092725813388824
1781678053529602800,44.35060278320312,-0.22013968229293823,-6.6352972984313965,1.5879368782043457
1781678053578124500,44.39912451171875,1.9615163803100586,-8.289634704589844,4.019941806793213
1781678053626646300,44.44764624023438,2.4472594261169434,-9.667601585388184,1.5690934658050537
1781678053675168000,44.49616796875,0.32153555750846863,-14.703895568847656,1.9845472574234009
1781678053723690000,44.54468994140625,0.4992026388645172,-12.058928489685059,0.2599203586578369
1781678053820733400,44.6417333984375,-2.847458839416504,-15.012569427490234,-2.3617160320281982
1781678053869255400,44.69025537109375,-3.3394830226898193,-18.000307083129883,2.730210542678833
1781678053917777200,44.73877709960937,1.8296120166778564,-8.136195182800293,4.765904426574707
1781678053966299100,44.787299072265625,1.383948802947998,-6.14626407623291,1.6636099815368652
1781678054014820600,44.83582055664063,1.6325032711029053,-4.929812908172607,-2.390429735183716
1781678054063342600,44.88434252929687,2.5914268493652344,-4.068696022033691,-0.9397810697555542
1781678054111864300,44.9328642578125,-0.33020952343940735,-8.154141426086426,1.6549359560012817
1781678054160386300,44.98138623046875,3.731905937194824,-16.98844337463379,2.0706889629364014
1781678054208908000,45.029907958984374,-0.5712863802909851,-13.943575859069824,5.32403039932251
1781678054257429800,45.0784296875,-3.139383316040039,-15.605391502380371,-1.7889339923858643
1781678054305951500,45.12695141601562,-0.7387840151786804,-8.248059272766113,-1.2275179624557495
1781678054354473200,45.17547314453125,-0.3756731450557709,-11.333305358886719,-3.2078778743743896
1781678054402995200,45.2239951171875,0.857228696346283,-7.953742504119873,-1.810768485069275
1781678054451517000,45.27251684570312,-2.3306093215942383,-7.106084823608398,1.1754741668701172
1781678054500038700,45.32103857421875,-0.4331009089946747,-7.412964344024658,-0.8063812255859375
1781678054548560400,45.36956030273438,0.7172485589981079,-6.534200668334961,1.9468603134155273
1781678054597082400,45.418082275390624,0.7722834944725037,-7.903493404388428,2.953341245651245
1781678054645604000,45.46660400390625,2.374577283859253,-10.887941360473633,1.2792627811431885
1781678054694125800,45.51512573242187,0.5015954375267029,-13.53051471710205,2.321636199951172
1781678054742647600,45.5636474609375,-1.9621145725250244,-11.142477989196777,-0.49292147159576416
1781678054791169300,45.61216918945313,-2.568096876144409,-8.14516830444336,-1.2747762203216553
1781678054839691000,45.66069091796875,-2.456531524658203,-19.131216049194336,-2.9455647468566895
1781678054888213000,45.709212890625,-4.071088790893555,-14.043476104736328,3.8398821353912354
1781678054936734700,45.75773461914063,2.297109842300415,-6.722036838531494,4.734498500823975
1781678054985256400,45.80625634765625,0.9203394055366516,-5.621338367462158,0.3119642436504364
1781678055033778400,45.8547783203125,2.1424734592437744,-4.19282341003418,-2.242074728012085
1781678055082300200,45.90330004882812,2.003689765930176,-3.5772697925567627,-0.3206382393836975
1781678055130822000,45.95182177734375,-1.1901301145553589,-12.070294380187988,1.797009825706482
1781678055179343600,46.00034350585938,4.131507396697998,-15.467206001281738,3.1680972576141357
1781678055227865300,46.048865234375,-3.3658041954040527,-17.871095657348633,3.7031922340393066
1781678055276387000,46.097386962890624,-0.804885745048523,-11.951550483703613,-3.0882368087768555
1781678055324909000,46.14590893554688,-0.32542386651039124,-8.980263710021973,-3.5647075176239014
1781678055421952500,46.242952392578125,-0.42293140292167664,-7.45274543762207,0.7130611538887024
1781678055470474200,46.29147412109375,-2.2396819591522217,-7.906484127044678,-0.12352947145700455
1781678055518996000,46.33999584960937,0.10289137065410614,-6.602396011352539,0.8231309652328491
1781678055567517700,46.388517578125,0.7743772268295288,-5.68684196472168,2.286940336227417
1781678055616039700,46.43703979492187,1.6923238039016724,-8.70209789276123,1.2532408237457275
1781678055664561400,46.4855615234375,2.0282163619995117,-12.728321075439453,2.878565549850464
1781678055713083100,46.53408325195313,0.33798620104789734,-12.959527015686035,1.5807584524154663
1781678055761605000,46.582605224609374,-3.3251261711120605,-9.037691116333008,0.6753742098808289
1781678055810126600,46.631126708984375,-4.174877166748047,-16.835899353027344,-1.6214364767074585
1781678055858648600,46.67964868164062,-3.365206003189087,-15.769299507141113,1.550549030303955
1781678055907170000,46.72817016601562,0.15732808411121368,-7.730312824249268,4.171288013458252
1781678055955692000,46.776692138671876,1.3668999671936035,-5.694020748138428,1.776371717453003
1781678056004213800,46.8252138671875,1.7428722381591797,-4.824827671051025,-2.1583259105682373
1781678056052735500,46.873735595703124,2.645564556121826,-4.599603176116943,-1.3887344598770142
1781678056101257200,46.92225732421875,0.4178466498851776,-7.231110095977783,1.561017632484436
1781678056149779000,46.97077905273437,1.750648856163025,-17.177474975585938,2.7550361156463623
1781678056198300700,47.01930078125,-0.4627120792865753,-16.374683380126953,5.738586902618408
1781678056246822400,47.06782250976563,-2.9216363430023193,-14.649757385253906,-2.9413771629333496
1781678056295344400,47.11634448242187,-0.050847481936216354,-9.088837623596191,-1.877468466758728
1781678056343866000,47.1648662109375,-0.3646063506603241,-11.436196327209473,-3.881756544113159
1781678056392387600,47.2133876953125,0.20997019112110138,-7.0755767822265625,-2.4406790733337402
1781678056440909600,47.26190966796875,-2.375474691390991,-6.7794647216796875,-0.47228336334228516
1781678056489431300,47.310431396484375,0.45523449778556824,-7.7114691734313965,0.16331014037132263
1781678056537953000,47.358953125,0.5910272002220154,-6.033203125,2.0967109203338623
1781678056586474800,47.40747485351562,1.328913927078247,-7.356434345245361,2.2187447547912598
1781678056634996500,47.45599658203125,2.706880569458008,-10.79551887512207,2.043470621109009
1781678056683518200,47.50451831054688,1.3079767227172852,-13.661222457885742,1.1356934309005737
1781678056732040000,47.5530400390625,-2.359323024749756,-9.83539867401123,0.8964111804962158
1781678056780562000,47.60156201171875,-5.19960355758667,-15.21207046508789,-0.6906284093856812
1781678056829083400,47.65008349609375,-2.6192433834075928,-18.942481994628906,0.5368895530700684
1781678056877605400,47.69860546875,-0.5335994362831116,-8.886942863464355,4.576871395111084
1781678056974648800,47.79564892578125,1.4865410327911377,-4.680959224700928,-1.932802438735962
1781678057023170300,47.84417041015625,2.430509567260742,-3.5946178436279297,-2.258824586868286
1781678057071692300,47.8926923828125,0.44327038526535034,-5.243571758270264,1.1997014284133911
1781678057120214000,47.94121411132812,2.2636101245880127,-15.651453018188477,1.6175481081008911
1781678057168735700,47.98973583984375,-2.0665013790130615,-16.90289878845215,3.973581075668335
1781678057217257500,48.03825756835938,0.09182456880807877,-14.183156967163086,0.15314064919948578
1781678057265779200,48.086779296875,-2.8196423053741455,-11.973684310913086,-0.6714858412742615
1781678057314301200,48.13530126953125,-0.5105685591697693,-13.068699836730957,-7.036693096160889
1781678057362822700,48.18382275390625,1.2092727422714233,-7.499105930328369,-2.7173492908477783
1781678057411344400,48.23234448242187,-2.5348963737487793,-6.632904529571533,-1.301695466041565
1781678057459866000,48.2808662109375,1.4213366508483887,-5.410171985626221,-1.9615163803100586
1781678057508387800,48.32938793945313,1.2337992191314697,-5.299503803253174,0.8679963946342468
1781678057556909600,48.37790966796875,0.49232324957847595,-7.899305820465088,5.528915882110596
1781678057605431300,48.426431396484375,1.1829516887664795,-13.228421211242676,4.185046672821045
1781678057653953000,48.474953125,1.0423734188079834,-13.197014808654785,2.610569477081299
1781678057702474800,48.52347485351562,-1.521835207939148,-9.08853816986084,-1.059123158454895
1781678057750996700,48.571996826171876,-4.789533615112305,-10.368699073791504,-3.2201411724090576
1781678057799518200,48.62051831054688,-4.945366382598877,-23.15683937072754,-0.4372883439064026
1781678057848040200,48.669040283203124,-1.1778669357299805,-11.397014617919922,3.479762315750122
1781678057896562000,48.71756201171875,2.296511650085449,-6.781857490539551,4.095016956329346
1781678057945083600,48.76608374023437,1.6791633367538452,-5.402096271514893,-0.12293126434087753
1781678057993605400,48.81460546875,2.604288339614868,-2.7499513626098633,-0.9508479237556458
1781678058090648800,48.91164892578125,-2.0156540870666504,-16.424335479736328,3.8276188373565674
1781678058139170300,48.96017041015625,2.3539392948150635,-14.858830451965332,1.8161523342132568
1781678058187692000,49.008692138671876,-1.6660027503967285,-16.98844337463379,-1.0917253494262695
1781678058236214000,49.05721411132812,-4.075874328613281,-12.078370094299316,-1.48055899143219
1781678058284735500,49.10573559570312,-0.716949462890625,-14.215161323547363,-5.752345561981201
1781678058333257500,49.15425756835938,1.1117652654647827,-8.755936622619629,-1.3025928735733032
1781678058381779000,49.20277905273438,-0.009571290574967861,-6.298507213592529,-2.233400821685791
1781678058430301000,49.251301025390624,1.9558334350585938,-5.507679462432861,-1.8305093050003052
1781678058527344400,49.34834448242187,0.9744769930839539,-7.552645683288574,2.865704298019409
1781678058575866000,49.3968662109375,1.5882359743118286,-10.356136322021484,4.508975028991699
1781678058624387600,49.4453876953125,0.33828529715538025,-14.775679588317871,4.239184379577637
1781678058672909600,49.49390966796875,-1.8553348779678345,-12.221640586853027,0.6014958024024963
1781678058721431000,49.54243115234375,-4.886742115020752,-8.889336585998535,-0.8679963946342468
1781678058769953000,49.590953125,-2.7550361156463623,-16.123437881469727,-5.2115678787231445
1781678058818474500,49.639474609375,-3.666701555252075,-13.8251314163208,2.691925525665283
1781678058866996200,49.687996337890624,0.5282155871391296,-7.322934627532959,3.1758737564086914
1781678058964039700,49.78503979492187,2.1373889446258545,-5.25762939453125,0.8327022790908813
1781678059012561400,49.8335615234375,2.0832512378692627,-3.5168511867523193,1.1102696657180786
1781678059061083100,49.88208325195313,-0.87248295545578,-8.529515266418457,4.205086708068848
1781678059109604900,49.93060498046875,5.028217792510986,-17.945571899414062,0.7914260625839233
1781678059158126600,49.979126708984374,-1.3405789136886597,-14.088939666748047,3.1671998500823975
1781678059206648300,50.0276484375,-2.4532413482666016,-14.159229278564453,-0.9370891451835632
1781678059255170000,50.07617016601562,-2.3886351585388184,-10.091131210327148,-3.4734811782836914
1781678059303691800,50.12469189453125,0.5318048596382141,-10.313663482666016,-5.86630392074585
1781678059352213500,50.17321362304688,1.6648063659667969,-7.75334358215332,-1.34476637840271
1781678059400735200,50.2217353515625,-0.9786644577980042,-7.620542049407959,0.8787640929222107
1781678059449257000,50.270257080078125,0.380458801984787,-6.425626277923584,-0.33080771565437317
1781678059497778700,50.31877880859375,1.4506487846374512,-5.760421276092529,2.301297187805176
1781678059546300400,50.36730053710937,0.29820552468299866,-9.486644744873047,4.3549370765686035
1781678059594822000,50.41582177734375,0.7256234884262085,-14.744573593139648,3.555136203765869
1781678059643343600,50.464343505859375,-0.11964113265275955,-12.837493896484375,3.4366915225982666
1781678059691865300,50.512865234375,-1.8170497417449951,-9.307182312011719,-1.1509476900100708
1781678059740387000,50.56138696289062,-2.256431818008423,-9.497113227844238,-3.6197423934936523
1781678059788908800,50.60990869140625,-4.35254430770874,-18.9445743560791,-0.7848458290100098
1781678059837430500,50.65843041992188,-1.3495519161224365,-9.88086223602295,3.887439489364624
1781678059934473700,50.7554736328125,1.4380863904953003,-5.591428279876709,-0.9466604590415955
1781678059982995700,50.80399560546875,1.7769699096679688,-5.440680503845215,-1.057029366493225
1781678060031517200,50.85251708984375,1.7808582782745361,-5.0703911781311035,1.2556337118148804
1781678060128561000,50.94956079101563,3.2207393646240234,-11.859427452087402,3.2350962162017822
1781678060177082400,50.99808227539062,-3.67238450050354,-18.431913375854492,0.4100699722766876
1781678060225604000,51.04660400390625,-0.3963112533092499,-8.02373218536377,-1.2418749332427979
1781678060274125800,51.09512573242188,-0.9364909529685974,-11.815757751464844,-3.524627685546875
1781678060322647600,51.1436474609375,0.5282155871391296,-8.277371406555176,-2.221137523651123
1781678060371169000,51.1921689453125,-1.9262222051620483,-6.877570629119873,1.42043936252594
1781678060419691000,51.24069091796875,-1.3381860256195068,-7.220043182373047,-2.24775767326355
1781678060468212500,51.28921240234375,0.631106972694397,-6.368198394775391,1.4964114427566528
1781678060516734200,51.337734130859374,-0.2225325107574463,-5.723033428192139,2.1287147998809814
1781678060565256000,51.386255859375,3.1375887393951416,-11.173883438110352,1.1644073724746704
1781678060613777700,51.43477758789062,0.6972087025642395,-14.462818145751953,3.1504502296447754
1781678060662299400,51.48329931640625,-1.7715860605239868,-12.4842529296875,0.16809579730033875
1781678060710820900,51.53182080078125,-3.466601848602295,-9.300004005432129,-0.8087740540504456
1781678060759342600,51.58034252929688,-3.2940194606781006,-17.19781494140625,-4.134199142456055
1781678060807864300,51.6288642578125,-3.1881370544433594,-12.838390350341797,3.6068811416625977
1781678060856386000,51.677385986328126,0.6834499835968018,-7.2125654220581055,4.381258487701416
1781678060904907800,51.72590771484375,1.1270195245742798,-5.879763603210449,-0.04217349737882614
1781678060953429500,51.774429443359374,2.4023938179016113,-4.587040901184082,-2.4798614978790283
1781678061001951200,51.822951171875,2.746960401535034,-3.7247276306152344,-0.6729813814163208
1781678061050472700,51.87147265625,-1.7237296104431152,-11.992228507995605,3.211168050765991
1781678061098994400,51.91999438476562,5.700600624084473,-15.798910140991211,1.6310077905654907
1781678061147516200,51.96851611328125,-2.998206853866577,-17.808881759643555,4.237689018249512
1781678061196038000,52.01703784179688,-1.2116655111312866,-10.677372932434082,-2.8875386714935303
1781678061244559600,52.0655595703125,-1.054337501525879,-10.85862922668457,-2.3802602291107178
1781678061293081300,52.114081298828125,-0.5344967842102051,-9.198907852172852,-5.308177947998047
1781678061341603000,52.16260302734375,0.3774677813053131,-7.045068264007568,-0.34695929288864136
1781678061390124500,52.21112451171875,-2.377568483352661,-7.821239948272705,-1.1356934309005737
1781678061438646300,52.259646240234375,-0.1666002720594406,-7.737491130828857,0.17318053543567657
1781678061487168000,52.30816796875,1.0369895696640015,-5.361717224121094,2.7565317153930664
1781678061535689700,52.35668969726562,1.6366907358169556,-8.24985408782959,3.028416156768799
1781678061584211200,52.405211181640624,1.0839486122131348,-15.392130851745605,4.144967079162598
1781678061632733000,52.45373291015625,0.4827519655227661,-13.301102638244629,3.2742786407470703
1781678061681255000,52.5022548828125,-2.713460922241211,-9.107980728149414,-0.7881359457969666
1781678061778298000,52.599298095703126,-3.1839497089385986,-18.884157180786133,-1.5346965789794922
1781678061826819600,52.64781958007813,-2.7508487701416016,-11.258829116821289,4.734498500823975
1781678061875341600,52.696341552734374,1.8936200141906738,-6.491727828979492,4.158127784729004
1781678061923863000,52.744863037109376,1.5329020023345947,-4.988437175750732,-1.2873386144638062
1781678061972384800,52.793384765625,2.8516464233398438,-4.477868556976318,-2.2953150272369385
1781678062020906200,52.84190625,1.9698911905288696,-5.067101001739502,0.5446662306785583
1781678062069428000,52.890427978515625,0.4905286431312561,-17.54178237915039,2.0333011150360107
1781678062117949700,52.93894970703125,3.5120654106140137,-12.856636047363281,4.505086898803711
1781678062166471400,52.98747143554687,-2.8420751094818115,-15.9170560836792,2.813361167907715
1781678062214993200,53.0359931640625,-1.194915771484375,-10.79013442993164,-2.503490686416626
1781678062263514600,53.0845146484375,-1.1623135805130005,-10.40638542175293,-2.7487549781799316
1781678062312036600,53.13303662109375,0.6068796515464783,-8.679664611816406,-4.403690814971924
1781678062360558000,53.18155810546875,0.2877369225025177,-6.548258304595947,0.5168496966362
1781678062409079800,53.23007983398438,-2.6530420780181885,-6.8859453201293945,-0.3690928816795349
1781678062457601300,53.27860131835938,-0.3287140130996704,-7.971090316772461,0.5455635786056519
1781678062506123000,53.327123046875,1.3094722032546997,-8.12123966217041,3.518047571182251
1781678062554644700,53.375644775390626,1.5601203441619873,-8.772985458374023,2.5154547691345215
1781678062603166500,53.42416650390625,0.5709872841835022,-14.718252182006836,2.6703901290893555
1781678062651688200,53.47268823242187,-0.07118647545576096,-13.592129707336426,1.1668001413345337
1781678062700209700,53.521209716796875,-3.1594231128692627,-7.573882102966309,-0.44835513830184937
1781678062748731400,53.5697314453125,-2.1158533096313477,-10.446166038513184,-4.1389851570129395
1781678062797253000,53.61825317382812,-3.6472599506378174,-18.579669952392578,0.9083753228187561
1781678062845774800,53.66677490234375,-0.5641079545021057,-8.851051330566406,4.96420955657959
1781678062894296600,53.71529663085938,1.698904037475586,-6.288337707519531,2.319542407989502
1781678062942818000,53.76381811523437,1.4422738552093506,-5.230710506439209,-2.3132612705230713
1781678062991339800,53.81233984375,1.7994025945663452,-5.145166873931885,-1.807478427886963
1781678063039861200,53.860861328125,0.5694918036460876,-7.019046306610107,1.5499508380889893
1781678063088383000,53.90938305664063,2.202892303466797,-16.71715545654297,0.9613165259361267
1781678063136904700,53.95790478515625,1.643869161605835,-15.04128360748291,6.132206439971924
1781678063185426400,54.006426513671876,-3.5635111331939697,-14.856437683105469,0.02063809521496296
1781678063233948000,54.05494799804688,-0.3487538993358612,-6.819544315338135,-1.0606186389923096
1781678063330991400,54.151991455078125,1.6908283233642578,-8.79511833190918,-4.154837608337402
1781678063379513000,54.20051318359375,-2.720639228820801,-8.288139343261719,1.8729819059371948
1781678063428034800,54.24903491210937,-0.86470627784729,-8.73619556427002,-0.42831525206565857
1781678063476556300,54.297556396484374,-0.08464609831571579,-6.542575359344482,1.8137595653533936
1781678063525078000,54.346078125,-0.06400800496339798,-6.2204413414001465,1.9055840969085693
1781678063573599500,54.394599609375,3.265305519104004,-9.70349407196045,1.0704890489578247
1781678063622121200,54.443121337890624,0.802193820476532,-14.237295150756836,3.695415496826172
1781678063670642700,54.491642578125,-1.4611172676086426,-12.879965782165527,0.6149554252624512
1781678063719164700,54.54016455078125,-3.5611183643341064,-7.513463020324707,-1.0513464212417603
1781678063767686400,54.58868627929687,-2.8833513259887695,-15.002100944519043,-4.430610179901123
1781678063816208000,54.637207763671874,-3.341277837753296,-16.086347579956055,2.1278176307678223
1781678063864729600,54.6857294921875,0.49292147159576416,-6.69362211227417,5.053043365478516
1781678063913251000,54.7342509765625,1.817647933959961,-6.4064836502075195,1.1413763761520386
1781678063961772800,54.78277270507812,1.0414760112762451,-5.773283004760742,-1.8424733877182007
1781678064010294300,54.831294189453125,2.399103879928589,-4.763511657714844,-0.07986045628786087
1781678064058816300,54.87981616210938,-0.8742775917053223,-8.370990753173828,3.477369546890259
1781678064107338000,54.928337890625,3.862015724182129,-17.18375587463379,1.5481562614440918
1781678064155859500,54.976859375,-0.4743770956993103,-14.507683753967285,5.252245903015137
1781678064204381200,55.02538110351563,-2.179263114929199,-14.402997970581055,-2.5094728469848633
1781678064252902700,55.07390258789062,-1.542473316192627,-8.885149002075195,-1.4979069232940674
1781678064301424400,55.12242431640625,-0.646660327911377,-11.02463150024414,-4.829314231872559
1781678064349945900,55.17094580078125,1.7754744291305542,-7.497610569000244,-2.2342982292175293
1781678064398467600,55.21946752929688,-3.050250768661499,-6.465406894683838,-0.2306082844734192
1781678064446989000,55.26798901367187,0.004187439568340778,-7.642675399780273,-0.09182456880807877
1781678064495510800,55.3165107421875,0.22821545600891113,-7.389036178588867,2.122433662414551
1781678064544032800,55.36503271484375,0.9403793215751648,-7.912466049194336,4.063013076782227
1781678064592554200,55.41355419921875,2.531606435775757,-11.244471549987793,1.9597218036651611
1781678064641076000,55.462075927734375,0.08614161610603333,-15.366108894348145,2.281855583190918
1781678064689597400,55.51059741210938,-1.3830515146255493,-11.292327880859375,0.12622138857841492
1781678064738119200,55.559119140625,-2.4248266220092773,-7.0683979988098145,-0.9987043738365173
1781678064786640600,55.607640625,-2.373081922531128,-15.298810958862305,-3.901796340942383
1781678064835162400,55.656162353515626,-4.404289245605469,-14.980565071105957,3.5605201721191406
1781678064932205600,55.75320556640625,0.34636107087135315,-6.883253574371338,0.6873382925987244
1781678064980727300,55.801727294921875,2.108973979949951,-4.884648323059082,-2.9512476921081543
1781678065029248800,55.85024877929688,2.109572172164917,-4.032504558563232,-0.20338992774486542
1781678065077770800,55.89877075195312,-0.29730820655822754,-10.822138786315918,2.532503604888916
1781678065126292200,55.947292236328124,3.092125177383423,-17.565113067626953,2.1026928424835205
1781678065174814000,55.99581396484375,-0.9125627279281616,-15.807584762573242,4.403690814971924
1781678065223335400,56.04433544921875,-3.130709409713745,-12.340683937072754,-1.8741782903671265
1781678065271857200,56.09285717773437,-1.7324036359786987,-10.088140487670898,-1.4476577043533325
1781678065320378600,56.141378662109375,0.3966103494167328,-9.923633575439453,-5.204987525939941
1781678065368900400,56.189900390625,1.3513466119766235,-6.357729911804199,-1.9782661199569702
1781678065417422000,56.23842211914062,-3.0643084049224854,-6.345765590667725,-0.7483552694320679
1781678065465943600,56.286943603515624,0.984347403049469,-7.842775344848633,-1.277767300605774
1781678065514465300,56.33546533203125,0.8270193338394165,-8.780163764953613,5.615057468414307
1781678065562986800,56.38398681640625,0.3475574851036072,-8.545368194580078,3.9284164905548096
1781678065611508500,56.43250854492187,1.9100706577301025,-12.005688667297363,2.0297117233276367
1781678065708551700,56.5295517578125,-2.383849620819092,-10.49073314666748,-1.672582983970642
1781678065757073200,56.5780732421875,-1.848754644393921,-8.371588706970215,-3.3107693195343018
1781678065805595000,56.626594970703124,-3.423231840133667,-17.766708374023438,-3.3332018852233887
1781678065854116600,56.67511669921875,-3.38105845451355,-11.976675987243652,5.704489231109619
1781678065902638000,56.72363818359375,2.2163519859313965,-6.706483840942383,3.941577196121216
1781678065951159800,56.77215991210937,0.8703892230987549,-6.073582172393799,-1.7114664316177368
1781678065999681300,56.820681396484375,2.1409780979156494,-4.8915276527404785,-1.887937068939209
1781678066048203000,56.869203125,2.5235304832458496,-4.064807415008545,2.0644078254699707
1781678066096724500,56.91772436523438,-0.388235479593277,-15.379568099975586,2.1194427013397217
1781678066145246200,56.96624609375,1.932802438735962,-15.330814361572266,3.8994035720825195
1781678066193768000,57.014767822265625,-2.9928228855133057,-17.38953971862793,-0.10767702013254166
1781678066242289400,57.06328930664063,-1.2945170402526855,-8.524131774902344,-0.6714858412742615
1781678066290811100,57.11181103515625,-1.8921245336532593,-10.622636795043945,-4.250251293182373
1781678066339332600,57.16033251953125,1.430907964706421,-8.176873207092285,-4.995316505432129
1781678066387854300,57.208854248046876,-0.9978070259094238,-6.309275150299072,0.7289136052131653
1781678066484897500,57.3058974609375,1.1883355379104614,-7.726424217224121,2.21665096282959
1781678066533419000,57.3544189453125,-0.2431706041097641,-8.827720642089844,5.5758748054504395
1781678066581940700,57.40294067382813,2.013261079788208,-9.606584548950195,0.8144569993019104
1781678066630462500,57.45146240234375,0.31914272904396057,-13.999507904052734,3.70558500289917
1781678066678984000,57.49998388671875,-0.6810571551322937,-13.170694351196289,0.019142581149935722
1781678066727505700,57.548505615234376,-2.9006991386413574,-7.500900745391846,-2.1445672512054443
1781678066776027100,57.59702709960938,-2.8761727809906006,-12.092727661132812,-4.4033918380737305
1781678066824548900,57.645548828125,-4.063611030578613,-16.749757766723633,0.07986045628786087
1781678066873070300,57.6940703125,0.4983053207397461,-7.413562774658203,4.975276470184326
1781678066921592000,57.74259204101563,0.9230313301086426,-6.485147476196289,2.2669003009796143
1781678066970114300,57.7911142578125,1.6375880241394043,-5.79063081741333,-2.144866466522217
1781678067018636000,57.839635986328126,1.7620147466659546,-5.366203784942627,-1.0322039127349854
1781678067067157500,57.88815747070313,0.7848458290100098,-7.462615489959717,3.3394830226898193
1781678067115679200,57.93667919921875,1.6636099815368652,-18.339191436767578,1.662413477897644
1781678067164200700,57.98520068359375,0.054436713457107544,-14.451152801513672,5.02343225479126
1781678067212722400,58.03372241210938,-1.7066807746887207,-13.61037540435791,-2.102393865585327
1781678067261244000,58.08224389648438,-1.5927225351333618,-8.153244018554688,-0.11814561486244202
1781678067309765600,58.130765625,-0.7857431173324585,-10.861021995544434,-4.513761043548584
1781678067358287000,58.179287109375,1.7859430313110352,-8.156234741210938,-2.566601276397705
1781678067406808800,58.22780883789063,-2.785245656967163,-7.165606498718262,1.2355937957763672
1781678067455330300,58.27633032226562,-0.24466611444950104,-7.913064479827881,-0.9466604590415955
1781678067503851800,58.32485180664062,-0.4531407952308655,-6.832406044006348,1.817647933959961
1781678067552373500,58.37337353515625,0.7666005492210388,-8.01057243347168,2.8528428077697754
1781678067600895000,58.42189501953125,3.0203404426574707,-11.530115127563477,2.0554347038269043
1781678067649416700,58.47041674804687,0.576670229434967,-14.345869064331055,1.4973087310791016
1781678067697938200,58.518938232421874,-1.898106575012207,-11.827722549438477,-0.841675341129303
1781678067746460000,58.5674599609375,-3.565903902053833,-8.667402267456055,-0.9245268702507019
1781678067794981400,58.6159814453125,-3.008376359939575,-14.817255020141602,-4.071686744689941
1781678067892024800,58.71302490234375,1.5439687967300415,-6.646364212036133,5.371886730194092
1781678067940546300,58.76154638671875,1.0719845294952393,-6.112166404724121,-0.6882356405258179
1781678067989067800,58.81006787109375,1.929213285446167,-5.72422981262207,-2.341975212097168
1781678068086111000,58.907111083984375,-0.9427721500396729,-12.74327564239502,2.68325138092041
1781678068134632400,58.95563256835938,3.809373617172241,-15.301203727722168,1.8032909631729126
1781678068183154200,59.004154296875,-1.1240284442901611,-16.515859603881836,3.5979080200195312
1781678068231675600,59.05267553710937,-2.462214469909668,-10.707880973815918,-1.322333574295044
1781678068280197400,59.101197265625,-1.9205392599105835,-9.453145027160645,-2.6327030658721924
1781678068328719000,59.14971899414063,0.13549357652664185,-10.313065528869629,-5.2971110343933105
1781678068377240600,59.19824047851562,1.4820544719696045,-8.108378410339355,-0.08225327730178833
1781678068425762000,59.24676196289062,-2.384746789932251,-7.427321434020996,0.8662018179893494
1781678068474283500,59.295283447265625,-0.2847459018230438,-6.820441722869873,0.28145575523376465
1781678068522805200,59.34380517578125,0.8763712644577026,-7.87148904800415,2.6162524223327637
1781678068571326700,59.39232666015625,1.0447661876678467,-8.635098457336426,3.9912281036376953
1781678068668370000,59.489369873046876,0.09870393574237823,-13.77637767791748,2.274078845977783
1781678068716891600,59.5378916015625,-2.383849620819092,-9.585647583007812,-0.1381855010986328
1781678068765413000,59.5864130859375,-2.2683959007263184,-6.995117664337158,-2.1215364933013916
1781678068813934600,59.6349345703125,-2.398505687713623,-16.0017032623291,-4.020540237426758
1781678068862456300,59.683456298828126,-4.331607341766357,-13.609777450561523,4.11505651473999
1781678068910977800,59.73197778320313,2.908176898956299,-6.928118705749512,4.85114860534668
1781678068959499500,59.78049951171875,0.46031925082206726,-6.6107707023620605,-0.1420738399028778
1781678069008021000,59.82902099609375,1.8951154947280884,-5.385645389556885,-2.375474691390991
1781678069056542500,59.87754248046875,2.246262311935425,-5.170889854431152,1.4973087310791016
1781678069105064000,59.92606396484375,-1.8323038816452026,-12.993924140930176,2.681756019592285
1781678069153585700,59.97458569335937,4.694119930267334,-13.967803001403809,2.9341988563537598
1781678069202107400,60.023107421875,-1.9438693523406982,-16.022340774536133,3.1663026809692383
1781678069250628900,60.07162890625,-1.965404748916626,-12.320643424987793,-1.846361756324768
1781678069299150300,60.120150390625,-2.0330018997192383,-9.119047164916992,-1.9660029411315918
1781678069347671800,60.168671875,0.1785643845796585,-10.025029182434082,-4.7952165603637695
1781678069396193500,60.217193603515625,1.9621145725250244,-6.5904316902160645,-0.14685949683189392
1781678069444715000,60.26571508789063,-4.3280181884765625,-7.265506744384766,0.16809579730033875
1781678069493236700,60.31423681640625,0.2312064915895462,-7.22452974319458,-0.9308080077171326
1781678069541758200,60.36275830078125,0.9849455952644348,-8.010272979736328,3.675375461578369
1781678069590279700,60.41127978515625,0.6939185857772827,-9.222835540771484,3.482454299926758
1781678069687323000,60.50832299804687,0.0975075215101242,-13.946866035461426,1.8290138244628906
1781678069735844600,60.5568447265625,-2.7732813358306885,-9.468399047851562,-1.4940186738967896
1781678069784365800,60.60536572265625,-2.4269204139709473,-9.013762474060059,-3.36759877204895
1781678069832887600,60.653887451171876,-3.0020952224731445,-17.090137481689453,-1.6998014450073242
1781678069881409000,60.70240893554688,-2.919243574142456,-11.00459098815918,4.440480709075928
1781678069929930800,60.7509306640625,2.5474588871002197,-6.354439735412598,3.723830223083496
1781678069978452200,60.7994521484375,0.8916255235671997,-5.660820007324219,-0.8335995674133301
1781678070026973700,60.8479736328125,2.2229323387145996,-5.25045108795166,-1.913659930229187
1781678070075495200,60.8964951171875,2.3611178398132324,-4.949254512786865,1.999801516532898
1781678070124017000,60.94501684570312,-1.197009563446045,-17.551952362060547,1.6064813137054443
1781678070172538600,60.99353857421875,2.674278497695923,-14.077873229980469,4.454837322235107
1781678070221059800,61.042059814453125,-3.2207393646240234,-16.266408920288086,0.2584248483181
1781678070269581600,61.09058154296875,-0.7857431173324585,-8.793622970581055,-1.4476577043533325
1781678070318103000,61.13910302734375,-1.4763715267181396,-10.022636413574219,-3.2048869132995605
1781678070366624500,61.18762451171875,1.6621143817901611,-8.579764366149902,-4.450051784515381
1781678070415146000,61.23614599609375,-0.7232306599617004,-6.434898376464844,1.4141582250595093
1781678070512189200,61.33318920898437,0.052043892443180084,-8.403593063354492,1.5658032894134521
1781678070560710700,61.38171069335937,0.6667001843452454,-7.450352191925049,3.3705897331237793
1781678070609232400,61.430232421875,2.1242282390594482,-9.050253868103027,1.9229321479797363
1781678070657753900,61.47875390625,0.6508477330207825,-13.838590621948242,2.3482563495635986
1781678070706275600,61.52727563476562,-0.3334996700286865,-13.569099426269531,-0.18364913761615753
1781678070754797000,61.575797119140624,-2.9608190059661865,-7.034300327301025,-0.42023947834968567
1781678070803318500,61.624318603515626,-3.3251261711120605,-13.834403038024902,-3.985844373703003
1781678070851840000,61.67284008789063,-3.037987470626831,-17.030317306518555,0.6532405614852905
1781678070900361700,61.72136181640625,0.633499801158905,-7.571788311004639,5.836991786956787
1781678070948883000,61.76988305664062,1.526620864868164,-6.536293983459473,1.7476578950881958
1781678070997404700,61.81840478515625,1.667797327041626,-5.274379253387451,-2.6434707641601562
1781678071045926100,61.866926025390626,2.202892303466797,-3.8051862716674805,-1.2340983152389526
1781678071094447600,61.91544750976563,-0.4737788736820221,-9.645467758178711,2.809173822402954
1781678071142969300,61.96396923828125,3.6017963886260986,-16.961223602294922,0.5838487148284912
1781678071191490800,62.01249072265625,-0.32691940665245056,-14.15683650970459,5.632704734802246
1781678071288533800,62.10953369140625,-0.7567301392555237,-8.41465950012207,-2.250748872756958
1781678071337055500,62.15805541992187,-0.8488538265228271,-10.636994361877441,-4.5338006019592285
1781678071385577000,62.206576904296874,1.801795482635498,-7.6049885749816895,-1.6112669706344604
1781678071434098400,62.255098388671875,-3.1600213050842285,-7.175477027893066,0.8503493666648865
1781678071482620000,62.30361987304688,-0.5527420043945312,-8.552845001220703,-0.7570292353630066
1781678071531141400,62.35214135742188,0.9131609201431274,-6.643970966339111,2.210369825363159
1781678071579663000,62.4006630859375,1.2035897970199585,-7.214958667755127,3.418745279312134
1781678071628184600,62.4491845703125,2.4747767448425293,-12.498311042785645,2.448455810546875
1781678071676706000,62.4977060546875,-0.31734809279441833,-14.754144668579102,2.2893331050872803
1781678071725227500,62.5462275390625,-2.2908284664154053,-9.823135375976562,-0.508773922920227
1781678071773749200,62.59474926757812,-2.3647069931030273,-8.056633949279785,-2.1846470832824707
1781678071822270700,62.643270751953125,-3.1411778926849365,-18.859331130981445,-3.99691104888916
1781678071870792200,62.691792236328126,-2.706880569458008,-11.945569038391113,3.9762730598449707
1781678071919313700,62.74031372070313,1.3298112154006958,-6.383153438568115,3.9074792861938477
1781678071967835100,62.78883520507812,1.0462616682052612,-5.859424591064453,-0.3397808074951172
1781678072016356900,62.83735693359375,2.4023938179016113,-4.518247127532959,-1.8203397989273071
1781678072064878300,62.88587841796875,2.832204818725586,-3.9774694442749023,1.0713863372802734
1781678072113399800,62.93439990234375,-1.4892330169677734,-16.595123291015625,1.649253010749817
1781678072161921300,62.98292138671875,3.882952928543091,-14.044971466064453,4.038486480712891
1781678072210442800,63.03144287109375,-3.242872953414917,-16.59721565246582,1.9669002294540405
1781678072258964200,63.079964111328124,-1.5655041933059692,-10.517951011657715,-2.775674343109131
1781678072307486000,63.12848583984375,-1.716252088546753,-10.111470222473145,-2.903989315032959
1781678072356007400,63.17700732421875,0.2910270392894745,-8.993124961853027,-4.250550270080566
1781678072404529000,63.22552880859375,0.30927231907844543,-5.865705490112305,0.5904290080070496
1781678072453050400,63.27405029296875,-2.337787628173828,-6.963113784790039,-1.7267206907272339
1781678072501571800,63.32257177734375,1.0965110063552856,-8.34855842590332,1.1159526109695435
1781678072550093600,63.37109350585938,0.2072782665491104,-7.672286510467529,5.426323413848877
1781678072598615000,63.41961499023437,1.5999010801315308,-9.760921478271484,2.202294111251831
1781678072647136500,63.46813647460937,1.1264212131500244,-13.055240631103516,3.607778310775757
1781678072695658000,63.516657958984375,-0.9299107193946838,-13.455439567565918,0.11485548317432404
1781678072792701000,63.61370092773438,-2.0970098972320557,-11.1104736328125,-3.2614171504974365
1781678072841222400,63.66222241210937,-4.22512674331665,-18.864416122436523,0.9340981245040894
1781678072889744000,63.710743896484374,-0.8264211416244507,-8.871688842773438,4.9776692390441895
1781678072938265600,63.759265625,1.7012969255447388,-6.269195556640625,2.2453649044036865
1781678072986787000,63.807787109375,1.9860427379608154,-4.629513740539551,-2.355135679244995
1781678073035308500,63.85630859375,2.1272194385528564,-3.925126552581787,-0.9299107193946838
1781678073083830000,63.904830078125,0.6239284873008728,-7.426723480224609,2.5986053943634033
1781678073132351500,63.9533515625,1.0761719942092896,-18.61765480041504,1.0441679954528809
1781678073180873000,64.001873046875,1.77397882938385,-14.397015571594238,5.353342533111572
1781678073229394400,64.05039453125,-3.012563705444336,-15.451353073120117,-1.3438689708709717
1781678073277916200,64.09891625976563,-1.2490534782409668,-7.430312633514404,-1.25144624710083
1781678073326437600,64.14743774414063,-0.6996015310287476,-10.694421768188477,-4.493122577667236
1781678073374959000,64.195958984375,1.923829436302185,-8.02373218536377,-3.201596736907959
1781678073423480600,64.24448046875,-2.6234309673309326,-6.955935478210449,1.6289139986038208
1781678073472002000,64.293001953125,-1.0360921621322632,-8.248658180236816,-1.2305090427398682
1781678073520523500,64.3415234375,0.47557350993156433,-7.234101295471191,0.9586246013641357
1781678073569045000,64.390044921875,0.9634101986885071,-7.849953651428223,4.17009162902832
1781678073617566500,64.43856640625,2.210070848464966,-11.025528907775879,2.8052854537963867
1781678073666088000,64.487087890625,-1.0378868579864502,-14.261222839355469,3.741776466369629
