time,seconds_elapsed,z,y,x
1781678009311191000,0.13219091796875,0.0524580143392086,-0.05024362727999687,0.06772962957620621
1781678009408236300,0.229236328125,0.09941824525594711,-0.4725039005279541,0.4050796926021576
1781678009456759000,0.277759033203125,0.12110394239425659,-0.5729147791862488,0.4656316637992859
1781678009505281800,0.32628173828125,0.06772962957620621,-0.4515054225921631,0.42676541209220886
1781678009553804500,0.374804443359375,-0.007177661173045635,-0.0334448479115963,0.3366628587245941
1781678009602327300,0.423327392578125,0.08888082206249237,0.28588470816612244,0.07765618711709976
1781678009650849800,0.471849853515625,-0.03917170315980911,-0.14691297709941864,0.40744680166244507
1781678009699372500,0.52037255859375,-0.0102319847792387,-0.2935205399990082,0.4091266989707947
1781678009747895300,0.568895263671875,-0.00847574882209301,0.12621992826461792,-0.006337722297757864
1781678009796418000,0.61741796875,0.1769980639219284,0.34177884459495544,-0.6251437664031982
1781678009844940800,0.66594091796875,0.1305723488330841,1.5460987091064453,-1.195691466331482
1781678009893463600,0.714463623046875,-0.42707082629203796,0.905912458896637,-1.380172610282898
1781678009941986000,0.762986083984375,-0.04528035223484039,-0.02977965772151947,-0.9440151453018188
1781678009990508800,0.8115087890625,0.2078467458486557,-0.09834922850131989,-0.07620538026094437
1781678010039031600,0.860031494140625,0.356286883354187,-0.1703549176454544,0.20830489695072174
1781678010087554300,0.90855419921875,0.44875654578208923,0.2370155304670334,0.20738859474658966
1781678010136077000,0.9570771484375,0.11171189695596695,0.633619487285614,-0.1663079410791397
1781678010184599800,1.005599853515625,-0.03909534588456154,0.24526220560073853,-0.1692095398902893
1781678010233122300,1.054122314453125,-0.0844520553946495,-0.049480047076940536,-0.083306685090065
1781678010281645300,1.102645263671875,-0.034666575491428375,-0.07887791097164154,-0.13156500458717346
1781678010330167800,1.151167724609375,-0.06604975461959839,-0.15210533142089844,0.0019089524867013097
1781678010378690600,1.199690673828125,-0.007788525894284248,-0.18463388085365295,-0.10858121514320374
1781678010427213300,1.24821337890625,-0.03627009689807892,-0.13920080661773682,-0.1482110619544983
1781678010475736000,1.296736083984375,-0.04253146052360535,0.024740023538470268,-0.12209659814834595
1781678010524258800,1.3452587890625,0.0154243353754282,-0.019242240116000175,0.003741546766832471
1781678010572781600,1.393781494140625,-0.05513054504990578,-0.023136503994464874,-0.02695440873503685
1781678010621304000,1.442303955078125,0.008323032408952713,-0.11606431007385254,0.027259841561317444
1781678010669826800,1.490826904296875,-0.09453132748603821,-0.547029435634613,0.010995565913617611
1781678010718349600,1.539349609375,0.12767073512077332,-1.4291181564331055,0.10827577859163284
1781678010766872300,1.587872314453125,1.1094831228256226,-1.964388370513916,0.2070067971944809
1781678010815395000,1.63639501953125,0.5345830321311951,-1.18209969997406,1.0843613147735596
1781678010863917800,1.684917724609375,0.13271036744117737,-1.6703333854675293,-0.1383608728647232
1781678010912440300,1.7334404296875,0.647516667842865,-1.7124066352844238,0.08933897316455841
1781678010960963300,1.78196337890625,2.6560399532318115,-1.5769474506378174,-0.825812816619873
1781678011009485800,1.83048583984375,3.7346744537353516,-0.9718858599662781,-1.866268277168274
1781678011058008600,1.879008544921875,3.6989388465881348,-2.2240822315216064,-1.6659809350967407
1781678011106531300,1.92753125,3.266446590423584,-4.397615432739258,-1.9252930879592896
1781678011155054000,1.97605419921875,3.458868980407715,-1.5025746822357178,-3.3705990314483643
1781678011203576800,2.024576904296875,3.113654136657715,-2.8693082332611084,-1.6815580129623413
1781678011252099600,2.073099609375,3.0624942779541016,-0.06406444311141968,-2.7394230365753174
1781678011300622000,2.1216220703125,2.166813611984253,0.3927097022533417,-0.7932079434394836
1781678011349144800,2.170144775390625,1.326034665107727,1.2566251754760742,-1.3429862260818481
1781678011397667600,2.21866748046875,0.8681915402412415,3.130300283432007,-2.465831995010376
1781678011446190300,2.2671904296875,1.2744929790496826,3.0827291011810303,-1.2556325197219849
1781678011494713000,2.315713134765625,0.9719622135162354,3.6708390712738037,-0.27511823177337646
1781678011543235800,2.36423583984375,1.0125083923339844,3.0140068531036377,0.300392746925354
1781678011591758600,2.412758544921875,1.5173118114471436,2.7220897674560547,0.8558215498924255
1781678011652330000,2.473330078125,1.4871503114700317,1.074511170387268,0.4790706932544708
1781678011700852700,2.521852783203125,1.383150577545166,0.6090322136878967,0.5657371282577515
1781678011749375500,2.57037548828125,0.9907463192939758,0.512133777141571,1.052290916442871
1781678011797898200,2.618898193359375,0.9158390164375305,0.37514734268188477,1.6413172483444214
1781678011846421000,2.6674208984375,0.7421243786811829,1.134223222732544,1.9206352233886719
1781678011894943500,2.715943603515625,-0.2087630331516266,-0.2294560819864273,-0.07498364895582199
1781678011943466200,2.76446630859375,0.40492698550224304,0.9945642352104187,0.3507890999317169
1781678011991989000,2.812989013671875,-0.6663007736206055,0.2121991515159607,-1.728212833404541
1781678012089034500,2.910034423828125,-1.112079381942749,-0.861853837966919,-1.6324597597122192
1781678012137557000,2.958556884765625,-0.6549997329711914,-2.523482322692871,-0.6527090072631836
1781678012186079700,3.007079833984375,-0.5203040838241577,-1.6871321201324463,-1.6461278200149536
1781678012234602500,3.0556025390625,0.7728202939033508,0.4956403970718384,-1.4429389238357544
1781678012283125200,3.104125244140625,-0.26480987668037415,0.6038398146629333,-1.7234786748886108
1781678012331648000,3.15264794921875,-0.5148062705993652,-0.7857248187065125,-1.472489595413208
1781678012380170800,3.201170654296875,-1.2998439073562622,1.7754020690917969,-1.4394265413284302
1781678012428693500,3.249693603515625,-0.893542468547821,0.9324087500572205,0.1389717310667038
1781678012477216000,3.298216064453125,0.9090431332588196,-0.6728675365447998,-0.21433718502521515
1781678012525739000,3.346739013671875,0.5439751148223877,-1.4007129669189453,0.0974329337477684
1781678012574261500,3.395261474609375,0.17486004531383514,-0.767551600933075,-0.13713914155960083
1781678012622784300,3.4437841796875,-0.019700389355421066,-0.36506807804107666,-0.40775224566459656
1781678012671307000,3.49230712890625,0.14057525992393494,-0.7015781998634338,0.528092622756958
1781678012719829800,3.540829833984375,0.12026400119066238,-0.07124210149049759,-0.30230170488357544
1781678012768352500,3.5893525390625,0.11346813291311264,0.00679587060585618,-0.11736239492893219
1781678012816875300,3.637875244140625,0.27863070368766785,-1.3833032846450806,0.020693045109510422
1781678012865398000,3.68639794921875,0.23021966218948364,-0.8129846453666687,-0.3484983444213867
1781678012913920500,3.73492041015625,0.17944152653217316,-0.32131487131118774,0.49548768997192383
1781678012962443300,3.783443359375,0.14485131204128265,-0.8971312642097473,-0.22159120440483093
1781678013010966000,3.831966064453125,0.30451610684394836,-0.8017600178718567,-0.2409861534833908
1781678013059489000,3.880489013671875,0.17134757339954376,-0.905912458896637,0.0974329337477684
1781678013108011500,3.929011474609375,0.3762163519859314,-1.5121957063674927,-0.3087157905101776
1781678013156534300,3.9775341796875,0.5945241451263428,-1.1807252168655396,-0.25091269612312317
1781678013205057000,4.02605712890625,0.263435423374176,-0.3284161686897278,-0.6052142977714539
1781678013253579800,4.074579833984375,0.3061959743499756,-0.2502254843711853,0.0021380267571657896
1781678013302102500,4.1231025390625,0.4476875364780426,-0.10621411353349686,0.5674170255661011
1781678013350625300,4.171625244140625,0.33001968264579773,-0.11217004805803299,0.5334376692771912
1781678013399148000,4.22014794921875,0.09437860548496246,0.38591381907463074,0.013973532244563103
1781678013447670800,4.2686708984375,0.04367683082818985,0.5641336441040039,-0.418366014957428
1781678013496193300,4.317193359375,0.06711876392364502,0.2378554791212082,-0.2568686306476593
1781678013593239000,4.414239013671875,0.013515383005142212,0.12179116904735565,-0.19272783398628235
1781678013641761500,4.462761474609375,-0.06490438431501389,0.16600249707698822,0.08155044913291931
1781678013690284300,4.5112841796875,-0.0487164668738842,-0.3533852696418762,0.032070402055978775
1781678013738807000,4.55980712890625,0.24663665890693665,0.20792309939861298,-0.4802160859107971
1781678013787329800,4.608329833984375,-0.045967575162649155,0.3710239827632904,-0.013515383005142212
1781678013835852500,4.6568525390625,-0.02695440873503685,0.15057817101478577,0.1274416595697403
1781678013884375300,4.705375244140625,-0.010079269297420979,-0.04657844081521034,0.03245219215750694
1781678013932897800,4.753897705078125,-0.1585194170475006,-0.1340848207473755,-0.04818195849657059
1781678013981420800,4.8024208984375,-0.1366809904575348,-0.13133592903614044,-0.13858994841575623
1781678014029943600,4.850943603515625,-0.027336198836565018,-0.19685117900371552,-0.07338013499975204
1781678014078466000,4.899466064453125,-0.08193223923444748,-0.03657552972435951,0.057955797761678696
1781678014126988800,4.94798876953125,-0.040775224566459656,-0.06772962957620621,0.026801692321896553
1781678014175511600,4.996511474609375,-0.0062613640911877155,-0.021380268037319183,-0.0412333719432354
1781678014224034300,5.045034423828125,-0.007406735327094793,0.031154103577136993,-0.0334448479115963
1781678014272557000,5.09355712890625,-0.007483093533664942,0.06337722390890121,0.041615162044763565
1781678014321079800,5.142079833984375,-0.012370011769235134,0.03329212963581085,0.04405862092971802
1781678014369602600,5.1906025390625,-0.031612250953912735,0.015958841890096664,0.011148282326757908
1781678014418125300,5.239125244140625,0.004734201822429895,-0.02130390889942646,0.022983787581324577
1781678014466648000,5.28764794921875,-0.012675444595515728,0.14928008615970612,-0.025350889191031456
1781678014515170800,5.3361708984375,-0.015577051788568497,0.29817837476730347,-0.06337722390890121
1781678014563693300,5.384693359375,0.02084576152265072,0.24320054054260254,0.03023780696094036
1781678014612216300,5.43321630859375,0.0027488914784044027,0.12408190965652466,-0.017333287745714188
1781678014660738800,5.48173876953125,-0.014126247726380825,0.02893971838057041,-0.04298960790038109
1781678014709261600,5.530261474609375,-0.018173227086663246,0.0102319847792387,-0.038789913058280945
1781678014757784600,5.57878466796875,0.000305432389723137,-0.01359174121171236,-0.02916879393160343
1781678014806307000,5.62730712890625,-0.013362666592001915,0.004352411720901728,-0.04062250629067421
1781678014854829600,5.67582958984375,-0.04222602769732475,-0.0005345066892914474,-0.027947064489126205
1781678014903352600,5.7243525390625,-0.03252854943275452,-0.013209951110184193,-0.030161447823047638
1781678014951875300,5.772875244140625,-0.052687086164951324,-0.006490438245236874,-0.013973532244563103
1781678015000398000,5.821398193359375,-0.047723811119794846,-0.004886918235570192,-0.009392046369612217
1781678015048920800,5.8699208984375,-0.025503603741526604,0.014126247726380825,-0.009621120058000088
1781678015097443600,5.918443603515625,-0.007024944759905338,0.02390008419752121,-0.016798781231045723
1781678015145966300,5.96696630859375,-0.021685699000954628,0.032070402055978775,-0.0102319847792387
1781678015243011600,6.064011474609375,-0.009315688163042068,0.029397867619991302,-0.0029779658652842045
1781678015291534600,6.11253466796875,-0.016416991129517555,0.05238165333867073,-0.015195261687040329
1781678015340057300,6.161057373046875,-0.01847865991294384,0.04810560122132301,0.008857538923621178
1781678015388579800,6.209579833984375,-0.019624030217528343,0.031154103577136993,-0.008399390615522861
1781678015437102800,6.258102783203125,-0.016340631991624832,0.024740023538470268,-0.008857538923621178
1781678015485625300,6.306625244140625,-0.011682788841426373,0.011911863461136818,-0.004581485874950886
1781678015534148000,6.355148193359375,-0.005803215317428112,-0.0066431546583771706,-0.0027488914784044027
1781678015582670800,6.4036708984375,0.00007635809743078426,-0.0013744457392022014,-0.0005345066892914474
1781678015631193600,6.452193603515625,-0.002901607658714056,-0.0009926552884280682,-0.0029779658652842045
1781678015679716400,6.50071630859375,0.0019089524867013097,-0.012140937149524689,0.0025961752980947495
1781678015728239000,6.549239013671875,-0.004199695307761431,0.001679878099821508,-0.004199695307761431
1781678015776761600,6.59776171875,-0.0005345066892914474,-0.00603228947147727,0.005574141163378954
1781678015825284600,6.64628466796875,-0.0006872228696011007,-0.002825249684974551,-0.0027488914784044027
1781678015873807400,6.694807373046875,-0.004963276442140341,-0.0011453714687377214,-0.004963276442140341
1781678015922330000,6.743330078125,-0.003741546766832471,-0.005421424750238657,-0.003970621153712273
1781678015970852900,6.791852783203125,-0.0035888305865228176,-0.0021380267571657896,-0.00923932995647192
1781678016019375600,6.840375732421875,-0.00045814859913662076,0.001221729558892548,-0.0057268571108579636
1781678016067898000,6.888898193359375,-0.0017562361899763346,-0.009162971749901772,-0.0029779658652842045
1781678016116420900,6.9374208984375,-0.00045814859913662076,-0.016416991129517555,-0.003970621153712273
1781678016164943600,6.985943603515625,-0.005039634648710489,-0.005039634648710489,-0.00755945174023509
1781678016213466600,7.034466552734375,-0.0025961752980947495,-0.00603228947147727,-0.0102319847792387
1781678016261989000,7.082989013671875,-0.0015271619195118546,0.008170315995812416,0.0016035200096666813
1781678016310511900,7.131511962890625,0.004581485874950886,0.006108647678047419,-0.008246674202382565
1781678016359034600,7.18003466796875,0.0007635809597559273,0.0054977829568088055,-0.008857538923621178
1781678016407557400,7.228557373046875,-0.004199695307761431,0.010690134018659592,-0.00511599238961935
1781678016456080100,7.277080078125,0.0001527161948615685,0.004963276442140341,-0.004352411720901728
1781678016504602600,7.3256025390625,-0.0027488914784044027,0.008170315995812416,-0.009697478264570236
1781678016553125400,7.37412548828125,-0.004199695307761431,0.007330377586185932,-0.00603228947147727
1781678016601648400,7.4226484375,0.0017562361899763346,-0.0021380267571657896,-0.0005345066892914474
1781678016650171000,7.4711708984375,0.0001527161948615685,-0.007941242307424545,-0.01000291109085083
1781678016698693600,7.519693603515625,-0.002290742937475443,-0.011530072428286076,-0.012140937149524689
1781678016747216600,7.568216552734375,-0.000305432389723137,-0.009926552884280682,-0.008857538923621178
1781678016844262000,7.665261962890625,-0.0032070400193333626,-0.003359756199643016,-0.0021380267571657896
1781678016892784600,7.71378466796875,-0.004352411720901728,-0.007941242307424545,-0.009850194677710533
1781678016941307400,7.762307373046875,-0.0025198173243552446,0.004505127668380737,-0.0009162971982732415
1781678016989830100,7.810830078125,-0.003741546766832471,0.009850194677710533,-0.00045814859913662076
1781678017038353000,7.859352783203125,-0.003970621153712273,0.010842849500477314,-0.010079269297420979
1781678017086875400,7.90787548828125,-0.003970621153712273,0.01000291109085083,-0.007406735327094793
1781678017135398400,7.9563984375,-0.002290742937475443,0.010384701192378998,-0.003970621153712273
1781678017183921200,8.004921142578125,0.0029779658652842045,0.005955931730568409,-0.007177661173045635
1781678017232443600,8.053443603515625,-0.0027488914784044027,0.0021380267571657896,-0.0021380267571657896
1781678017280966400,8.10196630859375,0.0009162971982732415,-0.005192350596189499,-0.003359756199643016
1781678017329489200,8.1504892578125,-0.0010690133785828948,-0.006414080038666725,-0.011300998739898205
1781678017378012000,8.199011962890625,-0.0013744457392022014,-0.013133592903614044,-0.0011453714687377214
1781678017426534700,8.24753466796875,0.003741546766832471,-0.013209951110184193,-0.0017562361899763346
1781678017475057400,8.296057373046875,-0.0010690133785828948,-0.007635809946805239,-0.009850194677710533
1781678017523580000,8.344579833984374,0.000305432389723137,-0.009162971749901772,-0.004123337101191282
1781678017572103000,8.39310302734375,-0.0001527161948615685,0.000305432389723137,-0.00511599238961935
1781678017620625700,8.441625732421874,-0.0001527161948615685,0.0009162971982732415,-0.002290742937475443
1781678017669148200,8.490148193359374,-0.0025961752980947495,0.0057268571108579636,-0.0066431546583771706
1781678017717671000,8.5386708984375,-0.0005345066892914474,0.000610864779446274,-0.00511599238961935
1781678017766193700,8.587193603515624,-0.001679878099821508,-0.0021380267571657896,0.0015271619195118546
1781678017814716400,8.63571630859375,0.00045814859913662076,-0.0013744457392022014,-0.003359756199643016
1781678017863239200,8.6842392578125,-0.0001527161948615685,-0.001221729558892548,-0.005955931730568409
1781678017911762000,8.732761962890624,-0.000305432389723137,-0.011911863461136818,0.0005345066892914474
1781678017960284400,8.781284423828126,-0.0015271619195118546,-0.009315688163042068,-0.007254019379615784
1781678018008807200,8.82980712890625,0.0015271619195118546,-0.005421424750238657,-0.010461059398949146
1781678018057329700,8.87832958984375,0.004734201822429895,-0.005803215317428112,-0.007788525894284248
1781678018105852700,8.926852783203126,-0.0027488914784044027,0.002672533504664898,-0.001679878099821508
1781678018154375400,8.97537548828125,0.0011453714687377214,-0.0017562361899763346,-0.004810560029000044
1781678018202898200,9.023898193359376,-0.0006872228696011007,0.003283398225903511,-0.00847574882209301
1781678018251420700,9.072420654296875,0.0038179049734026194,-0.0017562361899763346,-0.005955931730568409
1781678018299943400,9.120943359375,0.004428769461810589,0.00045814859913662076,-0.011911863461136818
1781678018348466200,9.169466064453125,0.0019853105768561363,0.00045814859913662076,-0.01802051067352295
1781678018396989000,9.217989013671875,0.00007635809743078426,0.005803215317428112,-0.009010255336761475
1781678018494034400,9.315034423828125,0.0031306820455938578,0.003894262947142124,-0.012140937149524689
1781678018542557000,9.363556884765625,0.002290742937475443,0.005192350596189499,-0.014737112447619438
1781678018591079700,9.41207958984375,0.0031306820455938578,-0.001832594396546483,-0.00603228947147727
1781678018639602400,9.4606025390625,0.005192350596189499,-0.014660755172371864,-0.013133592903614044
1781678018736648000,9.55764794921875,0.0102319847792387,-0.027259841561317444,-0.012446369975805283
1781678018785170400,9.60617041015625,0.014813470654189587,-0.029856016859412193,0.012370011769235134
1781678018833693200,9.654693115234375,0.03191768378019333,-0.016416991129517555,-0.011682788841426373
1781678018930738400,9.751738525390625,0.054672397673130035,0.024663666263222694,-0.09277509152889252
1781678018979261200,9.80026123046875,0.06444623321294785,0.04520399495959282,-0.08697187155485153
1781678019027784000,9.848783935546875,0.07444914430379868,0.07154753804206848,-0.10987929999828339
1781678019076306700,9.897306640625,0.06627883017063141,0.10323614627122879,-0.07910698652267456
1781678019124829400,9.945829345703125,0.032910339534282684,0.20799945294857025,0.05024362727999687
1781678019173352200,9.994352294921875,0.005039634648710489,0.5828413367271423,0.3488801419734955
1781678019221874700,10.042874755859375,0.1092684343457222,0.6172788739204407,0.5486329197883606
1781678019270397400,10.0913974609375,0.03657552972435951,0.767857015132904,1.148349404335022
1781678019318920200,10.139920166015624,-0.2424369603395462,0.04764745384454727,1.3252711296081543
1781678019367442700,10.188442626953124,-0.2701549530029297,-0.4728093445301056,0.3153589367866516
1781678019415965400,10.23696533203125,-0.5652026534080505,-0.771064043045044,0.2957349121570587
1781678019464488000,10.285488037109374,-0.5154935121536255,-0.7386882305145264,0.10758855938911438
1781678019513010700,10.3340107421875,-0.15729768574237823,-0.8019890785217285,-0.0319940410554409
1781678019561533400,10.382533447265626,0.1945604383945465,-0.5170970559120178,-0.09353867173194885
1781678019610056200,10.43105615234375,0.3094030022621155,-0.22495095431804657,-0.2580140233039856
1781678019658579000,10.479578857421876,0.35811948776245117,-0.3013090491294861,-0.18417572975158691
1781678019707101700,10.528101806640626,0.25274530053138733,-0.10506874322891235,0.047723811119794846
1781678019755624200,10.576624267578126,0.4425715208053589,0.39370235800743103,-0.4780016839504242
1781678019804147000,10.62514697265625,0.13041962683200836,0.7535017132759094,-0.8888846039772034
1781678019852669700,10.673669677734376,-0.07139482349157333,0.6365974545478821,-0.7070759534835815
1781678019901192400,10.7221923828125,0.030085090547800064,0.5345066785812378,-0.8404735922813416
1781678019949715000,10.77071484375,-0.1556941568851471,0.08414662629365921,-0.5979602336883545
1781678019998237700,10.81923779296875,0.26480987668037415,0.10086904466152191,-0.24831652641296387
1781678020095283000,10.916282958984375,0.48212501406669617,0.916602611541748,0.2652680277824402
1781678020143805700,10.9648056640625,0.5574141144752502,0.7984766364097595,-0.017562363296747208
1781678020192328400,11.013328369140625,0.2055560052394867,1.0418298244476318,-0.4511236250400543
1781678020240851000,11.061850830078125,0.12873975932598114,0.6652317643165588,-0.7531198859214783
1781678020337896200,11.158896240234375,0.37354379892349243,0.25091269612312317,-0.08865175396203995
1781678020386419000,11.2074189453125,0.4600575268268585,1.030987024307251,0.7257837057113647
1781678020434941700,11.255941650390625,0.07223475724458694,0.4964803457260132,2.3955061435699463
1781678020483464200,11.304464111328125,-0.2208276242017746,0.44868019223213196,1.5032618045806885
1781678020531987000,11.352987060546875,-0.25297439098358154,0.5797106623649597,0.6795870661735535
1781678020580509400,11.401509521484375,-0.8704059720039368,0.4676169753074646,0.2796997129917145
1781678020629032000,11.450031982421875,-0.6123919486999512,-0.22449280321598053,0.2554178237915039
1781678020677554700,11.4985546875,0.0781143307685852,-1.7144683599472046,0.2831358313560486
1781678020726077400,11.547077392578124,0.08743002265691757,-1.4789036512374878,-0.5594757795333862
1781678020774600000,11.595599853515624,0.1043815165758133,-1.5690062046051025,0.020922118797898293
1781678020823122700,11.644122802734374,-0.5502364635467529,-0.5676460862159729,0.3107011020183563
1781678020871645400,11.6926455078125,0.1311832070350647,-0.4637990891933441,-0.08170316368341446
1781678020920168000,11.74116796875,-0.5975784659385681,-0.2966512143611908,-1.1488839387893677
1781678020968690700,11.789690673828124,-0.09903645515441895,-0.21555891633033752,-1.282281517982483
1781678021017213400,11.83821337890625,0.14569124579429626,-1.184772253036499,-0.8856775760650635
1781678021065736000,11.88673583984375,0.44784024357795715,-0.5676460862159729,-0.002672533504664898
1781678021114258700,11.9352587890625,0.3802633285522461,1.1515564918518066,0.03390299528837204
1781678021162781200,11.98378125,0.5789470672607422,1.4217114448547363,-0.14973822236061096
1781678021211303700,12.0323037109375,0.5443568825721741,0.29016077518463135,-0.6822596192359924
1781678021259826400,12.080826416015626,0.11575887352228165,0.25213444232940674,-1.1770601272583008
1781678021308349200,12.12934912109375,-0.25274530053138733,0.7186060547828674,-0.7609847784042358
1781678021356871700,12.17787158203125,0.32589635252952576,-0.05100720748305321,-0.13912445306777954
1781678021405394400,12.22639453125,0.14737112820148468,0.9933425188064575,0.5959749221801758
1781678021453917000,12.2749169921875,0.02023489587008953,0.5628355145454407,2.029674530029297
1781678021502439700,12.323439697265625,0.6046034097671509,-1.9074252843856812,3.3638031482696533
1781678021550962200,12.371962158203125,-0.14141519367694855,0.35903576016426086,0.34811657667160034
1781678021599484700,12.420484619140625,-0.14309507608413696,-1.0063997507095337,-0.05345066636800766
1781678021696530200,12.5175302734375,-0.17562362551689148,-1.8199188709259033,0.04940368980169296
1781678021793575200,12.6145751953125,0.5945241451263428,-0.729143500328064,0.10865757614374161
1781678021842098000,12.663097900390625,-0.09987638890743256,0.9468404054641724,0.16989676654338837
1781678021890620400,12.711620361328125,0.3949240744113922,0.10270164161920547,0.0308486707508564
1781678021939143200,12.76014306640625,-0.7598394155502319,0.031154103577136993,-1.0784817934036255
1781678021987666000,12.808666015625,-0.17562362551689148,0.3614792227745056,-1.1393392086029053
1781678022036188400,12.8571884765625,0.12286017835140228,0.2124282270669937,-0.35941755771636963
1781678022084711000,12.9057109375,0.3822486400604248,1.4288127422332764,-0.28672465682029724
1781678022133233700,12.954233642578124,0.29825472831726074,2.765842914581299,-0.871933102607727
1781678022181756200,13.002756103515624,0.8330668210983276,2.599306106567383,-0.5928442478179932
1781678022230278700,13.051278564453124,0.7307469844818115,1.4692060947418213,-0.19738568365573883
1781678022278801400,13.099801513671874,0.17707443237304688,2.1447463035583496,-0.48472121357917786
1781678022327324000,13.148323974609376,-0.012140937149524689,1.2168426513671875,-0.6887500286102295
1781678022375846700,13.1968466796875,0.458301305770874,0.6638572812080383,0.0015271619195118546
1781678022424369200,13.245369140625,0.2971857190132141,1.9415572881698608,1.7694461345672607
1781678022472891600,13.2938916015625,-0.3181841969490051,0.3787361681461334,3.1228935718536377
1781678022521414400,13.342414306640626,-0.13164135813713074,0.7644972801208496,1.3169480562210083
1781678022569937200,13.390937255859376,-0.22953243553638458,1.2439497709274292,0.2525925934314728
1781678022618459600,13.439459716796875,-0.9114866256713867,0.46288278698921204,0.011530072428286076
1781678022666982100,13.487982177734375,-0.2925278842449188,-0.24083344638347626,-0.4363865256309509
1781678022715504600,13.536504638671875,0.41523534059524536,-0.8139773011207581,-0.13446660339832306
1781678022764027100,13.585027099609375,0.8052725195884705,-1.3286309242248535,-0.16707152128219604
1781678022812550000,13.6335498046875,0.4760163724422455,0.15439607203006744,0.18180863559246063
1781678022861072400,13.682072265625,-0.04550942778587341,-0.26564982533454895,-0.06772962957620621
1781678022909595100,13.73059521484375,0.523052990436554,0.9334777593612671,0.21861323714256287
1781678022958117600,13.77911767578125,-0.5004509687423706,0.4333322048187256,-1.1249074935913086
1781678023006640000,13.82764013671875,-0.4584540128707886,0.6368265151977539,-1.1268928050994873
1781678023055162600,13.87616259765625,0.13301581144332886,1.4895174503326416,-0.616209864616394
1781678023103685400,13.924685302734375,0.4137081801891327,2.1526875495910645,-0.46204283833503723
1781678023152208000,13.973207763671875,0.43172869086265564,3.2514805793762207,-0.47548186779022217
1781678023200730400,14.02173046875,0.7561742663383484,3.02996563911438,-0.4072940945625305
1781678023249253000,14.070253173828124,0.5791761875152588,1.9718714952468872,-0.24136795103549957
1781678023297775600,14.118775634765624,0.17608177661895752,2.2821907997131348,-0.526870846748352
1781678023346298000,14.167298095703124,0.0334448479115963,1.0021237134933472,-0.8306233882904053
1781678023443343000,14.264343017578126,0.2759581506252289,1.6001602411270142,1.3450478315353394
1781678023491865900,14.312865966796876,-0.10071633011102676,0.5375609993934631,2.9925501346588135
1781678023540388400,14.361388427734376,0.09842558950185776,0.05849030241370201,1.4470622539520264
1781678023588910800,14.409910888671876,-0.11049016565084457,0.7008909583091736,0.07162389904260635
1781678023637433300,14.458433349609376,-0.9748638272285461,0.40202537178993225,0.008323032408952713
1781678023685956000,14.5069560546875,-0.7231112122535706,-0.9846376776695251,0.05933023989200592
1781678023734478600,14.555478515625,0.18432845175266266,-1.194775104522705,-0.13095413148403168
1781678023783001000,14.6040009765625,0.5150353908538818,-1.400025725364685,-0.008399390615522861
1781678023831523800,14.65252392578125,0.21456626057624817,0.0191658828407526,-0.08009964227676392
1781678023880046300,14.70104638671875,-0.15691588819026947,0.08903354406356812,0.24953825771808624
1781678023928568600,14.749568603515625,0.10766492038965225,0.5388590693473816,-0.18860450387001038
1781678023977091300,14.79809130859375,-0.5332086086273193,-0.19181154668331146,-1.4424808025360107
1781678024025613800,14.84661376953125,-0.36537349224090576,0.5490147471427917,-0.9153045415878296
1781678024074136600,14.895136474609375,0.28435754776000977,0.6450732350349426,-0.8872047066688538
1781678024122659000,14.9436591796875,0.29596397280693054,1.3206896781921387,-0.25847217440605164
1781678024171181600,14.992181640625,0.3675878942012787,2.0572397708892822,-0.2984074354171753
1781678024219704000,15.0407041015625,0.6694314479827881,1.5216641426086426,-0.47731447219848633
1781678024268226600,15.0892265625,0.4399753510951996,0.8106175661087036,-0.6092612743377686
1781678024316749000,15.1377490234375,-0.08193223923444748,1.1592686176300049,-0.6847030520439148
1781678024365271800,15.186271728515624,0.10193806141614914,0.37232208251953125,-0.4841103255748749
1781678024413794000,15.2347939453125,0.2199876755475998,0.7608320713043213,0.1744018942117691
1781678024462316800,15.28331689453125,-0.13591741025447845,1.6016874313354492,1.876347541809082
1781678024510839300,15.33183935546875,0.018860450014472008,-0.626518189907074,2.6612324714660645
1781678024607884300,15.42888427734375,-0.4653262495994568,-0.3782780170440674,-0.33712100982666016
1781678024656406800,15.47740673828125,-1.2544108629226685,-1.1065815687179565,0.1856265366077423
1781678024704929300,15.52592919921875,-0.39454227685928345,-1.440190076828003,-0.17661628127098083
1781678024753451800,15.57445166015625,0.4705185890197754,-1.511813998222351,-0.09392046183347702
1781678024801974500,15.622974609375,0.2733619809150696,-1.053436279296875,0.24281874299049377
1781678024850496800,15.671496826171875,-0.4099666178226471,0.5984947681427002,0.3427715003490448
1781678024899019300,15.720019287109375,0.5779544115066528,-0.09445496648550034,-0.4168388545513153
1781678024947542000,15.7685419921875,-0.12774710357189178,-0.5257254838943481,-0.639804482460022
1781678024996064300,15.817064208984375,-0.43974629044532776,-0.20861032605171204,-1.380172610282898
1781678025044587000,15.8655869140625,0.10476330667734146,-0.17684535682201385,-0.9334777593612671
1781678025093109500,15.914109619140625,0.4540252387523651,0.09621120244264603,-0.641866147518158
1781678025141631700,15.9626318359375,0.20334161818027496,0.9475276470184326,0.6372846961021423
1781678025190154200,16.011154296875,0.3191768527030945,1.6746858358383179,-0.5329031348228455
1781678025238677000,16.059677001953126,0.41408994793891907,0.4266127049922943,-0.6850084662437439
1781678025287199500,16.108199462890624,-0.0027488914784044027,0.17188207805156708,-1.123227596282959
1781678025335722000,16.156721923828126,-0.20028728246688843,1.0057125091552734,-0.46662431955337524
1781678025432766700,16.2537666015625,0.22708898782730103,1.561981201171875,0.7018072605133057
1781678025481289500,16.30228955078125,-0.02107483521103859,-0.39744389057159424,2.7663774490356445
1781678025529811700,16.350811767578126,0.22525638341903687,-0.7779362797737122,2.2489750385284424
1781678025578334500,16.39933447265625,0.09460768103599548,-0.36651885509490967,0.5521454215049744
1781678025626856700,16.447856689453126,-0.8255837559700012,-0.716086208820343,-0.5003746151924133
1781678025675379200,16.496379150390624,-0.9479857683181763,-0.8875865340232849,0.17195843160152435
1781678025723901700,16.544901611328125,-0.22647811472415924,-1.3957496881484985,-0.03329212963581085
1781678025772424200,16.593424072265623,0.4889972507953644,-1.335503101348877,0.18806999921798706
1781678025820946400,16.641946533203125,0.12782345712184906,-0.18974986672401428,0.24625486135482788
1781678025869469200,16.69046923828125,-0.25671592354774475,0.17172935605049133,0.21655155718326569
1781678025917991700,16.73899169921875,0.5840631127357483,-0.1995237022638321,-0.6459894776344299
1781678025966514200,16.78751416015625,-0.490066260099411,-1.137201189994812,-0.8312342762947083
1781678026015036700,16.83603662109375,-0.17722713947296143,-0.33597561717033386,-1.3574179410934448
1781678026063559200,16.88455908203125,0.4289797842502594,-0.7071523666381836,-0.8474985361099243
1781678026160604200,16.981604248046875,0.43172869086265564,2.17551851272583,-0.09033162891864777
1781678026209126400,17.03012646484375,0.6974548697471619,2.0586905479431152,-0.474718302488327
1781678026257649200,17.078649169921874,0.37003132700920105,0.671187698841095,-0.42562004923820496
1781678026306171600,17.127171630859376,-0.04283689334988594,0.9861648082733154,-0.8965967893600464
1781678026354694000,17.17569384765625,-0.2733619809150696,0.41813695430755615,-0.8109229803085327
1781678026403216400,17.22421630859375,0.44463321566581726,-0.2530507445335388,0.027870705351233482
1781678026451739000,17.27273876953125,0.11552979797124863,0.7880918979644775,1.1188751459121704
1781678026500261400,17.321261474609376,-0.06589704006910324,-0.869566023349762,2.577314853668213
1781678026548783900,17.369783935546874,0.13103049993515015,-1.0096831321716309,2.1121413707733154
1781678026597306400,17.418306396484375,-0.11316270381212234,-0.49602219462394714,0.16974404454231262
1781678026645828600,17.46682861328125,-0.9327141642570496,-0.5821541547775269,0.12133301794528961
1781678026694351000,17.51535107421875,-0.9665408134460449,-1.404149055480957,0.11843141168355942
1781678026742873600,17.56387353515625,0.10858121514320374,-1.6118431091308594,0.00954476185142994
1781678026791396000,17.61239599609375,0.7142536640167236,-1.64566969871521,0.004657844081521034
1781678026839918600,17.660918701171877,0.2297615110874176,-0.20517420768737793,0.3476584255695343
1781678026888441000,17.709441162109375,-0.0654388889670372,0.6429351568222046,0.16035200655460358
1781678026936963300,17.75796337890625,0.6329322457313538,0.10835213959217072,-0.7679333686828613
1781678026985485800,17.80648583984375,-0.6812669634819031,-0.8046616315841675,-1.1926370859146118
1781678027034008300,17.85500830078125,0.02611446939408779,-0.47097674012184143,-0.8713986277580261
1781678027082530800,17.90353076171875,0.3983601927757263,-0.2917642891407013,-0.8242856860160828
1781678027131053300,17.95205322265625,0.45333802700042725,0.38179048895835876,0.03672824427485466
1781678027179575800,18.000575927734374,0.19929464161396027,2.055178165435791,0.13813179731369019
1781678027228098000,18.04909814453125,0.5170970559120178,1.3991857767105103,-0.28153231739997864
1781678027276620500,18.09762060546875,0.35727953910827637,0.3816377818584442,-0.5942187309265137
1781678027325143000,18.14614306640625,-0.009010255336761475,0.7475457787513733,-1.184695839881897
1781678027373665300,18.194665283203125,-0.10842850059270859,0.5231293439865112,-0.7151699662208557
1781678027422187800,18.243187744140624,0.4362338185310364,0.019242240116000175,-0.03940077871084213
1781678027470710300,18.291710205078125,0.16791145503520966,1.1612539291381836,1.3027454614639282
1781678027519232800,18.340232666015623,-0.06246092543005943,-1.00762140750885,2.7361397743225098
1781678027567755000,18.388755126953125,-0.005192350596189499,-0.14691297709941864,1.7934225797653198
1781678027616277500,18.437277587890627,-0.2458730787038803,-0.03145953640341759,0.3165042996406555
1781678027664800000,18.485800048828125,-1.0589340925216675,-0.9175189137458801,-0.19822561740875244
1781678027761844700,18.5828447265625,0.21090106666088104,-1.5922954082489014,-0.032910339534282684
1781678027810367500,18.631367431640626,0.40057456493377686,-1.2434916496276855,-0.013744457624852657
1781678027858889700,18.6798896484375,-0.04696023091673851,0.39102980494499207,0.36140286922454834
1781678027907412200,18.728412109375,-0.0031306820455938578,0.13194678723812103,-0.2485456019639969
1781678027955934500,18.7769345703125,-0.09850194305181503,0.10529781877994537,-0.4780016839504242
1781678028004457000,18.82545703125,-0.5667297840118408,-0.6421716213226318,-1.1542290449142456
1781678028052979500,18.8739794921875,0.20723587274551392,-0.5171734094619751,-0.8652899861335754
1781678028101502000,18.922501953125,0.4751000702381134,-0.19272783398628235,-0.6624065041542053
1781678028150024200,18.971024169921876,0.45539969205856323,0.6359102129936218,0.30856308341026306
1781678028198546700,19.019546630859374,0.2837466895580292,2.2052981853485107,-0.06971494108438492
1781678028247069200,19.068069091796875,0.4926624298095703,0.9910517334938049,-0.37026041746139526
1781678028295591400,19.11659130859375,0.291687935590744,0.4072940945625305,-1.0831396579742432
1781678028344114000,19.165114013671875,-0.22953243553638458,0.324063777923584,-1.181717872619629
1781678028392636400,19.213636474609373,-0.10537417232990265,0.19410228729248047,-0.45188722014427185
1781678028441158700,19.26215869140625,0.46654796600341797,-0.3549124300479889,0.24610215425491333
1781678028489681200,19.31068115234375,0.1931096315383911,0.4269944727420807,1.5806889533996582
1781678028538203600,19.35920361328125,-0.0206166859716177,-0.8778126835823059,2.669402837753296
1781678028586726000,19.407725830078125,-0.06062832847237587,-0.22105668485164642,1.7223331928253174
1781678028635248400,19.456248291015626,-0.42363473773002625,-0.15676318109035492,0.552603542804718
1781678028683770600,19.5047705078125,-1.0299943685531616,-0.7826704978942871,-0.005574141163378954
1781678028732292900,19.55329296875,-0.6772963404655457,-1.2498292922973633,0.0019089524867013097
1781678028780815400,19.6018154296875,0.19929464161396027,-1.3616175651550293,-0.1078176349401474
1781678028829337900,19.650337890625,0.7023417949676514,-1.3188570737838745,-0.1776089370250702
1781678028877860000,19.698860107421876,0.18868085741996765,0.46692976355552673,0.42019861936569214
1781678028926382600,19.747382568359374,-0.00603228947147727,0.33887723088264465,-0.3474293351173401
1781678028974904800,19.79590478515625,0.6119337677955627,0.1651625633239746,-0.36109745502471924
1781678029023427300,19.84442724609375,-0.5867356061935425,-1.1099413633346558,-1.0572541952133179
1781678029071949800,19.89294970703125,-0.07651081681251526,-0.16569706797599792,-0.9717331528663635
1781678029120472300,19.941472412109373,0.4237874448299408,0.23548837006092072,-0.969518780708313
1781678029217517000,20.03851708984375,0.25442516803741455,2.017533540725708,0.14630211889743805
1781678029314561500,20.1355615234375,0.5576431751251221,0.8371137976646423,-0.6088794469833374
1781678029363084000,20.184083984375,0.15928299725055695,0.767551600933075,-0.9962440729141235
1781678029411606500,20.2326064453125,-0.17234022915363312,0.6407971382141113,-0.4618901312351227
1781678029460128800,20.281128662109374,0.448069304227829,-0.337808221578598,-0.19822561740875244
1781678029508651300,20.3296513671875,0.07521272450685501,1.1613303422927856,0.4087449014186859
1781678029557173800,20.378173828125,-0.25243985652923584,0.07338013499975204,2.2741732597351074
1781678029605696000,20.426696044921876,0.1230892539024353,-0.583375871181488,2.342437267303467
1781678029654218200,20.47521826171875,-0.22388194501399994,-0.607581377029419,0.9571487307548523
1781678029702740700,20.52374072265625,-0.9253838062286377,-0.26710063219070435,-0.34238970279693604
1781678029751263000,20.572262939453125,-0.9699769020080566,-1.1059707403182983,0.14576761424541473
1781678029799785500,20.620785400390623,-0.035735588520765305,-1.7718132734298706,-0.06360629200935364
1781678029848308000,20.669307861328125,0.5881864428520203,-1.0977239608764648,-0.15890119969844818
1781678029896830000,20.717829833984375,0.49166980385780334,-0.6869174242019653,0.4220311939716339
1781678029945352400,20.7663525390625,-0.4198168218135834,0.6410261988639832,0.13858994841575623
1781678029993875000,20.814875,0.6437751054763794,0.16844595968723297,-0.6854666471481323
1781678030042397200,20.863397216796876,-0.3470475673675537,-0.8025999665260315,-0.783815860748291
1781678030090919400,20.91191943359375,-0.26564982533454895,-0.41294458508491516,-1.1002438068389893
1781678030139442000,20.96044189453125,0.2738201320171356,-0.4546361267566681,-0.8212313652038574
1781678030187964200,21.008964111328126,0.5729147791862488,0.27435463666915894,-0.16966769099235535
1781678030236486700,21.057486572265624,0.18982623517513275,0.9586759209632874,0.474718302488327
1781678030285009000,21.1060087890625,0.3900371491909027,1.6810998916625977,-0.5713876485824585
1781678030333531100,21.15453125,0.5003746151924133,0.6472112536430359,-0.6617956161499023
1781678030382053600,21.2030537109375,0.060322895646095276,0.00007635809743078426,-1.1658353805541992
1781678030430576000,21.251576171875,-0.27863070368766785,1.0344995260238647,-0.5646681189537048
1781678030479098400,21.300098388671874,0.4673879146575928,-0.3814850449562073,-0.2674824297428131
1781678030527620600,21.34862060546875,0.050549060106277466,0.8273400068283081,0.19868376851081848
1781678030576142800,21.397142822265625,-0.24869832396507263,0.45822495222091675,1.9662973880767822
1781678030624665300,21.445665283203127,0.314289927482605,-1.4330123662948608,2.5789947509765625
1781678030673187800,21.494187744140625,-0.21204642951488495,-0.3280344009399414,1.7009530067443848
1781678030721710000,21.5427099609375,-0.586888313293457,-0.6672170758247375,-0.39675667881965637
1781678030818754800,21.6397548828125,-0.32039856910705566,-1.6438370943069458,-0.09575305134057999
1781678030915799300,21.73679931640625,0.18890993297100067,-0.5391645431518555,-0.15416699647903442
1781678030964321800,21.78532177734375,-0.19906556606292725,0.6325504779815674,0.13698641955852509
1781678031012844300,21.83384423828125,0.22678354382514954,-0.24342961609363556,-0.34376415610313416
1781678031061366300,21.8823662109375,-0.47143489122390747,-1.1143701076507568,-0.8880446553230286
1781678031109888800,21.930888671875,0.12354740500450134,-0.9231693744659424,-0.7630464434623718
1781678031158411300,21.979411376953124,0.37438374757766724,-0.6437751054763794,-0.7677806615829468
1781678031206933500,22.02793359375,0.3963748812675476,0.007635809946805239,0.4200458824634552
1781678031255455700,22.076455810546875,0.1265253722667694,1.1828632354736328,0.17142392694950104
1781678031303978200,22.124978271484373,0.20372340083122253,0.48265954852104187,-0.6926442980766296
1781678031352500500,22.17350048828125,0.19982914626598358,-0.23800818622112274,-1.2008074522018433
1781678031401022700,22.222022705078125,-0.23258677124977112,0.08643736690282822,-1.3334414958953857
1781678031449545200,22.270545166015626,-0.40202537178993225,-0.011148282326757908,-0.8161917328834534
1781678031498067200,22.319067138671876,0.11720968037843704,-0.28641921281814575,0.1701258420944214
1781678031546589700,22.367589599609374,-0.00847574882209301,0.3610210716724396,1.863901138305664
1781678031595112000,22.41611181640625,0.051159925758838654,-1.87932550907135,2.7197227478027344
1781678031643634200,22.46463427734375,0.09949459880590439,-1.2217295169830322,2.081368923187256
1781678031692156700,22.51315673828125,-0.19624030590057373,-2.1138975620269775,-0.16500984132289886
1781678031740679000,22.561678955078126,-1.2035562992095947,-1.9233077764511108,-0.1297324001789093
1781678031789201200,22.610201171875,-0.5871174335479736,-2.215912103652954,0.2667188346385956
1781678031837723400,22.658723388671874,0.057955797761678696,-1.4986040592193604,0.25793763995170593
1781678031886246000,22.707245849609375,0.2733619809150696,-1.3060288429260254,-0.07154753804206848
1781678031934768000,22.75576806640625,-0.010842849500477314,0.4082867503166199,0.6630937457084656
1781678031983290600,22.80429052734375,0.44379326701164246,-0.42164942622184753,-0.69096440076828
1781678032031812900,22.852812744140625,0.6653844714164734,0.05520690605044365,-0.38469210267066956
1781678032080335000,22.901335205078126,-0.7565560340881348,-1.422245979309082,-1.0075451135635376
1781678032128857300,22.949857421875,0.2742019295692444,-1.18446683883667,-0.6022363305091858
1781678032177379600,22.998379638671874,0.550541877746582,-0.72173672914505,-0.6606502532958984
1781678032225901800,23.04690185546875,0.34895649552345276,-0.12064579129219055,0.5411498546600342
1781678032274424300,23.09542431640625,0.013897174037992954,0.6903535723686218,0.6408734917640686
1781678032322946600,23.143946533203124,0.3843103051185608,0.48670652508735657,-1.2160791158676147
1781678032371468800,23.19246875,0.39248061180114746,0.2885572612285614,-1.008766770362854
1781678032419991300,23.2409912109375,0.3317759335041046,0.18570289015769958,-0.9992983937263489
1781678032517035800,23.338035888671875,-0.09178243577480316,0.5978838801383972,0.22350014746189117
1781678032565558000,23.38655810546875,-0.12087486684322357,0.39446592330932617,1.5997785329818726
1781678032614080500,23.43508056640625,0.06666062027215958,-2.0387611389160156,2.1670427322387695
1781678032662602500,23.4836025390625,0.0012980876490473747,-0.6304124593734741,2.080376386642456
1781678032711125000,23.532125,-0.14592032134532928,-1.9400302171707153,0.6285035014152527
1781678032759647200,23.580647216796876,-1.1076505184173584,-1.699196696281433,0.02779434807598591
1781678032808169500,23.62916943359375,-0.7136427760124207,-1.8927645683288574,-0.02611446939408779
1781678032856691700,23.677691650390624,0.11598794907331467,-1.7243949174880981,0.1836412250995636
1781678032905214200,23.726214111328126,0.2087630331516266,-1.5584688186645508,-0.24174973368644714
1781678032953736200,23.774736083984376,-0.02672533318400383,0.8882737755775452,0.7632755637168884
1781678033002258700,23.8232587890625,0.5548179149627686,-0.5796343088150024,-0.5002219080924988
1781678033050781000,23.871781005859376,0.18982623517513275,-0.21235187351703644,-0.10285435616970062
1781678033099303200,23.92030322265625,-0.4618901312351227,-1.4559961557388306,-1.070311427116394
1781678033147825400,23.968825439453123,0.1951712965965271,-0.6381246447563171,-0.7616720199584961
1781678033196348000,24.017347900390625,0.4918225109577179,0.11995857208967209,-0.3992001414299011
1781678033244870100,24.0658701171875,0.4032471179962158,0.11881320178508759,0.822300374507904
1781678033293392400,24.114392333984377,0.22105668485164642,1.8383212089538574,-0.3820195496082306
1781678033341914600,24.16291455078125,0.4659371078014374,0.5209149122238159,-0.7695369124412537
1781678033390436600,24.2114365234375,0.44929105043411255,-0.006872228812426329,-1.00762140750885
1781678033438959000,24.259958984375,-0.36483898758888245,0.5954404473304749,-0.7160098552703857
1781678033487481300,24.3084814453125,0.11919499188661575,-0.1533270627260208,-0.32444554567337036
1781678033536003600,24.357003662109374,0.3430005609989166,-0.03940077871084213,0.06879864633083344
1781678033584525800,24.40552587890625,-0.1487455666065216,0.7442623972892761,1.5262455940246582
1781678033633048000,24.454048095703126,0.015195261687040329,-1.246316909790039,2.2973861694335938
1781678033681570300,24.5025703125,-0.06528617441654205,-0.21456626057624817,2.1909430027008057
1781678033730092800,24.5510927734375,-0.12812888622283936,-0.8625410795211792,-0.028634287416934967
1781678033778615000,24.599614990234375,-1.0352630615234375,-1.2702933549880981,-0.023518294095993042
1781678033827137300,24.64813720703125,-0.6897426843643188,-1.1795798540115356,-0.012522728182375431
1781678033875659500,24.696659423828127,0.09728021919727325,-1.3510037660598755,0.14546217024326324
1781678033924181800,24.745181640625,0.37781986594200134,-1.0431280136108398,0.27626359462738037
1781678033972704000,24.7937041015625,-0.17562362551689148,0.8336777091026306,0.5965094566345215
1781678034069748500,24.89074853515625,-0.06200277432799339,-0.14026983082294464,-0.6052142977714539
1781678034118270700,24.939270751953124,-0.6022363305091858,-0.8738420605659485,-1.120631456375122
1781678034166793000,24.98779296875,0.23709189891815186,-0.6876046657562256,-0.9789108037948608
1781678034215315200,25.036315185546876,0.7235693335533142,-0.04634936526417732,-0.7092903852462769
1781678034263837400,25.08483740234375,0.5096139311790466,0.5667297840118408,0.5600866675376892
1781678034312360000,25.13335986328125,0.33345580101013184,1.930790901184082,0.0907897800207138
1781678034360882000,25.1818818359375,0.4969384968280792,0.2991710305213928,-0.3366628587245941
1781678034409404200,25.230404052734375,0.21067199110984802,-0.1343138962984085,-1.0627520084381104
1781678034457926400,25.278926513671873,-0.35323256254196167,0.6980656981468201,-0.8126792311668396
1781678034506448600,25.32744873046875,0.0027488914784044027,-0.11194097250699997,-0.45394888520240784
1781678034554971000,25.375970947265625,0.33712100982666016,-0.24006985127925873,-0.006337722297757864
1781678034603493000,25.4244931640625,0.11209368705749512,0.4427242577075958,1.2425752878189087
1781678034652015400,25.473015380859376,-0.10613775253295898,-1.1422407627105713,2.414443016052246
1781678034700537600,25.52153759765625,-0.06223184987902641,-0.2644280791282654,2.200716733932495
1781678034749059800,25.570059814453124,-0.03107774630188942,-0.7771727442741394,0.10361793637275696
1781678034797582000,25.61858203125,-1.0636682510375977,-0.8697950839996338,0.12064579129219055
1781678034846104300,25.667104248046876,-0.8373429179191589,-0.9288198947906494,-0.05673406645655632
1781678034894626600,25.71562646484375,-0.0005345066892914474,-0.9225585460662842,0.20318889617919922
1781678034943148800,25.764148681640624,0.44700029492378235,-1.0992511510849,0.2689332067966461
1781678034991670800,25.8126708984375,0.00603228947147727,0.26595523953437805,0.31467172503471375
1781678035040193300,25.861193359375,0.2687041461467743,-0.35361436009407043,-0.41095927357673645
1781678035088715500,25.909715576171877,0.09781472384929657,-0.22999058663845062,-0.6848557591438293
1781678035137237800,25.95823779296875,-0.44463321566581726,-1.0421353578567505,-1.0342704057693481
1781678035185760000,26.006760009765625,0.11659881472587585,-0.408592164516449,-0.8249728679656982
1781678035234282200,26.0552822265625,0.4159225523471832,-0.34063348174095154,-0.5201513767242432
1781678035282804200,26.10380419921875,0.502894401550293,-0.2292270064353943,0.6089558005332947
1781678035331326700,26.15232666015625,0.3287216126918793,1.9228496551513672,-0.3656025826931
1781678035379848700,26.2008486328125,0.5002219080924988,0.9886846542358398,-0.5174788236618042
1781678035428371000,26.249370849609374,0.28985533118247986,0.19333870708942413,-0.7638100385665894
1781678035476893200,26.29789306640625,-0.2112828493118286,0.11209368705749512,-1.159345030784607
1781678035525415400,26.34641552734375,-0.06467530876398087,0.592233419418335,-0.5306887626647949
1781678035573937700,26.394937744140623,0.44295331835746765,-0.07849612087011337,-0.29222244024276733
1781678035670982000,26.49198193359375,-0.0461202897131443,-0.9266055226325989,2.7604215145111084
1781678035719504400,26.54050439453125,-0.010079269297420979,-0.17195843160152435,1.8113667964935303
1781678035768026600,26.589026611328126,0.14202606678009033,-0.9388228058815002,0.5026653409004211
1781678035816548600,26.637548583984376,-0.7121919989585876,-0.7647263407707214,-0.05345066636800766
1781678035865070800,26.68607080078125,-1.0731366872787476,-0.5925388336181641,0.016569707542657852
1781678035913593000,26.734593017578124,-0.22067490220069885,-0.8304706811904907,0.07490729540586472
1781678035962115300,26.783115234375,0.6166679859161377,-1.332830548286438,0.041615162044763565
1781678036010637600,26.831637451171876,0.6976839303970337,-0.8506292104721069,0.22243113815784454
1781678036059159800,26.880159912109374,0.028787001967430115,0.8042035102844238,0.2860374450683594
1781678036107681800,26.928681884765624,0.18455752730369568,0.33421939611434937,-0.27114760875701904
1781678036156204000,26.9772041015625,-0.7933606505393982,-0.4949531853199005,-1.4455351829528809
1781678036204726000,27.02572607421875,-0.11285726726055145,-0.028099779039621353,-0.7099012136459351
1781678036253248300,27.074248291015625,0.17821979522705078,0.17638720571994781,-0.3569740951061249
1781678036301770500,27.1227705078125,0.39454227685928345,0.3618610203266144,-0.320933073759079
1781678036350292700,27.171292724609376,0.25098907947540283,2.151465654373169,-0.33765551447868347
1781678036398815000,27.21981494140625,0.589560866355896,1.7253111600875854,-0.7210494875907898
1781678036447337200,27.268337158203124,0.6427060961723328,1.299156665802002,-0.9233221411705017
1781678036495859500,27.316859375,0.032070402055978775,1.1073451042175293,-1.0332777500152588
1781678036544381400,27.36538134765625,-0.2715294063091278,1.3392447233200073,-0.49548768997192383
1781678036592903700,27.413903564453125,0.6021599769592285,0.2623664140701294,0.2813032269477844
1781678036641426000,27.462426025390624,0.27114760875701904,0.8147408962249756,1.4979931116104126
1781678036689948200,27.5109482421875,0.1262962967157364,-0.6313287615776062,3.0073635578155518
1781678036738470100,27.55947021484375,-0.1562286615371704,-0.0691804364323616,2.057316303253174
1781678036786992400,27.607992431640625,-0.0021380267571657896,0.020769402384757996,-0.006566796451807022
1781678036835514600,27.6565146484375,-0.9195042252540588,-0.9819651246070862,-0.22472187876701355
1781678036884036900,27.705036865234376,-0.9537126421928406,-1.2156208753585815,-0.06727148592472076
1781678036932558800,27.753558837890626,0.1487455666065216,-1.3319905996322632,0.11369720846414566
1781678036981081300,27.802081298828124,0.6121628880500793,-1.1517854928970337,0.25931209325790405
1781678037029603300,27.850603271484374,-0.010537417605519295,0.558788537979126,0.43776097893714905
1781678037078125600,27.89912548828125,0.2860374450683594,-0.4584540128707886,-0.5305360555648804
1781678037175169800,27.996169677734375,-0.6938660144805908,-0.7667880058288574,-1.335808515548706
1781678037223692000,28.044692138671873,-0.11514800786972046,0.03955349326133728,-0.9994511604309082
1781678037272214300,28.09321435546875,0.414242684841156,0.2790125012397766,-0.5823832154273987
1781678037320736300,28.141736328125,0.3268890082836151,0.8384119272232056,0.007024944759905338
1781678037369258500,28.190258544921875,0.300392746925354,2.154825448989868,-0.5642863512039185
1781678037417780700,28.23878076171875,0.6653844714164734,1.8468732833862305,-0.8274163603782654
1781678037466303000,28.287302978515626,0.7095194458961487,0.7713695168495178,-0.6349175572395325
1781678037514825200,28.3358251953125,0.015577051788568497,0.755105197429657,-0.6685914993286133
1781678037563347200,28.38434716796875,-0.04650207981467247,0.6090322136878967,-0.5520690679550171
1781678037611869200,28.432869140625,0.48273590207099915,-0.03413207083940506,0.04841103404760361
1781678037660391400,28.481391357421874,-0.030695954337716103,1.1814888715744019,1.1029927730560303
1781678037708913700,28.52991357421875,0.013897174037992954,-0.5531380772590637,2.8932082653045654
1781678037757436000,28.578435791015625,-0.0334448479115963,-0.6094139814376831,2.4820199012756348
1781678037805958100,28.626958251953123,0.0243582334369421,-0.6056724190711975,0.1902843713760376
1781678037854480100,28.675480224609377,-0.8889609575271606,-0.8717040419578552,-0.6214785575866699
1781678037903002000,28.724002197265627,-1.1461350917816162,-1.0571014881134033,-0.11843141168355942
1781678037951524400,28.7725244140625,-0.03428478538990021,-1.4827215671539307,0.20906847715377808
1781678038000046600,28.821046630859374,0.41706791520118713,-1.226769208908081,-0.10797034949064255
1781678038048568600,28.869568603515624,0.07834340631961823,1.1410953998565674,0.30291256308555603
1781678038097090800,28.9180908203125,0.17867794632911682,-0.26794055104255676,-0.5441278219223022
1781678038145612800,28.96661279296875,0.25793763995170593,0.13927717506885529,-0.5396990180015564
1781678038194135000,29.015135009765626,-0.6004037261009216,-1.3377175331115723,-1.3377175331115723
1781678038242657300,29.0636572265625,-0.09781472384929657,-0.5059487819671631,-0.8249728679656982
1781678038291179500,29.112179443359373,0.43401941657066345,-0.835586667060852,-0.3310123383998871
1781678038339701500,29.160701416015623,0.2687041461467743,0.9133192300796509,0.18234314024448395
1781678038388223700,29.2092236328125,0.34376415610313416,2.1135921478271484,-0.37575820088386536
1781678038485268000,29.30626806640625,0.35621052980422974,0.6241511106491089,-0.8017600178718567
1781678038533790000,29.3547900390625,-0.312228262424469,0.782365083694458,-1.1824815273284912
1781678038582312200,29.403312255859376,0.0798705667257309,0.3753000497817993,-0.4224129915237427
1781678038630834400,29.45183447265625,0.6027708053588867,-0.17226386070251465,0.044669486582279205
1781678038679356400,29.5003564453125,0.18127411603927612,0.5467239618301392,1.9744676351547241
1781678038727878700,29.548878662109374,0.09216422587633133,-1.091386318206787,3.1011314392089844
1781678038776400600,29.597400634765624,-0.19234605133533478,-0.03558287397027016,1.320460557937622
1781678038824923000,29.6459228515625,0.008857538923621178,-0.7890082001686096,0.19555309414863586
1781678038873444900,29.69444482421875,-1.1194096803665161,-1.2941933870315552,-0.314289927482605
1781678038921967000,29.742967041015625,-0.9379828572273254,-1.479209065437317,0.0204639695584774
1781678038970489000,29.791489013671875,0.2041051983833313,-1.2311979532241821,0.32650721073150635
1781678039019011300,29.84001123046875,0.6840922236442566,-1.2833505868911743,0.2193768173456192
1781678039067533300,29.888533203125,0.026419902220368385,0.6466003656387329,0.2666424810886383
1781678039116055600,29.9370556640625,0.5279398560523987,-0.38965538144111633,-0.6025417447090149
1781678039164577800,29.985577880859374,0.4309650957584381,0.25320345163345337,-0.3545306324958801
1781678039213099800,30.034099853515624,-0.8645263910293579,-0.8988875150680542,-1.5276964902877808
1781678039261622000,30.0826220703125,0.0204639695584774,-0.16707152128219604,-0.8679624795913696
1781678039310144000,30.13114404296875,0.6160571575164795,0.6637045741081238,-0.34460410475730896
1781678039358666200,30.179666259765625,0.5661189556121826,0.5113701820373535,0.224569171667099
1781678039407188200,30.228188232421875,0.18860450387001038,2.2821907997131348,-0.4494437575340271
1781678039455710500,30.27671044921875,0.5392408967018127,1.3513092994689941,-0.7638863921165466
1781678039504232700,30.325232666015626,0.4209621846675873,0.31322091817855835,-0.8314633369445801
1781678039552754700,30.373754638671876,-0.4364628791809082,1.4095704555511475,-0.6895899772644043
1781678039601277000,30.42227685546875,0.24258968234062195,-0.6047561168670654,-0.3725511431694031
1781678039698321200,30.519321044921874,-0.1729510873556137,0.1839466542005539,2.048764228820801
1781678039746843100,30.567843017578124,0.0550541877746582,-1.2453242540359497,2.522184371948242
1781678039795365000,30.616365234375,-0.14836378395557404,-0.2084576040506363,2.178725481033325
1781678039843887000,30.66488720703125,-0.13958260416984558,-0.6776017546653748,-0.33742642402648926
1781678039892409300,30.713409423828125,-1.1223113536834717,-0.6395754218101501,-0.2540434002876282
1781678039940931300,30.761931396484375,-0.7064651250839233,-0.9482148289680481,0.029016077518463135
1781678039989453600,30.81045361328125,0.21876594424247742,-1.1249074935913086,0.03657552972435951
1781678040037975600,30.8589755859375,0.3775908052921295,-0.8677334189414978,-0.06345357745885849
1781678040086497800,30.907497802734376,-0.30222535133361816,1.3300817012786865,0.44440412521362305
1781678040135019800,30.956019775390626,0.5956695079803467,-0.3136790692806244,-1.0616066455841064
1781678040183542000,31.0045419921875,0.1750127524137497,0.17417281866073608,-0.7463240623474121
1781678040232064000,31.05306396484375,-0.6504182815551758,-0.5146535634994507,-1.3154972791671753
1781678040280586000,31.1015859375,0.24480405449867249,-0.12087486684322357,-0.5498546361923218
1781678040329108200,31.150108154296873,0.6714167594909668,0.42088583111763,-0.21471896767616272
1781678040377630200,31.198630126953127,0.3993528485298157,0.6188823580741882,0.2447277009487152
1781678040426152400,31.24715234375,0.11049016565084457,2.1466550827026367,-0.7730493545532227
1781678040474674400,31.29567431640625,0.3775908052921295,1.1382701396942139,-1.018235206604004
1781678040523196700,31.34419677734375,0.4857902228832245,0.11873684078454971,-0.9063706398010254
1781678040571718700,31.39271875,-0.3312414288520813,1.0980294942855835,-0.797713041305542
1781678040620241000,31.441240966796876,0.20570871233940125,0.24320054054260254,-0.4004218578338623
1781678040668763000,31.489762939453126,0.5661953091621399,0.312228262424469,0.8541416525840759
1781678040717284900,31.538284912109376,0.14851650595664978,-0.3848448097705841,3.0394339561462402
1781678040765806800,31.586806884765625,-0.14263692498207092,-0.56382817029953,2.366795539855957
1781678040814329000,31.6353291015625,-0.04046979174017906,-0.09010255336761475,1.124678373336792
1781678040862851000,31.68385107421875,-0.3136790692806244,-0.6921098232269287,-0.3673588037490845
1781678040911373000,31.732373046875,-1.1630102396011353,-1.4273619651794434,-0.14973822236061096
1781678040959895300,31.780895263671876,-0.46624255180358887,-1.470962405204773,0.02328922040760517
1781678041008417300,31.829417236328126,0.37697991728782654,-1.1610249280929565,0.3831649422645569
1781678041056939300,31.877939208984376,0.44585493206977844,-0.7324268817901611,0.1911243200302124
1781678041105461500,31.92646142578125,-0.33139413595199585,0.5129737257957458,0.12011128664016724
1781678041153983500,31.9749833984375,0.672104001045227,0.210442915558815,-0.7082213759422302
1781678041251027500,32.07202734375,-0.22525638341903687,-0.07124210149049759,-0.9098830819129944
1781678041299549700,32.1205498046875,0.5664243698120117,-0.19708025455474854,-0.7842740416526794
1781678041348072000,32.169072021484375,0.5852848291397095,1.0238093137741089,-0.2629009187221527
1781678041396594000,32.21759399414063,0.2185368686914444,2.2168283462524414,-0.3026835024356842
1781678041445116000,32.266115966796875,0.5651262998580933,1.7764711380004883,-0.6358338594436646
1781678041493638000,32.31463793945313,0.5684096813201904,1.017395257949829,-0.6107884049415588
1781678041542160000,32.363159912109374,-0.04451677203178406,0.877278208732605,-0.7909935116767883
1781678041590682000,32.41168212890625,-0.14973822236061096,0.7127264738082886,-0.5118283033370972
1781678041639204000,32.4602041015625,0.5694023370742798,-0.5125155448913574,-0.028176138177514076
1781678041687726000,32.50872607421875,0.11293362826108932,0.7229584455490112,0.6948586702346802
1781678041736248300,32.557248291015625,-0.23709189891815186,0.19120067358016968,2.2471425533294678
1781678041784770300,32.60577026367187,0.03588830679655075,-0.8347467184066772,2.4430010318756104
1781678041833292300,32.654292236328125,-0.0896444097161293,-0.439364492893219,1.0314451456069946
1781678041881814300,32.70281420898438,-0.6333140730857849,-0.5019017457962036,-0.4883863925933838
1781678041930336500,32.75133642578125,-1.1228457689285278,-1.1390337944030762,-0.3822486400604248
1781678041978858500,32.7998583984375,-0.2689332067966461,-0.9072869420051575,0.04528035223484039
1781678042027380500,32.84838037109375,0.4920515716075897,-1.0793980360031128,0.3699549734592438
1781678042075902700,32.89690283203125,0.1737910360097885,0.06597339361906052,0.19494222104549408
1781678042124424700,32.9454248046875,0.005421424750238657,-0.019929463043808937,-0.27168211340904236
1781678042172946400,32.99394653320312,0.8923207521438599,0.36193737387657166,-0.7899245023727417
1781678042221468700,33.04246875,-0.6133846044540405,-0.9266055226325989,-1.1332305669784546
1781678042269990700,33.09099072265625,-0.2782489061355591,-0.17936517298221588,-0.6007091403007507
1781678042318513000,33.13951293945313,0.36476263403892517,-0.5708531141281128,-0.5174788236618042
1781678042367035000,33.18803491210937,0.5724566578865051,0.5563451051712036,-0.034666575491428375
1781678042415556900,33.236556884765626,0.3053560256958008,2.1720824241638184,-0.19593487679958344
1781678042464078800,33.28507885742187,0.4137081801891327,1.687437653541565,-0.8940005898475647
1781678042512601000,33.33360107421875,0.541378915309906,0.5354229807853699,-0.753043532371521
1781678042561123000,33.382123046875,-0.3116937577724457,0.5836812853813171,-0.919275164604187
1781678042609645000,33.43064501953125,-0.2955058515071869,0.6035344004631042,-0.5420661568641663
1781678042658167000,33.4791669921875,0.6284271478652954,-0.39332056045532227,0.15554144978523254
1781678042706689000,33.52768896484375,0.41118836402893066,0.09330959618091583,1.9665263891220093
1781678042755211300,33.57621118164062,-0.1265253722667694,-0.8934661149978638,3.044015645980835
1781678042852255200,33.67325512695312,-0.07238747924566269,-0.23922991752624512,0.304974228143692
1781678042900777200,33.721777099609376,-0.8998801708221436,-0.8881973624229431,-0.7044034600257874
1781678042949299200,33.77029931640625,-0.880179762840271,-1.48371422290802,-0.14622575044631958
1781678042997821200,33.8188212890625,-0.028405211865901947,-1.1451424360275269,0.13080142438411713
1781678043046343200,33.86734326171875,0.6687442064285278,-1.2534945011138916,0.266107976436615
1781678043094865400,33.91586547851563,-0.014508038759231567,0.5960513353347778,0.2551124095916748
1781678043143387400,33.96438745117187,0.14286600053310394,-0.28092142939567566,-0.37720900774002075
1781678043191909400,34.01290942382813,0.6065123677253723,0.6164389252662659,-0.8923207521438599
1781678043240431400,34.06143139648437,-0.7612902522087097,-0.8875101804733276,-1.3400845527648926
1781678043288953300,34.10995336914063,0.029856016859412193,-0.11133010685443878,-0.8384119272232056
1781678043337475300,34.15847534179687,0.4828886091709137,0.035735588520765305,-0.5928442478179932
1781678043385997600,34.20699755859375,0.4405098557472229,0.5300779342651367,0.008017600513994694
1781678043434519300,34.25551928710937,0.22609633207321167,2.092211961746216,-0.31635159254074097
1781678043483041300,34.304041259765626,0.3395644724369049,1.3322961330413818,-0.6618719696998596
1781678043531563300,34.35256323242187,0.43745553493499756,0.20731224119663239,-0.8035926222801208
1781678043580085500,34.40108544921875,-0.2424369603395462,0.8313869833946228,-0.8442915081977844
1781678043628607500,34.449607421875,0.023365577682852745,0.07192932814359665,-0.49777844548225403
1781678043677129500,34.49812939453125,0.5115992426872253,-0.25526511669158936,0.03145953640341759
1781678043725651500,34.5466513671875,-0.03145953640341759,0.46028661727905273,1.8354195356369019
1781678043774173400,34.59517333984375,-0.07887791097164154,-1.3197733163833618,2.4336090087890625
1781678043822695400,34.6436953125,-0.2908479869365692,-0.210442915558815,1.8461860418319702
1781678043871217400,34.692217529296876,-0.24999640882015228,-0.48617202043533325,0.23083053529262543
1781678043919739400,34.74073950195312,-0.9563088417053223,-1.092226266860962,-0.014966187067329884
1781678043968261600,34.78926171875,-0.5832231640815735,-1.518304467201233,0.1196531355381012
1781678044016783400,34.83778344726562,0.2089921087026596,-1.2534945011138916,0.2606101930141449
1781678044065305300,34.886305419921875,0.4203513264656067,-0.9259946346282959,0.20715951919555664
1781678044113827300,34.93482739257813,-0.05322159454226494,0.25091269612312317,0.2949713170528412
1781678044162349600,34.983349609375,0.383470356464386,-0.8739184141159058,-0.4693732261657715
1781678044210871300,35.03187133789063,0.4689914286136627,0.12713623046875,-0.17806708812713623
1781678044259393500,35.0803935546875,-0.8917098641395569,-0.9659299254417419,-1.500589370727539
1781678044307915500,35.12891552734375,0.17867794632911682,-0.5283980369567871,-0.7477748394012451
1781678044356437500,35.1774375,0.7361684441566467,0.6605738997459412,-0.36430448293685913
1781678044453481500,35.2744814453125,0.2742019295692444,2.3319764137268066,-0.7162389755249023
1781678044502003500,35.32300341796875,0.5830704569816589,1.6436843872070312,-0.7064651250839233
1781678044550525400,35.371525390625,0.5533671379089355,0.5687914490699768,-0.8804852366447449
1781678044599047400,35.42004736328125,-0.1464548259973526,1.4716496467590332,-0.6494256258010864
1781678044647569400,35.4685693359375,0.25442516803741455,-0.037033677101135254,-0.331165075302124
1781678044744613000,35.56561303710937,-0.18310672044754028,0.6143772602081299,1.8998658657073975
1781678044793135400,35.61413525390625,0.010079269297420979,-0.9307288527488708,2.430325508117676
1781678044841657300,35.6626572265625,-0.264046311378479,-0.24312418699264526,1.8978805541992188
1781678044890179300,35.71117944335938,-0.4366919696331024,-0.29275694489479065,-0.42569640278816223
1781678044938701300,35.75970141601562,-1.1216241121292114,-1.0903936624526978,-0.39652758836746216
1781678044987223300,35.80822338867188,-0.7133373618125916,-0.8771254420280457,0.16623157262802124
1781678045035745300,35.85674536132812,0.3251327872276306,-1.0441206693649292,0.3690386712551117
1781678045084267300,35.905267333984376,0.5142717957496643,-1.2244784832000732,0.09644027799367905
1781678045132789200,35.95378930664062,-0.28267768025398254,0.8894191384315491,0.036193739622831345
1781678045181311200,36.002311279296876,0.4782307744026184,-0.14141519367694855,-0.7691551446914673
1781678045229833200,36.05083325195312,-0.8034399151802063,-0.4685332775115967,-0.9860121011734009
1781678045278355000,36.09935498046875,-0.21151192486286163,-0.5963567495346069,-0.8041270971298218
1781678045326877200,36.14787719726562,0.4760163724422455,-0.35674503445625305,-0.602007269859314
1781678045375399000,36.19639892578125,0.5910117030143738,0.05215258151292801,-0.20975568890571594
1781678045423921000,36.2449208984375,0.29184064269065857,1.0979530811309814,0.2349538654088974
1781678045472443100,36.293443115234375,0.19990549981594086,1.6563597917556763,-0.6527090072631836
1781678045520964900,36.34196484375,0.395764023065567,0.8041270971298218,-1.0027345418930054
1781678045618008800,36.4390087890625,-0.2887863218784332,0.9080504775047302,-0.7124974131584167
1781678045666530800,36.48753076171875,0.3753764033317566,-0.10216713696718216,-0.0011453714687377214
1781678045715052500,36.536052490234376,0.3733910918235779,0.2482401728630066,1.0278563499450684
1781678045763574800,36.58457470703125,-0.013133592903614044,-0.4584540128707886,2.626871347427368
1781678045812096800,36.6330966796875,-0.0539088174700737,-0.4359283745288849,2.6541311740875244
1781678045860618800,36.68161865234375,-0.025732679292559624,-0.5120574235916138,0.8315396904945374
1781678045909140700,36.730140625,-0.6303361058235168,-1.2428807020187378,-0.750981867313385
1781678045957662500,36.77866235351563,-0.9966259002685547,-1.2815942764282227,-0.03451386094093323
1781678046054706400,36.87570654296875,0.48823368549346924,-1.1157444715499878,0.4073704481124878
1781678046103228400,36.924228515625,0.5493201613426208,-0.3124573230743408,0.24831652641296387
1781678046151750400,36.97275048828125,-0.08666644245386124,0.3802633285522461,-0.116751529276371
1781678046200272400,37.0212724609375,0.9372192621231079,-0.14882193505764008,-0.9025527238845825
1781678046248794000,37.06979418945313,-0.7197514176368713,-0.4499782621860504,-0.8948405385017395
1781678046297316400,37.11831640625,-0.42974337935447693,-0.6931024789810181,-1.0020473003387451
1781678046345838000,37.16683813476563,0.5196931958198547,-0.212733656167984,-0.9483675956726074
1781678046394360000,37.21536010742187,0.6189587116241455,0.8308524489402771,0.07483093440532684
1781678046442882000,37.263882080078126,0.35705047845840454,2.1696388721466064,-0.044211339205503464
1781678046491404000,37.31240405273437,0.480903297662735,1.4950915575027466,-0.7842740416526794
1781678046539926000,37.360926025390626,0.5344303250312805,0.8876628875732422,-0.7188351154327393
1781678046588447700,37.40944775390625,-0.10758855938911438,0.8626174330711365,-0.8231402635574341
1781678046636969700,37.4579697265625,-0.17172935605049133,0.6092612743377686,-0.4263072609901428
1781678046685491700,37.50649169921875,0.5040398240089417,0.02084576152265072,-0.01740964688360691
1781678046734013700,37.555013671875,0.10583232343196869,0.772591233253479,1.263039231300354
1781678046782535700,37.60353564453125,-0.0565049909055233,-0.7523563504219055,2.549673318862915
1781678046831057700,37.6520576171875,-0.15691588819026947,-0.2620609998703003,2.068082809448242
1781678046879579600,37.70057958984375,0.018173227086663246,-0.3727802336215973,0.3895026445388794
1781678046928101400,37.74910131835937,-0.787939190864563,-0.8824705481529236,-0.5524508357048035
1781678046976623400,37.797623291015626,-0.8803325295448303,-1.3558143377304077,-0.04909825697541237
1781678047025145300,37.84614526367187,0.0902552679181099,-1.4715732336044312,0.2159406989812851
1781678047073667300,37.894667236328125,0.48067423701286316,-1.0664935111999512,0.42676541209220886
1781678047122189000,37.94318896484375,0.15790854394435883,0.08063415437936783,0.47517645359039307
1781678047170711000,37.9917109375,0.2707658112049103,-0.03130681812763214,-0.4761691093444824
1781678047219233000,38.04023291015625,-0.0951421856880188,-0.011911863461136818,-0.6443859934806824
1781678047267755000,38.088755126953124,-0.7201332449913025,-0.6331613659858704,-1.377805471420288
1781678047316277000,38.13727709960938,0.18677189946174622,-0.5099957585334778,-0.6259836554527283
1781678047364799000,38.185799072265624,0.669965922832489,0.12095122784376144,-0.6095666885375977
1781678047413320700,38.23432080078125,0.46173742413520813,1.1200206279754639,0.11843141168355942
1781678047461842700,38.2828427734375,0.3690386712551117,2.2946372032165527,-0.485484778881073
1781678047510364700,38.33136474609375,0.49976375699043274,1.1828632354736328,-0.7099012136459351
1781678047607408600,38.42840869140625,-0.2617555558681488,1.5610649585723877,-0.4837285578250885
1781678047655930400,38.47693041992188,0.44845110177993774,-0.38415759801864624,-0.2032652497291565
1781678047704452400,38.525452392578124,0.3825540542602539,0.3283398151397705,0.21540619432926178
1781678047752974000,38.57397412109375,0.034666575491428375,0.5321395993232727,2.2766165733337402
1781678047801496000,38.62249609375,0.10109812021255493,-1.1578941345214844,2.8971025943756104
1781678047850017800,38.671017822265625,-0.2591593861579895,0.11919499188661575,0.9964731931686401
1781678047898540000,38.7195400390625,-0.5044979453086853,-0.7116574645042419,-0.5640572905540466
1781678047947061800,38.768061767578125,-1.088408350944519,-1.1225403547286987,0.030695954337716103
1781678047995583700,38.81658374023438,-0.4759400188922882,-1.0887137651443481,-0.05833758786320686
1781678048044105700,38.865105712890625,0.43317949771881104,-1.0470222234725952,0.3032943606376648
1781678048092627500,38.91362744140625,0.5207622051239014,-0.5891790986061096,0.11537708342075348
1781678048141149700,38.962149658203124,-0.17333288490772247,1.0270928144454956,0.04673115536570549
1781678048189671400,39.01067138671875,0.607886791229248,0.24984370172023773,-0.5168679356575012
1781678048238193400,39.059193359375,-0.7987056970596313,-0.6143009066581726,-0.9214131832122803
1781678048286715100,39.107715087890625,-0.26015204191207886,-0.027870705351233482,-0.9968549609184265
1781678048335237000,39.15623706054687,0.4066832363605499,-0.44669488072395325,-0.3836994469165802
1781678048383758800,39.2047587890625,0.393244206905365,0.3116174042224884,-0.15668681263923645
1781678048432280800,39.25328076171875,0.18600831925868988,1.463861107826233,-0.34781113266944885
1781678048529324800,39.35032470703125,0.45646870136260986,0.881706953048706,-0.9112575054168701
1781678048577846800,39.3988466796875,0.13209950923919678,0.11591159552335739,-1.0249547958374023
1781678048626368500,39.447368408203126,-0.3156643807888031,0.9941824078559875,-0.510606586933136
1781678048674890500,39.49589038085937,0.5138136148452759,-0.4733438491821289,-0.15752676129341125
1781678048723412200,39.544412109375,0.21716243028640747,0.3225366175174713,0.9037744402885437
1781678048771934200,39.59293432617188,0.21090106666088104,-0.28092142939567566,2.838841438293457
1781678048820456000,39.6414560546875,0.015958841890096664,-0.5077813267707825,2.6366450786590576
1781678048868978000,39.68997802734375,-0.04535670951008797,-0.04780016839504242,0.18112140893936157
1781678048917500000,39.7385,-0.7263945937156677,-1.1087195873260498,-0.023136503994464874
1781678048966022000,39.78702197265625,-1.0248783826828003,-1.113759160041809,-0.09338594973087311
1781678049014544000,39.8355439453125,-0.19188790023326874,-1.3182462453842163,0.08872810751199722
1781678049063065600,39.884065673828125,0.5884155035018921,-1.0977239608764648,0.23922991752624512
1781678049111587600,39.93258764648437,0.6056724190711975,-0.33307403326034546,0.018860450014472008
1781678049160109300,39.981109375,-0.001679878099821508,0.21670427918434143,-0.04627300798892975
1781678049257153000,40.07815307617187,-0.9938006401062012,-0.6468294262886047,-1.5014293193817139
1781678049305675000,40.126675048828126,-0.23938263952732086,-0.20257803797721863,-0.9627992510795593
1781678049354196700,40.17519677734375,0.5535198450088501,-0.12316560745239258,-0.6969203352928162
1781678049402718700,40.22371875,0.6005564332008362,0.8710931539535522,0.022525638341903687
1781678049451240400,40.27224047851563,0.3505600392818451,1.9859213829040527,-0.4160752594470978
1781678049499762700,40.3207626953125,0.6849321126937866,1.4013237953186035,-0.6697368621826172
1781678049548284400,40.36928442382813,0.27863070368766785,0.5958222150802612,-0.8496365547180176
1781678049596806400,40.41780639648437,-0.2515999376773834,1.559385061264038,-0.700738251209259
1781678049645328400,40.466328369140626,0.187382772564888,0.10270164161920547,-0.3462076187133789
1781678049693850000,40.51485009765625,0.43279770016670227,0.06154462695121765,0.4337903559207916
1781678049742372000,40.5633720703125,0.05871937796473503,0.2130390852689743,2.3179264068603516
1781678049790893800,40.61189379882813,-0.0807105079293251,-1.0174716711044312,2.5455498695373535
1781678049839415800,40.660415771484374,-0.11346813291311264,-0.11392628401517868,1.5973349809646606
1781678049887937500,40.7089375,-0.31261005997657776,-0.6676751971244812,-0.4091266989707947
1781678049936459500,40.75745947265625,-0.954094409942627,-1.4081960916519165,0.11339177191257477
1781678049984981200,40.805981201171875,-0.5857429504394531,-1.6240603923797607,0.007864884100854397
1781678050033503200,40.85450317382813,0.26335906982421875,-1.417969822883606,0.1960112303495407
1781678050082025200,40.903025146484374,0.5090031027793884,-1.0563379526138306,0.1885281354188919
1781678050130547000,40.951546875,-0.0948367565870285,0.2513708472251892,0.6411789655685425
1781678050179068700,41.00006860351562,0.49365508556365967,-0.19333870708942413,-0.9241620302200317
1781678050227590700,41.048590576171875,-0.10583232343196869,-0.44440412521362305,-0.39736753702163696
1781678050276112600,41.09711254882812,-0.835586667060852,-0.5094612240791321,-1.517006278038025
1781678050324634400,41.14563427734375,0.35964664816856384,-0.06963858753442764,-0.5909352898597717
1781678050373156400,41.19415625,0.8342885971069336,0.998153030872345,-0.10041090101003647
1781678050421678000,41.24267797851562,0.3733910918235779,2.008981466293335,-0.23564109206199646
1781678050470200000,41.291199951171876,0.5278635025024414,1.9767584800720215,-0.9758564829826355
1781678050518721800,41.3397216796875,0.5081631541252136,0.8891136646270752,-0.641331672668457
1781678050567243800,41.388243896484376,0.09315688163042068,1.2407426834106445,-0.5958985686302185
1781678050615765500,41.436765625,-0.20922118425369263,0.9364557266235352,-0.4718930423259735
1781678050712809500,41.5338095703125,0.18196134269237518,0.48533207178115845,0.4337903559207916
1781678050809853200,41.630853271484376,0.36743515729904175,-1.4358376264572144,2.8200571537017822
1781678050858375000,41.679375,-0.04230238497257233,-0.40958482027053833,1.0931425094604492
1781678050906897000,41.72789697265625,-0.6091849207878113,-0.8633046746253967,-0.5413025617599487
1781678050955418600,41.77641870117188,-1.0424407720565796,-1.519755244255066,-0.14668390154838562
1781678051003940600,41.824940673828124,-0.4376846253871918,-1.417740821838379,0.22884522378444672
1781678051052462300,41.87346240234375,0.41554075479507446,-1.2986221313476562,0.4586831033229828
1781678051100984300,41.921984375,0.4635699987411499,-1.0469459295272827,-0.10865757614374161
1781678051149506000,41.970506103515625,-0.2130390852689743,0.6011673212051392,0.349185585975647
1781678051198028000,42.01902807617188,0.8214604258537292,0.46715885400772095,-1.0198386907577515
1781678051246549800,42.0675498046875,-0.9058361053466797,-0.5788707137107849,-0.86544269323349
1781678051295071500,42.116071533203126,-0.2658025324344635,-0.02176205813884735,-0.8439096808433533
1781678051343593500,42.16459350585937,0.6170498132705688,-0.5696313977241516,-0.5343539714813232
1781678051392115200,42.213115234375,0.7417425513267517,0.1761581301689148,-0.048792824149131775
1781678051440637200,42.26163720703125,0.229150652885437,1.7719659805297852,-0.2629773020744324
1781678051489159000,42.31015893554687,0.38927358388900757,1.2162318229675293,-0.7670934200286865
1781678051537681000,42.35868090820313,0.4292852282524109,0.5653553605079651,-0.8474985361099243
1781678051586202600,42.40720263671875,-0.0019089524867013097,0.3295615613460541,-0.8522327542304993
1781678051634724600,42.455724609375,-0.03130681812763214,0.9447023868560791,-0.31810784339904785
1781678051683246300,42.50424633789063,0.4841103255748749,-0.6026944518089294,-0.22731806337833405
1781678051731768300,42.552768310546874,0.06872228533029556,0.5323686599731445,0.9550870656967163
1781678051780290000,42.6012900390625,-0.17455461621284485,-0.168904110789299,2.647869825363159
1781678051828811800,42.64981176757812,-0.12690715491771698,-0.3560578227043152,2.2285873889923096
1781678051877333800,42.698333740234375,-0.13248129189014435,-0.38904449343681335,0.44295331835746765
1781678051925855500,42.74685546875,-0.8645263910293579,-0.5845212340354919,-0.2942841053009033
1781678051974377200,42.79537719726562,-0.8854485154151917,-0.9182825088500977,0.07887791097164154
1781678052022899200,42.843899169921876,-0.129426971077919,-0.7340303659439087,0.2758817970752716
1781678052071421200,42.89242114257812,0.5768090486526489,-1.2880083322525024,0.07689260691404343
1781678052119943000,42.94094287109375,0.1521816849708557,0.20288346707820892,0.2799287736415863
1781678052168465000,42.98946484375,0.038789913058280945,-0.3643808364868164,-0.5677987933158875
1781678052216986600,43.03798657226562,0.30428701639175415,0.04978547990322113,-0.4886154532432556
1781678052265508400,43.08650830078125,-0.901789128780365,-0.6582831740379333,-1.2428044080734253
1781678052362552000,43.183552001953124,0.6573668718338013,0.10170898586511612,-0.39996370673179626
1781678052411073800,43.23207373046875,0.5376373529434204,0.5158752799034119,0.1744018942117691
1781678052459595800,43.280595703125,0.2047160565853119,2.154367446899414,-0.7732784748077393
1781678052508117800,43.32911767578125,0.3685041666030884,1.6646828651428223,-0.9082031846046448
1781678052556639200,43.37763916015625,0.35873034596443176,0.5290852785110474,-0.9944115281105042
1781678052605161200,43.4261611328125,-0.21914774179458618,1.2429571151733398,-0.7257837057113647
1781678052653683000,43.47468286132813,0.36399903893470764,0.2531270980834961,-0.38652467727661133
1781678052702205000,43.52320483398437,0.5945241451263428,-0.13736821711063385,0.448527455329895
1781678052750726700,43.5717265625,0.08536835014820099,0.251752644777298,2.4029128551483154
1781678052799248600,43.62024853515625,0.15401428937911987,-0.5521454215049744,2.7223188877105713
1781678052847770400,43.668770263671874,-0.0023671009112149477,-0.30337071418762207,1.6199370622634888
1781678052896292000,43.7172919921875,-0.5166388750076294,-0.28932082653045654,-0.7628937363624573
1781678052944813800,43.76581372070312,-1.1057416200637817,-0.9838740825653076,0.09414953738451004
1781678052993335800,43.814335693359375,-0.7147881388664246,-1.0035744905471802,0.10842850059270859
1781678053041857500,43.862857421875,0.24816381931304932,-1.1390337944030762,0.24709481000900269
1781678053090379300,43.91137915039062,0.6095666885375977,-1.543655276298523,-0.31871870160102844
1781678053138901200,43.9599013671875,-0.3061196208000183,1.0589340925216675,0.6659189462661743
1781678053187423000,44.00842309570312,0.5169443488121033,0.19883649051189423,-0.8797216415405273
1781678053235945000,44.056945068359376,-0.6220130324363708,-0.35239261388778687,-0.7668643593788147
1781678053284466700,44.105466796875,-0.4938841760158539,0.04214967042207718,-0.9980766773223877
1781678053332988400,44.15398852539062,0.3361283540725708,-0.10315979272127151,-0.7355575561523438
1781678053381510100,44.20251025390625,0.7489965558052063,0.30978479981422424,-0.3545306324958801
1781678053430032100,44.2510322265625,0.38927358388900757,1.447367787361145,-0.03168861195445061
1781678053478553900,44.299553955078125,0.41531169414520264,2.007988929748535,-0.7553343176841736
1781678053527075800,44.34807592773438,0.376827210187912,1.2382992506027222,-0.9045380353927612
1781678053575597600,44.39659765625,0.03405570983886719,0.20998476445674896,-1.081536054611206
1781678053624119300,44.445119384765626,-0.28435754776000977,1.4718786478042603,-0.39858928322792053
1781678053672641000,44.49364111328125,0.6811906099319458,-0.619722306728363,-0.16943861544132233
1781678053721163000,44.5421630859375,0.3582721948623657,-0.129197895526886,0.295811265707016
1781678053818206500,44.63920654296875,0.1207985132932663,-1.2446370124816895,3.1379361152648926
1781678053866728400,44.687728515625,-0.28412848711013794,0.00946840364485979,1.1265109777450562
1781678053915250200,44.73625024414063,-0.37720900774002075,-1.0333541631698608,-0.7602212429046631
1781678053963772200,44.784772216796874,-0.9607375860214233,-1.6331470012664795,-0.03367391973733902
1781678054012293600,44.833293701171876,-0.5535961985588074,-0.9256128668785095,-0.0057268571108579636
1781678054060815600,44.88181567382812,0.33712100982666016,-1.0944405794143677,0.28703010082244873
1781678054109337300,44.93033740234375,0.623845636844635,-1.0064760446548462,-0.06933315098285675
1781678054157859300,44.978859375,-0.10758855938911438,0.6701950430870056,0.17768529057502747
1781678054206381000,45.02738110351562,0.8165735006332397,0.07238747924566269,-0.8838449716567993
1781678054254902800,45.07590283203125,-0.44501498341560364,-0.379347026348114,-0.5329795479774475
1781678054303424500,45.12442456054688,-0.5648971796035767,-0.14110976457595825,-1.1391865015029907
1781678054351946200,45.1729462890625,0.4324159026145935,-0.21655155718326569,-0.3983601927757263
1781678054400468200,45.22146826171875,0.8408553600311279,0.5189296007156372,-0.10659590363502502
1781678054448990000,45.26998999023437,0.3324631452560425,1.5137993097305298,-0.1089630052447319
1781678054497511700,45.31851171875,0.3775908052921295,1.616348147392273,-0.9273691177368164
1781678054546033400,45.36703344726563,0.46601346135139465,1.1508692502975464,-0.9143882393836975
1781678054594555400,45.41555541992187,0.17722713947296143,0.337808221578598,-1.0090723037719727
1781678054643077000,45.4640771484375,-0.26076290011405945,1.1448369026184082,-0.47639816999435425
1781678054691598800,45.51259887695313,0.48365217447280884,-0.2837466895580292,-0.1853974610567093
1781678054740120600,45.56112060546875,0.344451367855072,0.08781181275844574,0.7473930716514587
1781678054788642300,45.609642333984375,-0.09392046183347702,-0.03214675933122635,2.608927011489868
1781678054837164000,45.6581640625,0.01435532234609127,-0.8007673621177673,2.441779136657715
1781678054885686000,45.70668603515625,-0.06223184987902641,-0.38033968210220337,0.6766090989112854
1781678054934207700,45.755207763671876,-0.6872992515563965,-0.8806379437446594,-0.45310893654823303
1781678054982729500,45.8037294921875,-1.0083850622177124,-0.9682206511497498,-0.08338304609060287
1781678055031251500,45.85225146484375,-0.3584249019622803,-1.276707410812378,0.15431971848011017
1781678055079773200,45.90077319335938,0.41554075479507446,-1.0412189960479736,0.2343430072069168
1781678055128295000,45.949294921875,0.41958773136138916,-1.106428861618042,-0.00603228947147727
1781678055176816600,45.997816650390625,-0.3134499788284302,0.28328853845596313,0.2738201320171356
1781678055225338400,46.04633837890625,0.5352702736854553,0.5583304166793823,-0.6039925217628479
1781678055273860000,46.09486010742187,-1.2871685028076172,-0.4497492015361786,-1.3156499862670898
1781678055322382000,46.143382080078126,-0.14523309469223022,-0.0449749194085598,-0.703410804271698
1781678055419425500,46.240425537109374,0.5523744821548462,0.7815251350402832,0.13713914155960083
1781678055467947300,46.288947265625,0.14278964698314667,2.1991896629333496,-0.7587704062461853
1781678055516469000,46.33746899414062,0.3491092324256897,1.2449424266815186,-1.134452223777771
1781678055564990700,46.38599072265625,0.37316203117370605,0.9729548692703247,-1.075656533241272
1781678055613512700,46.4345126953125,-0.17913609743118286,0.7657189965248108,-0.9061415195465088
1781678055662034400,46.48303442382812,-0.1104138121008873,0.7336485981941223,-0.45249807834625244
1781678055710556200,46.53155615234375,0.5312996506690979,-0.19150610268115997,0.23472478985786438
1781678055759078000,46.58007788085938,0.3943132162094116,-0.16859868168830872,2.5400521755218506
1781678055807599600,46.628599609375,-0.015347977168858051,-1.0542762279510498,2.8167738914489746
1781678055856121600,46.67712158203125,-0.08277218043804169,-0.5670352578163147,1.0666462182998657
1781678055904643000,46.72564306640625,-0.2903134822845459,-1.0048725605010986,-0.42195484042167664
1781678055953165000,46.7741650390625,-0.8391754627227783,-1.0500001907348633,0.026419902220368385
1781678056001686800,46.822686767578126,-0.5299251675605774,-1.1493420600891113,0.26221370697021484
1781678056050208500,46.87120849609375,0.3181841969490051,-1.2904518842697144,0.33078327775001526
1781678056098730200,46.919730224609374,0.7170025110244751,-1.4619520902633667,0.1432477980852127
1781678056147252000,46.968251953125,-0.14362958073616028,-0.03741546720266342,0.6702713966369629
1781678056195773700,47.01677368164062,0.4733438491821289,0.2747364342212677,-0.7525090575218201
1781678056244295400,47.06529541015625,-0.8113811612129211,-0.3384190797805786,-0.7626646757125854
1781678056292817400,47.1138173828125,-0.3701077103614807,-0.2214384824037552,-1.0774891376495361
1781678056341339000,47.1623388671875,0.6404917240142822,-0.5529853701591492,-0.6353757381439209
1781678056389860600,47.210860595703124,0.6347648501396179,0.3738492429256439,-0.4333322048187256
1781678056438382600,47.25938256835938,0.3499491512775421,2.0423500537872314,-0.3381136655807495
1781678056486904300,47.307904296875,0.4992292523384094,2.2504258155822754,-0.8615484237670898
1781678056535426000,47.356426025390626,0.5702422857284546,1.3948333263397217,-0.8636100888252258
1781678056583947800,47.40494775390625,0.1992182731628418,0.8369610905647278,-0.9592867493629456
1781678056632469500,47.45346948242187,-0.15592323243618011,1.4740166664123535,-0.5561160445213318
1781678056680991200,47.5019912109375,0.5563451051712036,0.395305871963501,0.035964664071798325
1781678056729513000,47.55051293945313,0.5077049732208252,0.6108647584915161,2.0912954807281494
1781678056778035000,47.599034912109374,0.07483093440532684,-0.6411789655685425,3.241401195526123
1781678056826556400,47.647556396484376,-0.06589704006910324,0.1262962967157364,1.391473650932312
1781678056875078400,47.69607836914062,-0.20372340083122253,-0.3539961278438568,0.10461059212684631
1781678056972121900,47.79312182617188,-0.6066650748252869,-1.2176061868667603,0.03886627033352852
1781678057020643300,47.84164331054688,0.32734715938568115,-1.2889246940612793,0.31841325759887695
1781678057069165300,47.890165283203125,0.9406554102897644,-1.6969823837280273,-0.18272492289543152
1781678057117687000,47.93868701171875,0.10537417232990265,-0.06062832847237587,0.5075522661209106
1781678057166208800,47.98720874023437,0.3955349326133728,-0.3200167715549469,0.1536324918270111
1781678057214730500,48.03573046875,-0.8061888217926025,-0.183030366897583,-0.3989710509777069
1781678057263252200,48.08425219726563,-0.47143489122390747,-0.3556760251522064,-0.8888846039772034
1781678057311774200,48.13277416992187,0.19845469295978546,0.35964664816856384,-0.8660535216331482
1781678057360295700,48.181295654296875,0.4344012141227722,1.1322379112243652,-0.760755717754364
1781678057408817400,48.2298173828125,0.3047451674938202,2.4979023933410645,-0.8475748896598816
1781678057457339100,48.27833911132812,0.6694314479827881,3.035616159439087,-1.0975712537765503
1781678057505860900,48.32686083984375,1.0480912923812866,2.1189372539520264,-0.5793288946151733
1781678057554382600,48.37538256835938,0.40637779235839844,0.9808961153030396,-0.7964149713516235
1781678057602904300,48.423904296875,0.016035201027989388,2.2116358280181885,-0.8007673621177673
1781678057651426000,48.472426025390625,0.8634573817253113,-0.09285144507884979,-0.1242346242070198
1781678057699947800,48.52094775390625,0.35277441143989563,1.0358740091323853,0.9418771266937256
1781678057748469500,48.56946948242187,0.23243404924869537,0.5115228891372681,3.4997971057891846
1781678057796991200,48.6179912109375,-0.06895136088132858,0.8102357983589172,2.037539482116699
1781678057845513200,48.66651318359375,-0.30230170488357544,1.2280672788619995,-0.268627792596817
1781678057894035000,48.715034912109374,-0.8339831233024597,-0.22968515753746033,0.25243985652923584
1781678057942556700,48.763556640625,-0.9295834898948669,-0.22983787953853607,0.12392919510602951
1781678057991078400,48.81207836914062,-0.0011453714687377214,-0.4082103967666626,0.3831649422645569
1781678058039600000,48.86060009765625,0.5513054728507996,-1.2436443567276,0.49189886450767517
1781678058088121900,48.90912182617188,0.22120940685272217,-0.4739547073841095,0.1482110619544983
1781678058136643300,48.95764331054688,-0.6645445227622986,-0.04802924394607544,0.21700970828533173
1781678058185165000,49.0061650390625,-0.5287034511566162,0.2838993966579437,-0.42707082629203796
1781678058233687000,49.05468701171875,-0.6999746561050415,0.19837833940982819,-0.898200273513794
1781678058282208500,49.10320849609375,0.4150826036930084,0.7289907336235046,-1.0291544198989868
1781678058330730500,49.15173046875,0.4967857897281647,1.5418990850448608,-1.0570251941680908
1781678058379252000,49.200251953125,0.24327689409255981,2.790048599243164,-0.7184533476829529
1781678058427774000,49.24877392578125,0.794200599193573,2.9013023376464844,-0.9502001404762268
1781678058524817400,49.3458173828125,0.5439751148223877,2.04906964302063,-0.658741295337677
1781678058573339000,49.3943388671875,-0.0939968153834343,1.6346741914749146,-0.7276163101196289
1781678058621860600,49.442860595703124,0.3340666890144348,0.7443387508392334,-0.3401753306388855
1781678058670382600,49.49138256835938,0.777325451374054,0.4744892120361328,0.5513818264007568
1781678058718904000,49.53990405273437,0.07681624591350555,0.693636953830719,2.6048800945281982
1781678058767426000,49.588426025390625,-0.08109229803085327,0.07635809481143951,1.9302563667297363
1781678058815947500,49.636947509765626,0.09414953738451004,0.9336304664611816,1.0525963306427002
1781678058864469200,49.68546923828125,-0.7439569234848022,1.0195332765579224,0.5338194370269775
1781678058961512700,49.7825126953125,-0.4440223276615143,-0.4166097939014435,0.21655155718326569
1781678059010034400,49.83103442382812,0.3455967605113983,-0.825812816619873,-0.012522728182375431
1781678059058556200,49.87955615234375,0.4046979248523712,-0.323452889919281,-0.05154171586036682
1781678059107078000,49.92807788085938,-0.3718639314174652,0.17898337543010712,0.43287405371665955
1781678059155599600,49.976599609375,0.49548768997192383,0.3211621642112732,-0.5964331030845642
1781678059204121300,50.025121337890624,-0.5040398240089417,-0.7556397318840027,-0.6031526327133179
1781678059252643000,50.07364306640625,-0.49220430850982666,0.2519817352294922,-1.3724604845046997
1781678059301164800,50.12216479492187,0.5325213670730591,1.030987024307251,-1.183321475982666
1781678059349686500,50.1706865234375,0.6408734917640686,2.1240532398223877,-0.1758527010679245
1781678059398208300,50.21920825195313,0.30291256308555603,2.618166446685791,-0.4805978536605835
1781678059446730000,50.26772998046875,0.4521162807941437,2.3445754051208496,-0.9679152369499207
1781678059495251700,50.316251708984375,0.2430478185415268,1.609323263168335,-0.7549524903297424
1781678059543773400,50.3647734375,-0.13324488699436188,1.3060288429260254,-0.6174315810203552
1781678059592295000,50.413294921875,0.007788525894284248,0.9036980867385864,-0.3006218373775482
1781678059640816600,50.461816650390624,0.4218021333217621,0.13133592903614044,-0.15523600578308105
1781678059689338400,50.51033837890625,0.028863361105322838,0.9338595271110535,0.9873101711273193
1781678059737860000,50.55886010742187,-0.11774418503046036,-0.6415607333183289,2.731252670288086
1781678059786381800,50.6073818359375,0.03657552972435951,-0.6100248694419861,2.1454334259033203
1781678059834903600,50.655903564453126,-0.13942988216876984,-0.1876882016658783,-0.038789913058280945
1781678059883425300,50.70442529296875,-1.1026872396469116,-0.6971494555473328,0.20738859474658966
1781678059931946800,50.75294677734375,-0.8862120509147644,-0.9337831735610962,-0.04833467677235603
1781678059980468700,50.80146875,0.0308486707508564,-1.1730130910873413,0.20189081132411957
1781678060028990200,50.849990234375,0.6149880886077881,-1.1707223653793335,0.16569706797599792
1781678060126034000,50.94703393554688,0.11308634281158447,-0.5578722357749939,-0.4289034307003021
1781678060174555400,50.99555541992188,0.347123920917511,-0.15775582194328308,-0.44089165329933167
1781678060223077000,51.0440771484375,-0.7312815189361572,-0.6574432253837585,-1.2896119356155396
1781678060271598800,51.092598876953126,0.3804923892021179,-0.20540328323841095,-0.7069995999336243
1781678060320120600,51.14112060546875,0.5920807123184204,0.685084879398346,-0.6692023873329163
1781678060368642000,51.18964208984375,0.2692386507987976,0.7441096305847168,-0.015195261687040329
1781678060417164000,51.2381640625,0.3883572816848755,1.7829616069793701,-0.8805615901947021
1781678060465685500,51.286685546875,0.1764635592699051,1.306257963180542,-1.0423643589019775
1781678060514207200,51.33520727539062,0.08315397053956985,0.6562978625297546,-1.0521382093429565
1781678060562729000,51.38372900390625,-0.3773617148399353,0.815122663974762,-0.5983420610427856
1781678060611250700,51.43225073242188,0.25243985652923584,-0.11484257876873016,-0.12637265026569366
1781678060659772400,51.4807724609375,0.4727329909801483,0.1954767256975174,0.8457422852516174
1781678060708294000,51.5292939453125,0.14164426922798157,-0.9076687097549438,2.8376195430755615
1781678060756815600,51.57781567382813,0.0565049909055233,-0.9345467686653137,2.1269547939300537
1781678060805337300,51.62633740234375,0.03550651669502258,-0.8254310488700867,1.0471749305725098
1781678060853859000,51.674859130859375,-0.6989056468009949,-1.0844377279281616,0.22044582664966583
1781678060902380800,51.723380859375,-1.1542290449142456,-1.0950515270233154,-0.18211406469345093
1781678060950902500,51.77190258789062,-0.38354671001434326,-1.1062761545181274,0.297872930765152
1781678060999424300,51.82042431640625,0.6024653911590576,-1.1536945104599,0.4419606626033783
1781678061047945700,51.86894580078125,0.26015204191207886,-0.6686678528785706,0.02130390889942646
1781678061096467500,51.91746752929687,-0.0844520553946495,0.19494222104549408,0.07834340631961823
1781678061144989200,51.9659892578125,0.6198750138282776,0.42012226581573486,-0.5423715710639954
1781678061193511000,52.014510986328126,-0.9819651246070862,-0.7114284038543701,-1.5014293193817139
1781678061242032600,52.06303271484375,-0.10155627131462097,-0.23915356397628784,-0.9273691177368164
1781678061290554400,52.111554443359374,0.6370556354522705,0.23258677124977112,-0.6872992515563965
1781678061339076000,52.160076171875,0.614682674407959,1.148654818534851,0.02756527252495289
1781678061387597600,52.20859765625,0.2655734717845917,2.6112942695617676,-0.4473820924758911
1781678061436119300,52.25711938476562,0.3822486400604248,2.0883939266204834,-0.8911753296852112
1781678061484641000,52.30564111328125,0.4165334105491638,1.0735948085784912,-0.8534544706344604
1781678061533162800,52.35416284179688,-0.1750127524137497,1.3184752464294434,-0.8891136646270752
1781678061581684200,52.40268432617187,-0.1758527010679245,0.39370235800743103,-0.5009855031967163
1781678061630206000,52.4512060546875,0.6785180568695068,-0.4059959948062897,-0.02283107116818428
1781678061678727700,52.49972778320313,0.1453094631433487,0.43600472807884216,1.197447657585144
1781678061775771100,52.596771240234375,0.09033162891864777,-1.0086904764175415,2.353738307952881
1781678061824292600,52.64529272460938,0.011759147047996521,-0.8790343999862671,0.46463900804519653
1781678061872814600,52.69381469726562,-1.025107502937317,-1.0367902517318726,-0.17745621502399445
1781678061921336000,52.742336181640624,-1.0330487489700317,-1.2986221313476562,-0.15202897787094116
1781678061969857800,52.79085791015625,-0.050778135657310486,-1.2127193212509155,0.39881834387779236
1781678062018379300,52.83937915039063,0.5930733680725098,-1.275791049003601,0.45685049891471863
1781678062066901000,52.88790087890625,-0.05673406645655632,0.5262600183486938,0.009315688163042068
1781678062115422700,52.936422607421875,0.4027126133441925,-0.14172062277793884,-0.45074185729026794
1781678062163944400,52.9849443359375,0.5209149122238159,-0.09934188425540924,-0.5453495383262634
1781678062212466200,53.03346606445312,-0.9410371780395508,-0.8734602928161621,-1.4256056547164917
1781678062260987600,53.081987548828124,0.16539163887500763,-0.49052441120147705,-0.9330959320068359
1781678062309509600,53.13050952148438,0.708450436592102,0.505032479763031,-0.6753110289573669
1781678062358031000,53.17903100585937,0.6116283535957336,1.050534725189209,0.2248746007680893
1781678062406552800,53.227552734375,0.23327398300170898,2.165210247039795,-0.5158752799034119
1781678062455074300,53.27607421875,0.2827540338039398,1.6135993003845215,-0.8022945523262024
1781678062503596000,53.32459594726563,0.2994764447212219,0.4427242577075958,-1.005788803100586
1781678062552117800,53.37311767578125,-0.23144139349460602,1.1519381999969482,-0.7777072191238403
1781678062600639500,53.421639404296876,0.3006981909275055,-0.024740023538470268,-0.3661370873451233
1781678062649161200,53.4701611328125,0.586888313293457,-0.25060728192329407,0.12408190965652466
1781678062697682700,53.5186826171875,0.003512472379952669,0.3182605504989624,1.8250348567962646
1781678062746204400,53.567204345703125,-0.07498364895582199,-1.2284491062164307,2.6457316875457764
1781678062794726100,53.61572607421875,-0.05482511222362518,-0.7609084248542786,2.0817508697509766
1781678062843247900,53.66424780273437,-0.32795801758766174,-0.9081268310546875,-0.3006218373775482
1781678062891769600,53.71276953125,-1.1039090156555176,-1.5195261240005493,-0.012293653562664986
1781678062940291000,53.761291015625,-0.7934370040893555,-1.1184934377670288,-0.047494735568761826
1781678062988812800,53.80981274414062,0.3055087625980377,-1.3041199445724487,0.147905632853508
1781678063037334300,53.85833422851562,0.5464185476303101,-1.207221508026123,-0.11148282140493393
1781678063085856000,53.90685595703125,-0.16439898312091827,1.3332123756408691,0.5071704983711243
1781678063134377700,53.95537768554688,0.5806269645690918,0.016340631991624832,-0.6333140730857849
1781678063182899500,54.0038994140625,-0.009621120058000088,-0.11927134543657303,-0.629496157169342
1781678063231421000,54.0524208984375,-0.5732966065406799,-0.8465822339057922,-1.3613121509552002
1781678063328464400,54.14946435546875,0.661413848400116,0.84177166223526,-0.003970621153712273
1781678063376986000,54.197986083984375,0.2793179154396057,0.845894992351532,0.2577085793018341
1781678063425507800,54.2465078125,0.31635159254074097,2.077169418334961,-0.7734311819076538
1781678063474029300,54.295029296875,0.45280352234840393,0.8090140223503113,-1.0640500783920288
1781678063522551000,54.343551025390624,0.3586539924144745,0.18661919236183167,-1.2210423946380615
1781678063571072500,54.392072509765626,-0.31490078568458557,1.0596976280212402,-0.692186176776886
1781678063619594200,54.44059423828125,0.13942988216876984,0.0025198173243552446,-0.1334739476442337
1781678063668115700,54.48911572265625,0.5945241451263428,-0.004886918235570192,0.6136136651039124
1781678063716637700,54.5376376953125,0.04108065739274025,-0.06330086290836334,2.321057081222534
1781678063765159400,54.58615942382813,-0.21395538747310638,-1.1035271883010864,2.522413492202759
1781678063813681000,54.63468090820312,-0.3724747896194458,0.05299251899123192,1.4030799865722656
1781678063862202600,54.68320263671875,-0.4708240330219269,-0.9743293523788452,-0.3158934414386749
1781678063910724000,54.73172412109375,-1.057559609413147,-0.5996401309967041,0.11499529331922531
1781678063959245800,54.78024584960937,-0.4871646761894226,-0.7567850947380066,0.30169084668159485
1781678064007767300,54.82876733398437,0.26503896713256836,-1.1804962158203125,-0.03627009689807892
1781678064056289300,54.87728930664063,0.46838057041168213,-1.154305338859558,0.14775292575359344
1781678064104811000,54.92581103515625,-0.3326158821582794,0.6868410706520081,0.15187625586986542
1781678064153332500,54.97433251953125,0.7777835726737976,-0.19608759880065918,-0.8037453293800354
1781678064201854200,55.022854248046876,-0.6270527243614197,-0.6094139814376831,-0.804814338684082
1781678064250375700,55.07137573242188,-0.3246746361255646,-0.7922916412353516,-1.2244784832000732
1781678064298897400,55.1198974609375,0.5728384256362915,-0.5946768522262573,-1.0914626121520996
1781678064347419000,55.1684189453125,0.6737074851989746,0.6453786492347717,-0.06039925664663315
1781678064395940600,55.21694067382813,0.23686282336711884,2.0305144786834717,0.061391908675432205
1781678064444462000,55.26546215820313,0.495258629322052,2.093128204345703,-0.661413848400116
1781678064492983800,55.31398388671875,0.5319868922233582,0.7640390992164612,-0.6903535723686218
1781678064541505800,55.362505859375,-0.11552979797124863,0.48449212312698364,-1.1214714050292969
1781678064590027300,55.41102734375,-0.38072147965431213,1.105283498764038,-0.6858484148979187
1781678064638549000,55.459549072265624,0.5376373529434204,-0.6348412036895752,-0.16302454471588135
1781678064687070500,55.508070556640625,0.4252382516860962,0.3627009689807892,0.7386118769645691
1781678064735592200,55.55659228515625,-0.0694858655333519,-0.6624828577041626,2.5944955348968506
1781678064784113700,55.60511376953125,-0.0005345066892914474,-1.0829869508743286,2.4010040760040283
1781678064832635400,55.653635498046874,-0.06039925664663315,-0.7887791395187378,1.1951569318771362
1781678064929678600,55.7506787109375,-0.9701296091079712,-1.4118611812591553,0.0974329337477684
1781678064978200300,55.799200439453124,-0.4364628791809082,-1.2768601179122925,0.04535670951008797
1781678065026721800,55.8477216796875,0.5124391913414001,-1.585728645324707,-0.011224640533328056
1781678065075243800,55.89624389648438,0.42936158180236816,-0.7814487814903259,0.26274821162223816
1781678065123765200,55.94476513671875,-0.24915647506713867,0.7809142470359802,0.5300015807151794
1781678065172287000,55.993286865234374,0.9140064120292664,0.2456440031528473,-1.0778708457946777
1781678065220808400,56.041808349609376,-0.8197041749954224,-0.48044514656066895,-0.9862411618232727
1781678065269330200,56.090330078125,-0.19440771639347076,-0.5325977206230164,-1.2187515497207642
1781678065317851600,56.1388515625,0.4474584460258484,0.05322159454226494,-1.2983931303024292
1781678065366373400,56.187373291015625,0.809548556804657,0.8170316219329834,0.2536616027355194
1781678065414895000,56.23589501953125,0.3872119188308716,2.511570453643799,-0.22350014746189117
1781678065463416600,56.28441650390625,0.7144063711166382,1.9818744659423828,-0.5240456461906433
1781678065511938300,56.332938232421874,0.437302827835083,0.6479747891426086,-0.5555815100669861
1781678065560459800,56.381459716796876,-0.1305723488330841,1.5359431505203247,-0.9189696907997131
1781678065608981500,56.4299814453125,0.05940660089254379,0.10270164161920547,-0.5264127254486084
1781678065657503000,56.4785029296875,0.4018726646900177,-0.33231043815612793,0.003359756199643016
1781678065706024700,56.527024658203125,0.14607304334640503,0.9123265743255615,0.9272163510322571
1781678065754546200,56.575546142578126,-0.12331832945346832,-0.7822887301445007,2.459036111831665
1781678065803068000,56.62406787109375,0.10804671049118042,-0.5309942364692688,2.239353895187378
1781678065851589600,56.672589599609374,-0.23877176642417908,-0.15386156737804413,0.4981602132320404
1781678065900111000,56.721111083984376,-0.8801034092903137,-1.235092282295227,-0.15729768574237823
1781678065948632800,56.7696328125,-0.825812816619873,-1.014417290687561,-0.1352301836013794
1781678065997154300,56.818154296875,0.013897174037992954,-1.175074815750122,0.05352702736854553
1781678066045676000,56.866676025390625,0.500832736492157,-1.3112976551055908,0.027259841561317444
1781678066094197500,56.915197509765626,-0.13187043368816376,0.6361393332481384,0.9935715794563293
1781678066142719200,56.96371923828125,-0.028863361105322838,-0.733572244644165,-0.49625128507614136
1781678066191240700,57.01224072265625,0.5716167092323303,0.32383468747138977,-0.9104939699172974
1781678066239762400,57.060762451171875,-0.8144354820251465,-1.0190751552581787,-1.3726894855499268
1781678066288284200,57.1092841796875,0.18035782873630524,-0.37659814953804016,-1.0655772686004639
1781678066336805600,57.1578056640625,0.8016073107719421,0.9574542045593262,-0.4799869954586029
1781678066385327400,57.206327392578125,0.7370083332061768,0.8384119272232056,0.30375251173973083
1781678066482370600,57.30337060546875,0.4584540128707886,0.964784562587738,-0.33399030566215515
1781678066530892000,57.35189208984375,0.02023489587008953,0.44784024357795715,-1.116126298904419
1781678066579413800,57.400413818359375,-0.2837466895580292,1.0906226634979248,-0.6411026120185852
1781678066627935200,57.44893530273438,0.20937390625476837,-0.5598575472831726,-0.3718639314174652
1781678066676457000,57.49745703125,0.4544070363044739,0.10048725455999374,0.10094540566205978
1781678066724978700,57.545978759765624,-0.08659008145332336,0.6441569328308105,1.7175227403640747
1781678066773500200,57.594500244140626,-0.03733910992741585,-1.3267219066619873,2.5714352130889893
1781678066822022000,57.64302197265625,-0.22472187876701355,-0.129197895526886,1.5527418851852417
1781678066870543400,57.69154345703125,-0.2700785994529724,-0.7547997832298279,0.10903936624526978
1781678066919065000,57.740065185546875,-1.2121084928512573,-0.715246319770813,0.07444914430379868
1781678066967587300,57.78858740234375,-0.7836631536483765,-0.9471458196640015,0.004581485874950886
1781678067016109000,57.837109130859375,0.2511417865753174,-1.1060470342636108,-0.0015271619195118546
1781678067064630500,57.885630615234376,0.4712821841239929,-1.5464805364608765,-0.07192932814359665
1781678067113152300,57.93415234375,-0.38247770071029663,1.480965256690979,0.5092321634292603
1781678067161673700,57.982673828125,0.6415607333183289,-0.010384701192378998,-1.10230553150177
1781678067210195500,58.031195556640625,-0.2845102846622467,-0.2530507445335388,-0.7211259007453918
1781678067258717000,58.07971704101563,-0.4101957082748413,-0.7386882305145264,-1.018540620803833
1781678067307238700,58.12823876953125,0.4376846253871918,-0.3381136655807495,-0.9043089747428894
1781678067355760000,58.17676000976562,0.744796872138977,0.462424635887146,0.06062832847237587
1781678067404281900,58.22528173828125,0.43317949771881104,0.8894954919815063,0.20502148568630219
1781678067452803300,58.27380322265625,0.2888626754283905,1.7621921300888062,-0.5416843295097351
1781678067501324800,58.32232470703125,0.25870123505592346,0.6655371785163879,-0.7369319796562195
1781678067549846500,58.37084643554687,0.0035888305865228176,0.1487455666065216,-1.1898118257522583
1781678067598368000,58.419367919921875,-0.507094144821167,0.6355284452438354,-0.8329141139984131
1781678067646889700,58.4678896484375,0.3594939112663269,-0.19280420243740082,-0.21754421293735504
1781678067695411200,58.5164111328125,0.5258018374443054,0.3329976499080658,1.0455714464187622
1781678067743933000,58.564932861328124,0.1230892539024353,-1.0828341245651245,2.746142625808716
1781678067792454400,58.613454345703126,-0.03756818547844887,-0.49999281764030457,2.0870959758758545
1781678067840976100,58.66197607421875,-0.042913250625133514,-0.45539969205856323,0.7969494462013245
1781678067889497900,58.71049780273437,-0.630107045173645,-1.2911391258239746,0.31612253189086914
1781678067938019300,58.759019287109375,-1.0790926218032837,-1.5015056133270264,-0.03840812295675278
1781678067986540800,58.807540771484376,-0.281455934047699,-1.207221508026123,0.25243985652923584
1781678068083584000,58.904583984375,0.39652758836746216,0.14813470840454102,0.17478369176387787
1781678068132105500,58.95310546875,-0.15607595443725586,0.8448259830474854,-0.061391908675432205
1781678068180627200,59.00162719726563,0.6478220820426941,-0.0345902182161808,-0.6642391085624695
1781678068229148700,59.05014868164063,-0.6512582302093506,-0.6030762791633606,-0.9379828572273254
1781678068277670400,59.09867041015625,-0.05696314200758934,-0.2583194375038147,-0.8774309158325195
1781678068326192000,59.147192138671876,0.48533207178115845,0.7602212429046631,-0.6575959324836731
1781678068374713600,59.19571362304688,0.4935023784637451,1.286481261253357,0.040088001638650894
1781678068423235000,59.24423510742187,0.21067199110984802,2.363283157348633,-0.17577634751796722
1781678068471756500,59.29275659179687,0.4042397737503052,1.761581301689148,-0.8667407631874084
1781678068520278300,59.3412783203125,0.3853793144226074,0.41500625014305115,-0.9086613655090332
1781678068568799700,59.3897998046875,-0.02779434807598591,0.586888313293457,-0.8707877397537231
1781678068665843000,59.486843017578124,0.609948456287384,-0.5995637774467468,-0.2026543915271759
1781678068714364700,59.53536474609375,0.1156061589717865,0.5348120927810669,0.5315287113189697
1781678068762886100,59.58388623046875,-0.2645808160305023,-0.04245510324835777,2.278449296951294
1781678068811407600,59.63240771484375,-0.09537126123905182,-0.769002377986908,2.242255449295044
1781678068859929300,59.680929443359375,-0.30253079533576965,-0.21945317089557648,0.7909935116767883
1781678068908450800,59.729450927734376,-0.8927788734436035,-0.7308996915817261,-0.20334161818027496
1781678068956972500,59.77797265625,-1.049312949180603,-0.731510579586029,-0.003359756199643016
1781678069005494000,59.82649389648437,-0.18295399844646454,-0.47357290983200073,0.1701258420944214
1781678069054015500,59.875015380859374,0.639270007610321,-1.3631447553634644,-0.053985174745321274
1781678069102537000,59.923536865234375,0.06467530876398087,0.6141481995582581,0.5052615404129028
1781678069151058700,59.97205859375,-0.18173226714134216,-0.3006981909275055,-0.2395353466272354
1781678069199580200,60.020580078125,0.8752928972244263,0.16073378920555115,-0.8402445316314697
1781678069248102000,60.069101806640624,-0.6170498132705688,-1.0380120277404785,-1.0582468509674072
1781678069296623400,60.117623291015626,-0.04833467677235603,-0.7168498039245605,-1.1000910997390747
1781678069345144800,60.16614477539063,0.598723828792572,0.06604975461959839,-1.059086799621582
1781678069393666600,60.21466650390625,0.6023890376091003,0.7101303339004517,0.44501498341560364
1781678069442188000,60.26318798828125,0.2808450758457184,1.6271910667419434,-0.03817904740571976
1781678069490709800,60.31170971679688,0.4981602132320404,1.3590214252471924,-0.45272716879844666
1781678069539231200,60.36023120117188,0.3087921440601349,-0.25503605604171753,-0.6966912746429443
1781678069587752700,60.40875268554687,-0.4087449014186859,1.1939351558685303,-0.9278272390365601
1781678069684796000,60.5057958984375,0.46944957971572876,-0.48968449234962463,-0.022449281066656113
1781678069733317600,60.55431762695312,0.23594652116298676,0.8666644096374512,1.2701406478881836
1781678069781838800,60.6028388671875,-0.1101083755493164,-0.9909753799438477,2.646419048309326
1781678069830360600,60.651360595703125,-0.16668972373008728,-0.3499491512775421,2.048535108566284
1781678069878882000,60.699882080078126,-0.20143266022205353,-0.17753258347511292,0.3344484567642212
1781678069927403800,60.74840380859375,-1.0361030101776123,-0.9005674123764038,-0.13141228258609772
1781678069975925200,60.79692529296875,-0.8361974954605103,-1.196073293685913,0.03245219215750694
1781678070024446700,60.84544677734375,0.09453132748603821,-1.102000117301941,0.12415826320648193
1781678070072968200,60.89396826171875,0.5955168008804321,-1.5276964902877808,0.07360920310020447
1781678070121490000,60.94248999023438,-0.11026109009981155,0.8408553600311279,0.5826886296272278
1781678070170011600,60.99101171875,0.2965748608112335,-0.2629773020744324,-0.8212313652038574
1781678070218532900,61.039532958984374,0.3823249936103821,0.2779434621334076,-0.7107411623001099
1781678070267054600,61.0880546875,-0.8021417856216431,-0.6151408553123474,-1.3840668201446533
1781678070315576000,61.136576171875,0.1888335794210434,-0.2591593861579895,-0.9502001404762268
1781678070364097500,61.18509765625,0.7394518256187439,0.7657189965248108,-0.4684569239616394
1781678070412619000,61.23361889648437,0.4860956370830536,0.6579777002334595,0.41699156165122986
1781678070509662200,61.330662109375,0.26626068353652954,1.0833686590194702,-0.6006327867507935
1781678070558183700,61.37918359375,0.2920697331428528,0.016569707542657852,-1.0640500783920288
1781678070606705400,61.42770532226562,-0.4088212549686432,0.9021708965301514,-0.7843503952026367
1781678070655227000,61.476226806640625,0.1818849891424179,-0.3018435537815094,-0.3854556679725647
1781678070703748600,61.52474853515625,0.5006036758422852,-0.04230238497257233,0.2565632164478302
1781678070752270000,61.57327001953125,0.12530364096164703,0.22815799713134766,2.296546220779419
1781678070800791600,61.62179150390625,-0.04245510324835777,-1.564730167388916,2.579681873321533
1781678070849313000,61.67031298828125,-0.22594361007213593,-0.21082471311092377,1.4563779830932617
1781678070897834800,61.71883471679688,-0.39393141865730286,-0.9982293844223022,-0.47067132592201233
1781678070946356000,61.76735595703125,-1.070006012916565,-1.4551562070846558,0.11507165431976318
1781678070994877700,61.81587768554687,-0.5619192123413086,-1.172325849533081,-0.004886918235570192
1781678071043399200,61.864399169921874,0.425009161233902,-1.4317907094955444,0.15722131729125977
1781678071091920600,61.912920654296876,0.40714138746261597,-0.7810669541358948,0.3563632369041443
1781678071140442400,61.9614423828125,-0.23510658740997314,0.7447205185890198,0.3934732675552368
1781678071188963800,62.0099638671875,0.921260416507721,-0.11094831675291061,-0.8852958083152771
1781678071286006800,62.1070068359375,-0.4350120723247528,-0.41615164279937744,-1.2899173498153687
1781678071334528500,62.15552856445313,0.5151880979537964,0.2596938908100128,-0.7657189965248108
1781678071383050000,62.20405004882812,0.7094430923461914,0.9957859516143799,0.1692095398902893
1781678071431571500,62.252571533203124,0.250149130821228,1.8047236204147339,0.10285435616970062
1781678071480093000,62.301093017578125,0.4131736755371094,1.9792782068252563,-0.8726203441619873
1781678071528614400,62.34961450195313,0.4653262495994568,0.8827759623527527,-0.7588467597961426
1781678071577136000,62.39813623046875,0.05826122686266899,0.6127737164497375,-0.795651376247406
