time,seconds_elapsed,z,y,x
1781678009312189200,0.133189208984375,7.83111047744751,5.732006549835205,-0.05144568532705307
1781678009389825500,0.210825439453125,7.63729190826416,5.7164530754089355,0.6969096064567566
1781678009448052700,0.269052734375,7.953742504119873,5.069792747497559,1.028315544128418
1781678009506280000,0.327280029296875,7.730013370513916,6.9206414222717285,0.8470591902732849
1781678009583916300,0.404916259765625,7.195217609405518,7.1509504318237305,0.46420758962631226
1781678009661552600,0.482552734375,7.613961696624756,6.495316982269287,0.906281590461731
1781678009719780000,0.540780029296875,6.5629143714904785,6.656234264373779,1.095314621925354
1781678009816825300,0.637825439453125,5.1182475090026855,5.399404525756836,1.4003994464874268
1781678009875052500,0.696052490234375,8.331808090209961,6.506682872772217,0.08255238085985184
1781678009991507200,0.812507080078125,8.97368335723877,5.55015230178833,-0.2847459018230438
1781678010088552700,0.909552734375,8.307282447814941,5.3347978591918945,0.29790642857551575
1781678010146780000,0.96777978515625,7.934001445770264,5.394618511199951,0.41515472531318665
1781678010243825200,1.0648251953125,7.813762187957764,5.003392219543457,-0.06400800496339798
1781678010302052600,1.123052490234375,8.904291152954102,4.9531426429748535,0.03768695518374443
1781678010379689000,1.20068896484375,8.46341323852539,5.112864017486572,0.016749758273363113
1781678010457325300,1.2783251953125,8.656036376953125,4.980062007904053,0.07597211748361588
1781678010534961700,1.355961669921875,8.581260681152344,4.941776752471924,0.21296121180057526
1781678010632007000,1.4530068359375,8.15234661102295,5.056034088134766,0.05383851006627083
1781678010709643300,1.530643310546875,8.09671401977539,5.784050464630127,0.5617151260375977
1781678010787279600,1.608279541015625,6.532405853271484,4.155136585235596,1.4691931009292603
1781678010864916000,1.685916015625,5.062016487121582,3.9152560234069824,2.159522533416748
1781678010942552300,1.76355224609375,2.176870346069336,2.8660032749176025,0.22851456701755524
1781678011020188700,1.841188720703125,3.257229804992676,-3.5754752159118652,-0.38344982266426086
1781678011097825000,1.918824951171875,4.256233215332031,-5.708078384399414,6.374479293823242
1781678011175461400,1.99646142578125,7.966903209686279,-10.808380126953125,12.540783882141113
1781678011253097700,2.07409765625,8.51306438446045,-11.654840469360352,17.616558074951172
1781678011311325000,2.132324951171875,4.618147850036621,-7.9142608642578125,12.07478141784668
1781678011369552400,2.190552490234375,0.7585247755050659,-6.729813575744629,14.515460014343262
1781678011427779600,2.248779541015625,5.3216376304626465,-9.561120986938477,3.9385859966278076
1781678011544234000,2.36523388671875,5.586642742156982,-9.738788604736328,4.895715236663818
1781678011621870600,2.44287060546875,1.0498509407043457,-8.592626571655273,2.9252257347106934
1781678011678984700,2.499984619140625,5.700900077819824,-9.45045280456543,1.9417755603790283
1781678011737212000,2.5582119140625,7.539783954620361,-9.366703987121582,1.7682958841323853
1781678011795439000,2.616439208984375,2.977867841720581,-7.542177200317383,3.6885361671447754
1781678011892484600,2.713484619140625,2.5387847423553467,-3.968496322631836,-0.26919254660606384
1781678012028348200,2.84934814453125,6.7178497314453125,-7.836493968963623,0.9511470198631287
1781678012125393400,2.946393310546875,5.496313571929932,-6.563512325286865,-1.0169496536254883
1781678012222438700,3.043438720703125,1.399801254272461,-8.606983184814453,6.820741176605225
1781678012280666000,3.101666015625,3.7112679481506348,-9.91705322265625,-0.7417750358581543
1781678012377711600,3.198711669921875,2.287538528442383,-26.975486755371094,4.406383037567139
1781678012474757000,3.295757080078125,3.0903303623199463,-7.472784996032715,0.8889335989952087
1781678012571802400,3.39280224609375,-0.6592226624488831,-8.904889106750488,3.19441819190979
1781678012630029800,3.45102978515625,1.4141582250595093,-8.014759063720703,1.8005990982055664
1781678012727075300,3.548075439453125,1.466800332069397,-9.401400566101074,3.1310083866119385
1781678012824120800,3.645120849609375,-0.9858429431915283,-10.663614273071289,3.1489546298980713
1781678012921166000,3.742166015625,-1.2394821643829346,-10.484152793884277,1.6271194219589233
1781678012979393300,3.800393310546875,0.7525427341461182,-13.348361015319824,2.3856441974639893
1781678013076439000,3.89743896484375,-0.8865407705307007,-11.271390914916992,0.15553347766399384
1781678013173484300,3.994484375,0.4211367964744568,-10.003194808959961,-0.6699903607368469
1781678013231711500,4.05271142578125,2.785245656967163,-9.078369140625,-1.8628123998641968
1781678013328757000,4.149757080078125,-0.25722843408584595,-9.5533447265625,0.4103690981864929
1781678013425802800,4.246802734375,-0.9858429431915283,-10.05823040008545,-0.44386860728263855
1781678013522848000,4.343847900390625,-0.8901300430297852,-9.856036186218262,1.022931694984436
1781678013581075200,4.4020751953125,0.16271193325519562,-9.66221809387207,-0.35054850578308105
1781678013678120700,4.49912060546875,-0.9296116232872009,-10.028319358825684,0.39481574296951294
1781678013775166200,4.596166259765625,1.0049854516983032,-10.149157524108887,0.8901300430297852
1781678013872211500,4.69321142578125,-1.4021940231323242,-10.118050575256348,0.017946170642971992
1781678013930439000,4.75143896484375,-1.0767701864242554,-10.225728034973145,0.7429714202880859
1781678014027484400,4.848484375,-0.6604190468788147,-9.292527198791504,-0.26440688967704773
1781678014124529700,4.94552978515625,-1.439282774925232,-10.222138404846191,-0.4211367964744568
1781678014221575200,5.0425751953125,-1.0001999139785767,-9.827322959899902,-0.1663011759519577
1781678014279802600,5.100802734375,-1.2346965074539185,-9.881160736083984,0.09690931439399719
1781678014376848100,5.19784814453125,-1.1054840087890625,-10.015159606933594,0.32542386651039124
1781678014473893400,5.294893310546875,-1.333998680114746,-9.797411918640137,-0.3278166949748993
1781678014570939000,5.39193896484375,-1.042074203491211,-9.896714210510254,0.44745782017707825
1781678014629166300,5.450166259765625,-1.0169496536254883,-10.067801475524902,0.34217363595962524
1781678014726211800,5.5472119140625,-0.9367900490760803,-9.934999465942383,0.07537391036748886
1781678014823257000,5.644257080078125,-1.1042876243591309,-9.875179290771484,0.46061834692955017
1781678014881484300,5.702484375,-1.1736794710159302,-9.80219841003418,0.21415762603282928
1781678014978530000,5.799530029296875,-1.1976077556610107,-9.89551830291748,0.30149564146995544
1781678015075575300,5.8965751953125,-1.2346965074539185,-9.780662536621094,0.259621262550354
1781678015172620800,5.993620849609375,-1.200000524520874,-9.89551830291748,0.3158525824546814
1781678015230848000,6.051847900390625,-1.191625714302063,-9.871589660644531,0.33020952343940735
1781678015327893800,6.148893798828125,-1.262213945388794,-9.878767967224121,0.3756731450557709
1781678015424939000,6.24593896484375,-1.2550355195999146,-9.881160736083984,0.32662028074264526
1781678015521984500,6.342984619140625,-1.2083754539489746,-9.875179290771484,0.37088751792907715
1781678015580211700,6.401211669921875,-1.2299108505249023,-9.853643417358398,0.3900300860404968
1781678015677257500,6.498257568359375,-1.2406785488128662,-9.875179290771484,0.3852444589138031
1781678015774302500,6.595302490234375,-1.184447169303894,-9.878767967224121,0.3613162338733673
1781678015832530000,6.653530029296875,-1.1976077556610107,-9.860821723937988,0.4833501875400543
1781678015929575400,6.750575439453125,-1.2083754539489746,-9.889535903930664,0.4163511395454407
1781678016026621200,6.84762109375,-1.1581261157989502,-9.883553504943848,0.3924229145050049
1781678016123666400,6.94466650390625,-1.1820544004440308,-9.889535903930664,0.40797626972198486
1781678016181893600,7.0028935546875,-1.1724830865859985,-9.883553504943848,0.3242274820804596
1781678016278939100,7.099939208984375,-1.215553879737854,-9.921838760375977,0.3170489966869354
1781678016375984600,7.196984619140625,-1.1784651279449463,-9.875179290771484,0.3577269911766052
1781678016473030100,7.294030029296875,-1.200000524520874,-9.88833999633789,0.35892340540885925
1781678016531257000,7.352257080078125,-1.2095718383789062,-9.875179290771484,0.37926238775253296
1781678016628302800,7.449302734375,-1.207179069519043,-9.8871431350708,0.4247260093688965
1781678016725348400,7.546348388671875,-1.1772687435150146,-9.875179290771484,0.36251261830329895
1781678016822393600,7.6433935546875,-1.1808580160140991,-9.857233047485352,0.41515472531318665
1781678016880621000,7.70162109375,-1.191625714302063,-9.885947227478027,0.37926238775253296
1781678016977666600,7.79866650390625,-1.1569297313690186,-9.873982429504395,0.4007977843284607
1781678017074711800,7.8957119140625,-1.1593226194381714,-9.88833999633789,0.37806597352027893
1781678017171757300,7.99275732421875,-1.196411371231079,-9.858428955078125,0.41515472531318665
1781678017229984800,8.05098486328125,-1.155733346939087,-9.897911071777344,0.43190449476242065
1781678017327030000,8.148030029296875,-1.179661512374878,-9.829715728759766,0.4366901218891144
1781678017424075500,8.245075439453124,-1.1976077556610107,-9.92542839050293,0.42831525206565857
1781678017521120800,8.342120849609374,-1.2047861814498901,-9.900303840637207,0.34217363595962524
1781678017579348200,8.40034814453125,-1.1617153882980347,-9.856036186218262,0.4342973232269287
1781678017676393700,8.497393798828124,-1.2239288091659546,-9.881160736083984,0.3888336718082428
1781678017773439200,8.594439208984374,-1.215553879737854,-9.864411354064941,0.39122650027275085
1781678017831666400,8.65266650390625,-1.2035897970199585,-9.869196891784668,0.43190449476242065
1781678017928712000,8.7497119140625,-1.210768222808838,-9.91107177734375,0.37806597352027893
1781678018025757200,8.846757080078126,-1.1665010452270508,-9.884750366210938,0.40677985548973083
1781678018122802700,8.943802734375,-1.1940184831619263,-9.920642852783203,0.37806597352027893
1781678018181030000,9.00202978515625,-1.2215359210968018,-9.858428955078125,0.39122650027275085
1781678018278075400,9.099075439453125,-1.2035897970199585,-9.877572059631348,0.37806597352027893
1781678018375121000,9.196120849609375,-1.1724830865859985,-9.839286804199219,0.38763725757598877
1781678018472166100,9.293166259765625,-1.2047861814498901,-9.91107177734375,0.381655216217041
1781678018530393300,9.351393310546875,-1.222732424736023,-9.864411354064941,0.37806597352027893
1781678018627438800,9.44843896484375,-1.246660590171814,-9.899106979370117,0.381655216217041
1781678018724484400,9.545484375,-1.1461620330810547,-9.754341125488281,0.32662028074264526
1781678018821529600,9.642529541015625,-1.0636097192764282,-10.139585494995117,0.44745782017707825
1781678018918575000,9.7395751953125,-0.8051848411560059,-9.913464546203613,0.5527420043945312
1781678018976802300,9.79780224609375,-0.7166503667831421,-9.919445991516113,0.2763710021972656
1781678019073847600,9.89484765625,-0.8171489238739014,-9.542576789855957,0.41874396800994873
1781678019132075000,9.953074951171875,-0.7513462901115417,-8.793622970581055,0.5335994362831116
1781678019229120300,10.050120361328124,-0.7046862840652466,-9.693324089050293,0.3577269911766052
1781678019326165500,10.14716552734375,-1.322034478187561,-13.257433891296387,2.2133610248565674
1781678019423211000,10.2442109375,0.5383850932121277,-9.445667266845703,2.0003998279571533
1781678019481438000,10.30243798828125,1.643869161605835,-8.757730484008789,1.4081761837005615
1781678019578483500,10.3994833984375,1.211964726448059,-8.6033935546875,1.6091731786727905
1781678019675529000,10.496529052734376,1.7359927892684937,-10.061819076538086,3.397808074951172
1781678019772574500,10.593574462890626,-0.4259224236011505,-15.408581733703613,0.45104706287384033
1781678019830801400,10.651801513671876,0.5682953596115112,-10.6025972366333,0.7070791125297546
1781678019927847000,10.748846923828125,-0.6819544434547424,-9.804591178894043,-1.4715858697891235
1781678020024892200,10.84589208984375,-0.8243274092674255,-7.947760581970215,0.9643075466156006
1781678020121937700,10.942937744140625,-1.0875378847122192,-8.514859199523926,0.5252245664596558
1781678020180164900,11.001164794921875,-0.42352959513664246,-9.416953086853027,2.2133610248565674
1781678020277210000,11.098210205078125,1.3423734903335571,-9.796216011047363,0.6173482537269592
1781678020374255400,11.19525537109375,-1.6689938306808472,-12.946367263793945,-0.5180460810661316
1781678020471300600,11.292300537109375,-2.994617462158203,-11.368300437927246,-1.6821542978286743
1781678020529528000,11.350528076171875,-4.061816215515137,-14.067404747009277,3.363112211227417
1781678020626573000,11.447572998046875,2.368894338607788,-8.82114028930664,-0.5084748268127441
1781678020723618300,11.544618408203124,2.6871397495269775,-5.356333255767822,0.8925228714942932
1781678020781845500,11.602845458984374,0.13160525262355804,-6.667600154876709,3.524627685546875
1781678020878891000,11.69989111328125,-2.599801778793335,-19.039690017700195,1.4536397457122803
1781678020975936300,11.796936279296874,-0.08255238085985184,-11.267802238464355,-0.48813581466674805
1781678021072981200,11.893981201171876,0.3840480446815491,-7.2681989669799805,-2.056631088256836
1781678021131208700,11.952208740234376,-1.841277003288269,-6.728617191314697,-1.2143574953079224
1781678021228253700,12.049253662109376,-0.05742774158716202,-7.920242786407471,2.3844478130340576
1781678021325299200,12.14629931640625,3.1034910678863525,-11.261819839477539,1.3854442834854126
1781678021422344400,12.243344482421875,-2.1104695796966553,-11.452049255371094,-2.671586513519287
1781678021480571400,12.3015712890625,-1.6630117893218994,-8.105687141418457,2.5806591510772705
1781678021577616600,12.39861669921875,-0.6293123364448547,-8.12123966217041,2.557927370071411
1781678021674662100,12.495662109375,1.8029918670654297,-6.8279194831848145,-0.8638089895248413
1781678021771707100,12.59270703125,4.482953071594238,-4.101297855377197,2.2085752487182617
1781678021829934300,12.650934326171875,-0.15314064919948578,-17.588443756103516,0.576670229434967
1781678021926979600,12.7479794921875,-5.5142598152160645,-15.643077850341797,-4.101297855377197
1781678022024024800,12.84502490234375,-1.4297115802764893,-14.590235710144043,-3.511467218399048
1781678022121070000,12.942070068359374,-4.411168575286865,-7.378268718719482,-0.46061834692955017
1781678022179297300,13.00029736328125,1.9692929983139038,-7.81974458694458,-1.9298114776611328
1781678022276342300,13.09734228515625,-0.6305087804794312,-8.336593627929688,3.4277184009552
1781678022373387500,13.194387451171876,0.07417750358581543,-11.809776306152344,3.0999016761779785
1781678022431614500,13.252614501953126,-2.6177480220794678,-10.600204467773438,-1.3088740110397339
1781678022528660000,13.349659912109376,-3.047259569168091,-18.052650451660156,4.005585193634033
1781678022625705200,13.446705322265625,2.008774518966675,-8.959924697875977,0.9152546525001526
1781678022722750200,13.543750244140625,0.8781659007072449,-4.5822553634643555,0.6448656916618347
1781678022780977200,13.60197705078125,2.96111798286438,-3.2374889850616455,4.515256404876709
1781678022878022700,13.699022705078125,6.428318023681641,-12.144771575927734,4.758127689361572
1781678022975067600,13.796067626953125,1.0719845294952393,-8.438288688659668,-1.4787644147872925
1781678023072112600,13.893112548828125,0.3852444589138031,-9.742377281188965,-5.772684574127197
1781678023130339800,13.95133984375,-1.3698909282684326,-6.957131862640381,-1.5672988891601562
1781678023227384800,14.048384765625,2.283949136734009,-7.494320392608643,5.257031440734863
1781678023324430000,14.14543017578125,0.8805587291717529,-10.311869621276855,2.245664119720459
1781678023421475000,14.24247509765625,-1.2957134246826172,-12.06221866607666,1.1497513055801392
1781678023479702000,14.300701904296876,-3.8763725757598877,-8.878568649291992,-0.4570291340351105
1781678023537929500,14.358929443359376,-3.34995174407959,-17.006986618041992,-2.754138946533203
1781678023634974500,14.455974365234376,5.639883041381836,-6.058627128601074,2.4705893993377686
1781678023693201700,14.51420166015625,0.5467599630355835,-7.1856465339660645,0.4582255482673645
1781678023790246700,14.61124658203125,5.06799840927124,-2.851048231124878,1.1653046607971191
1781678023887292000,14.7082919921875,4.832305431365967,-12.9954195022583,3.840480327606201
1781678023945518800,14.766518798828125,-4.296313285827637,-16.825132369995117,-3.473181962966919
1781678024042563800,14.863563720703125,-1.4739787578582764,-12.264412879943848,-4.644468784332275
1781678024139609000,14.960609130859375,-1.4572290182113647,-6.149554252624512,0.7262216806411743
1781678024236654000,15.057654052734375,0.5060819983482361,-7.320840835571289,2.3952155113220215
1781678024294881000,15.115881103515624,-0.20937198400497437,-9.008976936340332,4.784449100494385
1781678024391926300,15.21292626953125,-0.49651068449020386,-13.044472694396973,4.252045631408691
1781678024488971300,15.30997119140625,-2.926422119140625,-8.050651550292969,-1.545763373374939
1781678024586016300,15.407016357421876,-2.8941190242767334,-11.383853912353516,7.762316703796387
1781678024644243500,15.465243408203126,3.466003656387329,-6.007181167602539,3.1417760848999023
1781678024741288400,15.562288330078125,1.1365907192230225,-5.704489231109619,-1.1365907192230225
1781678024838333400,15.65933349609375,0.04426721855998039,-17.749958038330078,-1.3555340766906738
1781678024896560000,15.71756005859375,-1.7395820617675781,-14.372488975524902,6.482156753540039
1781678024993605400,15.81460546875,-2.090130567550659,-10.16710376739502,0.7525427341461182
1781678025090650600,15.911650634765625,1.3088740110397339,-6.3529438972473145,-2.526820659637451
1781678025187695000,16.008695068359376,-1.4500504732131958,-8.367700576782227,-1.1665010452270508
1781678025245922300,16.06692236328125,0.3278166949748993,-6.070590972900391,1.3411771059036255
1781678025342967600,16.163967529296876,1.908276081085205,-12.369696617126465,1.797009825706482
1781678025440012300,16.26101220703125,-2.3198416233062744,-11.027322769165039,-1.950150489807129
1781678025537057300,16.358057373046876,-3.617947816848755,-19.08993911743164,-3.294916868209839
1781678025595284500,16.416284423828124,-3.6741790771484375,-10.17428207397461,5.407779216766357
1781678025692329200,16.5133291015625,0.31106695532798767,-5.402993679046631,-1.6666009426116943
1781678025789374200,16.610374267578123,3.315255880355835,-4.406383037567139,0.5000999569892883
1781678025847601200,16.66860107421875,3.603590965270996,-18.221343994140625,-1.2717852592468262
1781678025944646400,16.765646484375,-5.419743061065674,-18.50848388671875,-2.1415762901306152
1781678026041691100,16.862691162109375,0.8446664214134216,-11.631510734558105,-2.0853450298309326
1781678026138736000,16.959736083984374,-2.56510591506958,-5.509474277496338,-2.166700839996338
1781678026196963000,17.017963134765626,-0.486939400434494,-8.483752250671387,-1.8293129205703735
1781678026294008000,17.115008056640626,-0.656829833984375,-7.022934436798096,5.036891460418701
1781678026391053000,17.212052978515626,0.6975077986717224,-13.539787292480469,3.9672999382019043
1781678026488097800,17.309097900390626,-3.0041887760162354,-7.152146816253662,-1.1042876243591309
1781678026546325000,17.367324951171874,-3.796213150024414,-18.46900177001953,-6.0263237953186035
1781678026643369700,17.46436962890625,4.625326156616211,-6.437889099121094,3.414557933807373
1781678026740414700,17.561414794921873,1.0504491329193115,-5.641079425811768,-2.581855535507202
1781678026798641700,17.6196416015625,3.8081772327423096,-3.6634113788604736,1.698904037475586
1781678026895686700,17.716686767578125,4.551148891448975,-15.017354965209961,3.0424740314483643
1781678026992731400,17.8137314453125,0.36729827523231506,-8.240880966186523,-0.47258245944976807
1781678027089776400,17.9107763671875,-0.4007977843284607,-9.53659439086914,-4.503292083740234
1781678027148003300,17.96900341796875,-1.144965648651123,-6.405586242675781,-0.02751746028661728
1781678027245048300,18.06604833984375,0.09690931439399719,-7.715656757354736,1.4835500717163086
1781678027342093000,18.163093017578124,1.9106688499450684,-10.15155029296875,1.8795621395111084
1781678027439137800,18.2601376953125,-0.5479564070701599,-13.629517555236816,-0.5647061467170715
1781678027497364700,18.31836474609375,-3.128615617752075,-6.873383045196533,-0.07058826833963394
1781678027594409500,18.415409423828127,-4.4374895095825195,-15.253047943115234,4.481756687164307
1781678027691454700,18.512454833984375,1.0923235416412354,-6.75374174118042,-1.4811571836471558
1781678027749681400,18.570681396484375,0.9583254456520081,-5.916254043579102,-1.1700903177261353
1781678027846726400,18.667726318359374,-2.313859462738037,-10.319047927856445,2.796013355255127
1781678027943771100,18.764771240234374,-1.085145115852356,-19.124635696411133,3.5150563716888428
1781678028040815900,18.86181591796875,-1.3124631643295288,-10.179067611694336,-1.6893328428268433
1781678028099043000,18.92004296875,-0.45942193269729614,-9.06281566619873,-2.723032236099243
1781678028196087800,19.017087890625,-1.475175142288208,-6.879364967346191,-1.6426727771759033
1781678028293132500,19.114132568359373,-0.6532405614852905,-7.8795647621154785,2.5531418323516846
1781678028351359500,19.172359375,2.854637384414673,-8.668000221252441,2.9276185035705566
1781678028448404200,19.269404296875,-0.7465606927871704,-14.647664070129395,-0.8207381963729858
1781678028545449200,19.36644921875,-2.0303099155426025,-9.678967475891113,-1.6510475873947144
1781678028642494000,19.463493896484376,-3.0113673210144043,-10.447063446044922,4.460221290588379
1781678028700720600,19.521720703125,0.9056833982467651,-7.432106971740723,1.1150553226470947
1781678028797765400,19.618765380859376,1.4165509939193726,-5.5345988273620605,-0.7812566161155701
1781678028894810000,19.71581005859375,-0.22971096634864807,-19.751554489135742,-0.3206382393836975
1781678028991855000,19.812855224609375,-5.194818019866943,-16.153945922851562,-1.2454642057418823
1781678029050081800,19.871081787109375,-1.6115660667419434,-6.144768714904785,0.7310073375701904
1781678029147126800,19.968126708984375,2.1822543144226074,-7.16650390625,-3.166900873184204
1781678029244171500,20.065171630859375,-1.0085747241973877,-8.140382766723633,-1.1341979503631592
1781678029302398200,20.123398193359375,-0.035892341285943985,-7.755138397216797,2.0267207622528076
1781678029399443000,20.22044287109375,1.25144624710083,-11.148160934448242,2.242074728012085
1781678029496488000,20.317488037109374,-1.0648061037063599,-12.644871711730957,-0.46420758962631226
1781678029593532400,20.414532470703126,-2.256431818008423,-10.455438613891602,-4.151547431945801
1781678029651759400,20.47275927734375,-3.810570001602173,-16.488941192626953,6.083751678466797
1781678029748804000,20.56980419921875,0.5647061467170715,-7.5326056480407715,-2.4323041439056396
1781678029845848800,20.666848876953125,1.9262222051620483,-5.191228866577148,-0.1746760457754135
1781678029942893300,20.763893310546877,4.449453830718994,-16.186248779296875,-0.8458628058433533
1781678030001120500,20.82212060546875,-1.750349760055542,-16.753347396850586,4.275974273681641
1781678030098165200,20.919165283203125,-1.9226330518722534,-9.389435768127441,-0.4570291340351105
1781678030195209700,21.016209716796876,3.3607194423675537,-7.727620601654053,-1.0923235416412354
1781678030253436700,21.074436767578124,-3.504288673400879,-7.694121360778809,-1.28255295753479
1781678030350481400,21.1714814453125,0.6616154313087463,-7.934599876403809,2.251646041870117
1781678030447526100,21.268526123046875,0.5826523303985596,-13.201202392578125,2.1583259105682373
1781678030544571000,21.36557080078125,-1.7312071323394775,-8.982656478881836,-1.978864312171936
1781678030602797600,21.423797607421875,-1.1868400573730469,-7.865208148956299,-1.4787644147872925
1781678030699842300,21.52084228515625,-4.064209461212158,-9.8871431350708,5.325226783752441
1781678030796887000,21.617886962890626,-0.4163511395454407,-6.504888534545898,-1.5672988891601562
1781678030893931500,21.714931640625,3.142972469329834,-5.819344520568848,2.0279171466827393
1781678030952158500,21.773158447265626,2.3365912437438965,-16.649259567260742,-0.6711867451667786
1781678031049203200,21.870203125,-1.3256237506866455,-10.381260871887207,-0.8889335989952087
1781678031146247700,21.96724755859375,-0.7417750358581543,-11.248659133911133,-4.636094093322754
1781678031204474400,22.025474365234373,2.871387243270874,-6.662814617156982,-0.914058268070221
1781678031301519400,22.122519287109377,-0.6580262184143066,-7.8424763679504395,0.9236295223236084
1781678031398563800,22.219563720703125,1.6402798891067505,-7.055237770080566,2.090130567550659
1781678031495608600,22.316608642578124,-0.4941178858280182,-13.348361015319824,0.3074777126312256
1781678031553835300,22.374835205078124,-1.3818551301956177,-7.465606689453125,-0.24167509377002716
1781678031650879700,22.471879638671876,-4.315455436706543,-19.074386596679688,4.335794448852539
1781678031747924500,22.568924560546876,2.6189444065093994,-7.95134973526001,-1.0839486122131348
1781678031844969000,22.665968994140623,0.7621139883995056,-5.057230472564697,-1.9453648328781128
1781678031903196000,22.72419580078125,2.187039852142334,-7.618747234344482,2.0027925968170166
1781678032000240600,22.82124072265625,2.843869686126709,-11.72722339630127,7.557730197906494
1781678032097285000,22.91828515625,0.833898663520813,-6.361319065093994,0.4989035129547119
1781678032194329600,23.01532958984375,1.5541383028030396,-10.108479499816895,-4.31306266784668
1781678032252556500,23.073556640625,-0.8470591902732849,-6.8482584953308105,0.37088751792907715
1781678032349601000,23.17060107421875,0.137587308883667,-7.237092018127441,1.4321043491363525
1781678032446645800,23.267645751953125,2.449054002761841,-10.036694526672363,1.3854442834854126
1781678032504872400,23.32587255859375,-0.11724831163883209,-12.277572631835938,3.6119658946990967
1781678032601917000,23.4229169921875,-2.510071039199829,-9.695717811584473,-2.008774518966675
1781678032698961700,23.519961669921877,-4.590630054473877,-12.483355522155762,5.218746185302734
1781678032796006100,23.617006103515624,1.1114661693572998,-7.29093074798584,-1.561316728591919
1781678032854233000,23.675233154296876,1.290927767753601,-5.62672233581543,-2.2396819591522217
1781678032951277600,23.772277587890624,0.9212366938591003,-16.44826316833496,-1.2418749332427979
1781678033048322000,23.869322021484376,-7.781459331512451,-17.01775550842285,-0.3565305769443512
1781678033106548700,23.927548828125,-2.2169501781463623,-9.250652313232422,-0.43190449476242065
1781678033203593500,24.024593505859375,1.648654818534851,-7.429714202880859,-3.436093330383301
1781678033300638000,24.121637939453127,-1.454836130142212,-9.33320426940918,-1.8197416067123413
1781678033397682200,24.21868212890625,1.0169496536254883,-7.184450149536133,1.4632110595703125
1781678033455909000,24.2769091796875,1.8089739084243774,-11.648261070251465,1.1736794710159302
1781678033552953600,24.37395361328125,-1.0959128141403198,-12.66162109375,-0.6101697683334351
1781678033649998300,24.470998291015626,-1.8305093050003052,-11.670992851257324,-3.9804604053497314
1781678033708225000,24.52922509765625,-5.61954402923584,-15.444474220275879,4.614558696746826
1781678033805269500,24.62626953125,-0.1495514214038849,-6.557530403137207,-1.506281852722168
1781678033902314000,24.72331396484375,2.8869404792785645,-3.817748546600342,0.7465606927871704
1781678033999358500,24.8203583984375,3.6059837341308594,-15.63829231262207,1.2263215780258179
1781678034057585000,24.8785849609375,-1.3268201351165771,-16.112071990966797,2.376072883605957
1781678034154629600,24.975629638671876,-1.3639088869094849,-10.03549861907959,-2.400001049041748
1781678034251674000,25.072674072265624,2.1092731952667236,-6.355337142944336,0.3278166949748993
1781678034348718600,25.169718505859375,-0.6951149702072144,-8.568697929382324,1.179661512374878
1781678034406945300,25.2279453125,0.40677985548973083,-7.818548202514648,3.3547372817993164
1781678034503989800,25.32498974609375,1.2801600694656372,-13.765908241271973,0.698704183101654
1781678034601034200,25.4220341796875,-1.6079767942428589,-9.31047248840332,-0.9332008361816406
1781678034659261000,25.480260986328126,-2.4047868251800537,-8.609375953674316,-2.8761727809906006
1781678034756305400,25.577305419921874,-4.078566074371338,-11.085947036743164,5.782256126403809
1781678034853350000,25.674349853515626,1.2897313833236694,-6.324230194091797,-1.8891334533691406
1781678034950394400,25.771394287109374,3.765106439590454,-4.304687976837158,3.425325632095337
1781678035008620800,25.829620849609373,2.4598217010498047,-20.32343864440918,-0.381655216217041
1781678035105665500,25.92666552734375,-1.231107234954834,-14.766108512878418,-4.657629489898682
1781678035202710000,26.0237099609375,0.6891329288482666,-11.587244033813477,-2.530410051345825
1781678035299754200,26.120754150390624,-4.722235679626465,-6.660421848297119,-0.47258245944976807
1781678035357981200,26.178981201171876,0.6005984544754028,-7.037291526794434,-0.8243274092674255
1781678035455025400,26.276025390625,1.0085747241973877,-8.557929992675781,3.8524444103240967
1781678035552070000,26.37306982421875,-0.2907279431819916,-13.410574913024902,0.6281159520149231
1781678035649114000,26.470114013671875,-3.4025938510894775,-6.937989234924316,1.561316728591919
1781678035707341000,26.528341064453127,-3.5952160358428955,-12.495320320129395,-4.59421968460083
1781678035804385500,26.625385498046874,3.6873397827148438,-7.083951473236084,5.831308841705322
1781678035901429800,26.7224296875,1.1629117727279663,-5.461617469787598,-2.1032910346984863
1781678035959656400,26.780656494140626,3.0544381141662598,-3.2614171504974365,-0.2871387302875519
1781678036056701000,26.877700927734374,4.051048755645752,-17.314464569091797,-1.2729816436767578
1781678036153745200,26.9747451171875,1.0671988725662231,-7.658228874206543,-0.40319061279296875
1781678036250789400,27.071789306640625,-0.13639089465141296,-10.906485557556152,-5.459224700927734
1781678036309016300,27.130016357421876,0.8817551732063293,-7.546962738037109,-0.34576287865638733
1781678036406060800,27.227060791015624,0.14715859293937683,-7.259823799133301,0.04666004329919815
1781678036503105000,27.32410498046875,1.0815558433532715,-7.767102241516113,3.294916868209839
1781678036600149200,27.421149169921875,0.18305093050003052,-14.118849754333496,1.0001999139785767
1781678036658376000,27.4793759765625,-3.436093330383301,-6.593422889709473,0.16031911969184875
1781678036755420200,27.576420166015627,-4.516452789306641,-20.09133529663086,2.5495524406433105
1781678036852465000,27.67346484375,2.520838737487793,-6.252445697784424,3.6610186100006104
1781678036910691300,27.73169140625,2.304288148880005,-5.50229549407959,-3.245863914489746
1781678037007735800,27.82873583984375,-2.231307029724121,-11.431710243225098,3.9876389503479004
1781678037104780000,27.925780029296874,-1.5278172492980957,-14.989837646484375,6.040680885314941
1781678037163006500,27.98400634765625,-0.003589233849197626,-11.273783683776855,-2.695514678955078
1781678037221233200,28.042233154296873,-1.3710874319076538,-9.34277629852295,-0.778863787651062
1781678037318277400,28.13927734375,1.2526426315307617,-7.477570533752441,-0.4905286431312561
1781678037415321900,28.23632177734375,0.10049854964017868,-7.916653633117676,-0.3840480446815491
1781678037512366300,28.333366455078124,0.3074777126312256,-7.629515171051025,5.1050872802734375
1781678037570592800,28.3915927734375,-0.26440688967704773,-14.155939102172852,2.702693223953247
1781678037667637000,28.488636962890624,-1.9202401638031006,-8.650053977966309,-1.389033555984497
1781678037764681500,28.585681396484375,-4.600201606750488,-21.79143524169922,-1.683350682258606
1781678037861725700,28.6827255859375,2.6356940269470215,-6.502495765686035,5.2941203117370605
1781678037919952400,28.740952392578127,1.466800332069397,-6.20219612121582,-4.308277130126953
1781678038016996600,28.83799658203125,1.3316057920455933,-5.803791522979736,2.812762975692749
1781678038114040800,28.935040771484374,1.5900306701660156,-14.06979751586914,7.270591735839844
1781678038211085000,29.0320849609375,-1.872383713722229,-7.797012805938721,1.542174220085144
1781678038269311700,29.090311767578125,0.849452018737793,-10.465009689331055,-4.7234320640563965
1781678038366356000,29.18735595703125,-3.442075490951538,-6.792026996612549,-1.0492527484893799
1781678038463400200,29.284400146484376,-0.12442677468061447,-7.8903326988220215,2.0470597743988037
1781678038521627000,29.342626953125,-0.010767702013254166,-8.910871505737305,4.321437835693359
1781678038618671000,29.439671142578124,0.2835494875907898,-15.716058731079102,-0.9032905697822571
1781678038715715300,29.53671533203125,-3.5712878704071045,-8.277970314025879,0.02392822690308094
1781678038812759600,29.633759521484375,-2.967100143432617,-11.485548973083496,5.076373100280762
1781678038870986000,29.691986083984375,2.4430718421936035,-6.902096748352051,5.5692949295043945
1781678038968030500,29.789030517578126,3.2745778560638428,-4.967499732971191,-2.8390841484069824
1781678039065074700,29.88607470703125,-1.4919248819351196,-17.89352798461914,0.7812566161155701
1781678039123301000,29.944301025390626,4.878965377807617,-12.788440704345703,6.897311210632324
1781678039220345300,30.041345458984374,1.124626636505127,-6.776473522186279,-2.4538395404815674
1781678039278572000,30.099572021484374,-1.7012969255447388,-11.276176452636719,-3.462414264678955
1781678039336798500,30.157798583984373,1.6582261323928833,-7.332805156707764,-2.902493953704834
1781678039433842700,30.2548427734375,-0.7752745151519775,-8.788837432861328,-1.6785650253295898
1781678039530887200,30.35188720703125,0.22492532432079315,-7.820940971374512,4.232903480529785
1781678039627931100,30.44893115234375,-0.5180460810661316,-14.709877014160156,2.6249263286590576
1781678039686157600,30.507157470703124,-2.895315408706665,-9.06401252746582,-0.6903293132781982
1781678039783202000,30.6042021484375,-3.64546537399292,-19.101903915405273,-0.08973085135221481
1781678039880246000,30.70124609375,4.1419758796691895,-4.711467742919922,3.050848960876465
1781678039977290200,30.798290283203126,1.5864413976669312,-5.24626350402832,-1.0923235416412354
1781678040035517000,30.856516845703126,1.3878371715545654,-5.804987907409668,1.8735800981521606
1781678040132561200,30.95356103515625,3.1549365520477295,-11.179266929626465,8.37009334564209
1781678040229605400,31.05060546875,1.1497513055801392,-6.071787357330322,-0.6999006271362305
1781678040287831600,31.10883154296875,-0.7513462901115417,-11.935399055480957,-3.1453654766082764
1781678040384875800,31.205875732421877,-2.5770699977874756,-6.91765022277832,2.761317253112793
1781678040481920000,31.302919921875,0.4486542344093323,-7.105486869812012,1.337587833404541
1781678040578964200,31.399964111328124,2.638087034225464,-9.856036186218262,1.2490534782409668
1781678040637191000,31.45819091796875,0.0323031060397625,-14.288740158081055,0.5970092415809631
1781678040734235000,31.55523486328125,-3.019742250442505,-10.884950637817383,-1.1629117727279663
1781678040831279000,31.652279052734375,-1.4811571836471558,-10.882556915283203,3.0245277881622314
1781678040928323000,31.749322998046875,0.7238288521766663,-5.3934221267700195,-0.7393822073936462
1781678040986549800,31.8075498046875,3.019742250442505,-4.187439441680908,-2.2169501781463623
1781678041083593700,31.90459375,-0.8685946464538574,-20.13201332092285,-0.3361915946006775
1781678041180638000,32.001637939453126,-3.6681971549987793,-16.53081512451172,-2.26959228515625
1781678041238864400,32.05986450195312,-1.5517455339431763,-8.719446182250977,-1.1928220987319946
1781678041335908600,32.15690869140625,1.5864413976669312,-7.568498134613037,-2.359323024749756
1781678041432952800,32.25395288085937,-0.363709032535553,-7.161718368530273,-2.2360928058624268
1781678041529996800,32.35099682617187,0.05503492057323456,-8.037490844726562,5.20678186416626
1781678041588223200,32.40922314453125,2.252842426300049,-12.721441268920898,1.4452649354934692
1781678041685267500,32.506267333984376,-0.9020941257476807,-11.850454330444336,-0.26919254660606384
1781678041782311400,32.6033115234375,-1.566102385520935,-14.419149398803711,-4.383651256561279
1781678041879355400,32.70035546875,1.7120646238327026,-7.255038261413574,5.420939922332764
1781678041937582000,32.75858203125,0.31106695532798767,-5.343173027038574,-0.09930214285850525
1781678042034626300,32.85562622070312,2.8139593601226807,-4.645665168762207,-0.19621145725250244
1781678042131670300,32.95267016601562,6.711867332458496,-13.432109832763672,5.880361557006836
1781678042189896400,33.010896484375,-2.623729944229126,-16.102500915527344,0.21415762603282928
1781678042286941000,33.10794091796875,-0.8542376756668091,-11.568100929260254,-3.212364435195923
1781678042383985000,33.20498486328125,-0.7645068168640137,-7.107879638671875,0.3326023519039154
1781678042481029000,33.302029052734376,-0.6604190468788147,-6.654439926147461,0.6209374666213989
1781678042539255600,33.36025561523437,1.0552347898483276,-6.725028038024902,3.9290146827697754
1781678042636299500,33.45729956054687,0.24047867953777313,-14.732608795166016,2.455035924911499
1781678042733343500,33.55434350585937,-4.269991874694824,-7.865208148956299,0.12323036789894104
1781678042830387500,33.65138745117188,-4.668396949768066,-15.579668045043945,3.6681971549987793
1781678042888614100,33.7096142578125,0.973878800868988,-6.468996047973633,4.711467742919922
1781678042985658000,33.806658203125,1.7252250909805298,-5.298905849456787,-2.283949136734009
1781678043082702000,33.9037021484375,-4.498506546020508,-14.462220191955566,3.4444682598114014
1781678043140928500,33.96192846679688,7.048058986663818,-12.524033546447754,6.07896614074707
1781678043237972500,34.05897241210938,-0.04666004329919815,-9.961320877075195,-1.423729419708252
1781678043335016400,34.156016357421876,-0.6628118753433228,-9.982855796813965,-4.490131855010986
1781678043432060700,34.25306079101563,-3.159722328186035,-6.382854461669922,-1.397408366203308
1781678043490287000,34.311287109375,0.36251261830329895,-7.787441253662109,0.3900300860404968
1781678043587331000,34.4083310546875,2.2241287231445312,-8.725427627563477,2.2648067474365234
1781678043684375000,34.505375,-1.4895321130752563,-14.285151481628418,-0.14356936514377594
1781678043781419000,34.6024189453125,-2.8522446155548096,-11.860025405883789,-4.7712883949279785
1781678043839645400,34.6606455078125,-4.764110088348389,-15.321243286132812,3.5341989994049072
1781678043936689400,34.757689453125,2.1607189178466797,-7.622336387634277,0.8781659007072449
1781678044033733600,34.854733642578125,2.794816732406616,-4.36809778213501,0.17946170270442963
1781678044091959800,34.91295971679688,-2.8486554622650146,-11.032109260559082,3.376272678375244
1781678044189003800,35.010003662109376,-2.909672260284424,-15.036497116088867,5.002195835113525
1781678044286048000,35.10704809570313,-1.6211373805999756,-8.96949577331543,-1.4404792785644531
1781678044383092000,35.20409204101563,1.5840486288070679,-6.232106685638428,-2.0267207622528076
1781678044441318100,35.26231811523437,-2.985046148300171,-7.51585578918457,-0.397208571434021
1781678044538362000,35.35936206054687,0.6137589812278748,-7.082755088806152,3.1094729900360107
1781678044635406300,35.45640625,1.3794622421264648,-13.438092231750488,4.6408796310424805
1781678044771267600,35.592267578125,-1.9692929983139038,-8.816354751586914,-2.988635540008545
1781678044829494300,35.65049438476562,-2.827120065689087,-18.71187400817871,0.0011964113218709826
1781678044887720700,35.708720703125,-0.009571290574967861,-7.8903326988220215,4.797609329223633
1781678044984764400,35.80576440429687,1.5170495510101318,-5.2630133628845215,-1.5780665874481201
1781678045081808400,35.90280834960937,-0.2153540402650833,-7.4464640617370605,3.267399311065674
1781678045140034800,35.961034912109376,6.08614444732666,-15.803397178649902,1.0408778190612793
1781678045237078800,36.058078857421876,0.885344386100769,-9.627521514892578,-2.4574289321899414
1781678045334122800,36.155122802734375,-0.3888336718082428,-11.181660652160645,-4.852644443511963
1781678045392349200,36.21334912109375,1.954936146736145,-6.082555294036865,-0.8733802437782288
1781678045489393200,36.31039306640625,-0.605384111404419,-8.100900650024414,0.623330295085907
1781678045586436900,36.407436767578126,1.4093725681304932,-7.318448066711426,1.0157532691955566
1781678045683480800,36.504480712890626,-0.25363919138908386,-13.812568664550781,1.8711873292922974
1781678045741707000,36.56270703125,-3.656233072280884,-7.659425258636475,-0.23330020904541016
1781678045838751200,36.65975122070312,-3.438486099243164,-20.16312026977539,3.0723843574523926
1781678045935795000,36.756794921875,3.136990547180176,-5.529813289642334,2.1846470832824707
1781678046032839000,36.8538388671875,2.2851455211639404,-4.744967460632324,-1.7670994997024536
1781678046091065300,36.9120654296875,0.2967100143432617,-7.634300708770752,2.379662036895752
1781678046188109300,37.009109375,0.8841479420661926,-12.9954195022583,5.528616905212402
1781678046285153000,37.10615307617188,0.02392822690308094,-9.052047729492188,-2.7661030292510986
1781678046343379500,37.16437939453125,-1.2382856607437134,-10.3621187210083,-4.2245283126831055
1781678046440423400,37.26142333984375,-2.317448616027832,-6.8243303298950195,0.07178468257188797
1781678046537467100,37.35846704101562,1.2167502641677856,-6.378068923950195,3.322434186935425
1781678046634511000,37.45551098632812,2.3952155113220215,-12.88654613494873,3.0077781677246094
1781678046692737500,37.513737548828125,0.6628118753433228,-14.097314834594727,0.98703932762146
1781678046789781200,37.61078125,-1.9728822708129883,-9.360722541809082,-2.8725836277008057
1781678046886825200,37.7078251953125,-2.025524377822876,-9.723235130310059,4.622933387756348
1781678046945051400,37.766051513671876,2.421536445617676,-5.791827201843262,3.1178479194641113
1781678047042095400,37.863095458984375,1.801795482635498,-5.0943193435668945,-1.2047861814498901
1781678047139139000,37.96013916015625,2.2337000370025635,-18.40559196472168,0.08135596662759781
1781678047236183300,38.057183349609375,-2.0542383193969727,-12.630514144897461,-0.46061834692955017
1781678047294409500,38.115409423828126,-0.3601198196411133,-9.921838760375977,-1.4536397457122803
1781678047391453400,38.212453369140626,1.5409778356552124,-5.997610092163086,-1.3100703954696655
1781678047488497200,38.3094970703125,-1.1222338676452637,-7.92861795425415,-0.09810572862625122
1781678047585540900,38.40654077148437,1.3986048698425293,-8.890532493591309,4.051048755645752
1781678047643767300,38.464767333984376,1.0289137363433838,-13.751551628112793,2.0542383193969727
1781678047740811000,38.56181103515625,-2.4047868251800537,-8.117650985717773,-1.2502498626708984
1781678047837854700,38.658854736328124,-3.2937204837799072,-18.9379940032959,1.8664016723632812
1781678047934898700,38.75589868164062,1.0947163105010986,-6.178267955780029,2.827120065689087
1781678047993125000,38.814125,1.8807586431503296,-5.478367328643799,-3.1405797004699707
1781678048090168800,38.9111689453125,-1.1210373640060425,-7.086344242095947,2.93001127243042
1781678048187212800,39.008212890625,-0.364905446767807,-15.614364624023438,5.053641319274902
1781678048284256500,39.10525659179687,-0.5515456199645996,-6.99541711807251,-0.5970092415809631
1781678048342482700,39.163482666015625,-0.5359922647476196,-12.002398490905762,-3.572484254837036
1781678048439526400,39.2605263671875,-2.950350284576416,-7.289734363555908,-0.09810572862625122
1781678048536570600,39.357570556640624,0.5216353535652161,-6.38883638381958,2.1403799057006836
1781678048594796800,39.415796875,1.275374412536621,-8.882157325744629,2.641676187515259
1781678048691840500,39.512840576171875,0.064606212079525,-13.99801254272461,0.9104689955711365
1781678048788884200,39.60988427734375,-1.6426727771759033,-10.37767219543457,-1.703689694404602
1781678048885928000,39.70692797851562,-0.08973085135221481,-9.397810935974121,4.6648077964782715
1781678048944154400,39.765154296875,-0.698704183101654,-6.436692714691162,2.5663022994995117
1781678049041198000,39.862197998046874,2.1128623485565186,-4.634897232055664,-0.9415757060050964
1781678049138242000,39.95924194335937,2.641676187515259,-19.39023780822754,0.37806597352027893
1781678049235285500,40.05628540039063,-8.997013092041016,-20.902502059936523,-0.8446664214134216
1781678049293512000,40.114511962890624,-0.35533416271209717,-7.1234331130981445,-1.6055840253829956
1781678049390555600,40.2115556640625,1.2131611108779907,-6.317051887512207,-2.66560435295105
1781678049487599400,40.30859936523437,-0.48574298620224,-8.142775535583496,-2.0578274726867676
1781678049545825800,40.36682568359375,0.4366901218891144,-6.758527755737305,4.776073932647705
1781678049642869500,40.46386938476562,1.6079767942428589,-13.069597244262695,3.221935749053955
1781678049739913200,40.56091333007812,-3.6741790771484375,-8.256434440612793,-0.07537391036748886
1781678049836957000,40.65795703125,-4.327419757843018,-18.370895385742188,4.039084434509277
1781678049895183400,40.71618334960937,2.0997018814086914,-6.580262184143066,4.995017051696777
1781678049992227000,40.81322705078125,1.667797327041626,-5.30847692489624,-2.379662036895752
1781678050089270800,40.91027075195313,-0.4570291340351105,-7.245467185974121,2.1056840419769287
1781678050147497000,40.9684970703125,5.260620594024658,-16.597814559936523,1.5134602785110474
1781678050244540700,41.06554077148437,-3.9194436073303223,-17.96172332763672,-6.025127410888672
1781678050341584400,41.16258447265625,0.2548356056213379,-9.882357597351074,-5.020142078399658
1781678050496854500,41.3178544921875,2.0231316089630127,-5.595615863800049,0.9427721500396729
1781678050593898200,41.41489819335938,1.2849457263946533,-9.993623733520508,0.9056833982467651
1781678050690942000,41.51194189453125,1.058824062347412,-13.250255584716797,2.6596224308013916
1781678050787985700,41.608985595703125,-0.9236295223236084,-8.775676727294922,-3.414557933807373
1781678050846211800,41.6672119140625,-5.401797294616699,-20.805593490600586,4.494917392730713
1781678050943255600,41.764255615234376,2.6524438858032227,-6.267998695373535,1.29810631275177
1781678051040299300,41.86129931640625,2.420340061187744,-4.681557655334473,-1.31365966796875
1781678051098525700,41.91952563476563,-1.3160524368286133,-8.662017822265625,2.2755744457244873
1781678051195569400,42.0165693359375,-3.0520453453063965,-15.683755874633789,3.524627685546875
1781678051292612900,42.11361279296875,-0.7513462901115417,-7.99800968170166,-0.02871387079358101
1781678051389656600,42.21065649414062,1.7383856773376465,-6.8518476486206055,-1.3268201351165771
1781678051447882800,42.2688828125,-1.576870083808899,-7.128218650817871,-0.27397820353507996
1781678051544926500,42.36592651367187,1.022931694984436,-6.419943332672119,1.9956140518188477
1781678051641970200,42.46297021484375,2.262413740158081,-12.17109203338623,1.2921242713928223
1781678051739014000,42.56001391601563,-2.4466612339019775,-10.401599884033203,-1.9525432586669922
1781678051797240000,42.61823999023437,-1.490728497505188,-10.249655723571777,-2.8043880462646484
1781678051894283800,42.71528369140625,-0.9367900490760803,-8.26121997833252,5.234299659729004
1781678051991327500,42.812327392578126,0.6831508874893188,-5.5968122482299805,-1.6965112686157227
1781678052049553700,42.8705537109375,3.074777126312256,-5.107480049133301,-0.19740787148475647
1781678052146597400,42.96759741210938,5.027320384979248,-16.691133499145508,0.9032905697822571
1781678052243641000,43.06464111328125,-4.436293125152588,-14.592628479003906,-2.9288148880004883
1781678052340684500,43.1616845703125,-0.9858429431915283,-11.528619766235352,-3.8775691986083984
1781678052398910700,43.21991064453125,1.262213945388794,-7.196413993835449,-0.6376872062683105
1781678052495954700,43.31695458984375,-1.0911271572113037,-7.530212879180908,-0.27756741642951965
1781678052592998100,43.413998046875,1.1497513055801392,-9.014959335327148,3.211168050765991
1781678052651224300,43.472224365234375,0.45583271980285645,-14.086546897888184,3.4002010822296143
1781678052748268000,43.56926806640625,-4.130012035369873,-9.357132911682129,-1.1413763761520386
1781678052845311700,43.66631176757812,-5.867201328277588,-18.86381721496582,3.9768712520599365
1781678052942355200,43.76335522460938,1.5936198234558105,-6.258427619934082,2.1822543144226074
1781678053000581400,43.82158129882812,1.8831514120101929,-4.869394302368164,-1.1892328262329102
1781678053097625000,43.918625,-0.8398807644844055,-8.559126853942871,3.3535408973693848
1781678053194668800,44.015668701171876,-2.82951283454895,-17.316858291625977,5.639883041381836
1781678053291712500,44.11271240234375,-1.7180466651916504,-9.364311218261719,-0.3326023519039154
1781678053349938400,44.1709384765625,-0.15194423496723175,-10.668399810791016,-4.613361835479736
1781678053408164600,44.22916455078125,0.05623133108019829,-6.613761901855469,1.688136339187622
1781678053505208300,44.326208251953126,-1.4273186922073364,-7.04207706451416,1.3256237506866455
1781678053602252000,44.423251953125,1.5050854682922363,-8.455039024353027,4.078566074371338
1781678053699295500,44.52029541015625,1.2729816436767578,-14.878571510314941,1.3782658576965332
1781678053796339200,44.61733911132813,-1.1318050622940063,-7.57806921005249,-0.7166503667831421
1781678053854565400,44.6755654296875,-1.978864312171936,-22.48655128479004,1.5912270545959473
1781678053951609000,44.77260913085937,3.377469062805176,-6.571887493133545,2.6560330390930176
1781678054048652500,44.86965258789063,2.5567309856414795,-4.201796531677246,-1.207179069519043
1781678054145696300,44.9666962890625,0.18544375896453857,-18.984655380249023,1.5146567821502686
1781678054203922400,45.02492236328125,-0.6915257573127747,-13.013365745544434,5.20678186416626
1781678054300966000,45.1219658203125,-1.0671988725662231,-7.4500532150268555,-1.3519448041915894
1781678054398009300,45.21900927734375,0.9607182741165161,-7.642675399780273,-2.9766714572906494
1781678054456235500,45.277235595703125,-3.1345977783203125,-7.026523590087891,0.8207381963729858
1781678054553279200,45.374279296875,0.9942178130149841,-6.367300987243652,2.1332013607025146
1781678054650322700,45.47132275390625,2.999403238296509,-11.357532501220703,0.9439685344696045
1781678054747366400,45.56836645507813,-2.441875457763672,-10.953145980834961,-0.867398202419281
1781678054805592300,45.62659228515625,-1.3435698747634888,-10.107282638549805,-1.3830515146255493
1781678054902636000,45.72363598632813,-2.6081767082214355,-11.191231727600098,3.933800458908081
1781678054999679500,45.820679443359374,1.2143574953079224,-4.9399824142456055,-0.7441678643226624
1781678055096723200,45.91772314453125,2.073380708694458,-3.7531423568725586,-0.1986042857170105
1781678055154949000,45.97594921875,1.5996019840240479,-19.96810531616211,-0.07417750358581543
1781678055251992800,46.07299291992187,-5.959324836730957,-21.68256187438965,-3.799802303314209
1781678055349036500,46.17003662109375,-0.33020952343940735,-12.904492378234863,-4.931607246398926
1781678055407262500,46.22826245117187,0.8003991842269897,-7.582854747772217,-1.1126625537872314
1781678055504306000,46.32530590820313,0.040677983313798904,-7.341179847717285,0.02512463741004467
1781678055601349600,46.422349609375,0.8231309652328491,-6.91765022277832,1.7670994997024536
1781678055698393000,46.51939306640625,0.7357929348945618,-13.61635684967041,2.796013355255127
1781678055756619300,46.577619384765626,-3.229114055633545,-8.725427627563477,0.7022934556007385
1781678055853662700,46.674662841796874,-3.783052682876587,-15.985251426696777,1.573280930519104
1781678055950706200,46.7717060546875,1.832902193069458,-5.745167255401611,2.33180570602417
1781678056008932600,46.8299326171875,1.932204246520996,-4.823930263519287,-2.66560435295105
1781678056105976000,46.92697607421875,0.259621262550354,-7.269395351409912,1.9405791759490967
1781678056203019500,47.02401953125,-1.887937068939209,-16.90289878845215,5.532206058502197
1781678056300063000,47.12106298828125,0.12801600992679596,-9.365508079528809,-1.7886348962783813
1781678056358289200,47.1792890625,-0.2799602448940277,-9.810572624206543,-3.4672000408172607
1781678056455332600,47.27633251953125,-1.7132610082626343,-7.322037220001221,-1.5984054803848267
1781678056552376000,47.3733759765625,1.0265209674835205,-5.863611698150635,2.416750907897949
1781678056649419500,47.47041943359375,2.2671995162963867,-12.108879089355469,3.403790235519409
1781678056707645700,47.52864575195313,0.5228317379951477,-12.65324592590332,-0.05144568532705307
1781678056804689200,47.625689208984376,-3.9038901329040527,-22.145572662353516,-4.041477680206299
1781678056901732600,47.722732666015624,0.5599204897880554,-6.033502101898193,4.054637908935547
1781678056959958800,47.780958740234375,1.0217353105545044,-4.945964336395264,-0.7800601720809937
1781678057057002200,47.87800219726562,1.4500504732131958,-3.647858142852783,-0.2632105052471161
1781678057154045700,47.97504565429688,6.104090690612793,-14.79841136932373,3.269792079925537
1781678057251089200,48.072089111328125,-3.084348440170288,-10.219745635986328,1.3483555316925049
1781678057309315300,48.1303154296875,-0.6089733839035034,-14.407185554504395,-8.015955924987793
1781678057406358800,48.22735888671875,-4.091726779937744,-6.966702938079834,-0.5443671345710754
1781678057503402200,48.32440234375,0.9918249845504761,-5.023731231689453,0.09690931439399719
1781678057600445700,48.42144580078125,1.5469598770141602,-13.061222076416016,3.762713670730591
1781678057658671900,48.479671875,1.568495273590088,-13.186845779418945,2.2947168350219727
1781678057755715300,48.57671533203125,-4.04985237121582,-10.521241188049316,-3.4265220165252686
1781678057852758800,48.6737587890625,-0.7058826684951782,-9.830911636352539,3.570091485977173
1781678057910985000,48.73198486328125,0.6771687865257263,-7.513463020324707,3.724428415298462
1781678058008028400,48.8290283203125,2.392822742462158,-2.5986053943634033,0.35054850578308105
1781678058105071900,48.92607177734375,1.6654045581817627,-23.82054901123047,1.3423734903335571
1781678058202115300,49.023115234375,1.7216359376907349,-9.562915802001953,-1.690529227256775
1781678058260341200,49.08134130859375,-1.3710874319076538,-16.095321655273438,-5.464010715484619
1781678058357384700,49.178384765625,-0.02273181453347206,-7.872386455535889,0.22013968229293823
1781678058454428200,49.27542822265625,1.5984054803848267,-5.807380676269531,1.6031911373138428
1781678058512654300,49.333654296875,0.9188438653945923,-6.927221775054932,2.352144718170166
1781678058609697800,49.43069775390625,1.1365907192230225,-13.933405876159668,5.748756408691406
1781678058706741200,49.5277412109375,-4.981856822967529,-8.922835350036621,0.8099704384803772
1781678058803784700,49.62478466796875,-4.348955154418945,-17.596817016601562,2.7984061241149902
1781678058862010600,49.6830107421875,0.4414757788181305,-7.0887370109558105,3.5569307804107666
1781678058959054000,49.78005419921875,2.021935224533081,-5.392225742340088,0.7250252366065979
1781678059056097500,49.87709765625,-0.7393822073936462,-6.81595516204834,4.762913703918457
1781678059153141000,49.97414111328125,-3.2542388439178467,-12.524033546447754,3.372683525085449
1781678059211367000,50.03236694335938,-3.1214370727539062,-12.595818519592285,-0.9619147181510925
1781678059308410600,50.12941064453125,1.2658032178878784,-9.882357597351074,-5.905486106872559
1781678059405453800,50.22645385742187,-1.5302101373672485,-7.460821151733398,0.24406790733337402
1781678059502497300,50.32349731445313,1.6713865995407104,-5.815755367279053,2.486142635345459
1781678059560723500,50.38172338867187,0.05383851006627083,-10.219745635986328,3.52103853225708
1781678059657766700,50.4787666015625,0.24167509377002716,-11.680563926696777,1.9884356260299683
1781678059754810000,50.57581005859375,-2.1954147815704346,-12.55872917175293,-5.26899528503418
1781678059813036300,50.63403637695313,-6.208178520202637,-15.242280006408691,3.34995174407959
1781678059910079500,50.73107958984375,0.35413774847984314,-6.874579429626465,1.1222338676452637
1781678060007123000,50.828123046875,2.644068956375122,-4.161118507385254,-0.4378865361213684
1781678060104166400,50.92516650390625,9.08554744720459,-15.072389602661133,-0.5539384484291077
1781678060162392600,50.983392578125,-3.9278182983398438,-19.22991943359375,5.027320384979248
1781678060259435800,51.080435791015624,-1.5828521251678467,-12.015559196472168,-2.289931297302246
1781678060356479200,51.17747924804687,0.46061834692955017,-7.179664134979248,1.9920248985290527
1781678060414705200,51.235705078125,-1.368694543838501,-7.052844524383545,-3.0544381141662598
1781678060511748600,51.33274853515625,-0.7585247755050659,-5.02133846282959,2.3018953800201416
1781678060608792000,51.4297919921875,0.6747759580612183,-14.544772148132324,3.4612178802490234
1781678060705835300,51.52683520507812,-3.799802303314209,-8.281558990478516,0.18305093050003052
1781678060764061400,51.5850615234375,-3.5198421478271484,-18.686748504638672,-5.37906551361084
1781678060861105000,51.68210498046875,0.5515456199645996,-6.672386169433594,4.193421840667725
1781678060958148400,51.7791484375,2.6967110633850098,-4.863411903381348,-2.17627215385437
1781678061055191600,51.87619165039062,-3.6083765029907227,-13.679766654968262,4.0319061279296875
1781678061113417500,51.93441748046875,4.431507587432861,-12.39721393585205,4.961517810821533
1781678061210461000,52.0314609375,0.21655045449733734,-7.105486869812012,-1.5960127115249634
1781678061307504400,52.12850439453125,0.6089733839035034,-7.664210796356201,-4.503292083740234
1781678061404547600,52.22554760742187,-1.2765709161758423,-8.072187423706055,-2.080559253692627
1781678061462773800,52.283773681640625,0.8195417523384094,-6.382854461669922,1.26699960231781
1781678061559817000,52.38081689453125,2.8043880462646484,-12.232109069824219,2.902493953704834
1781678061656860400,52.4778603515625,-0.729810893535614,-11.724830627441406,1.2610175609588623
1781678061753903900,52.57490380859375,-1.919043779373169,-13.818551063537598,-5.759523868560791
1781678061812129800,52.6331298828125,-5.714060306549072,-14.69791316986084,3.7974095344543457
1781678061909173200,52.73017333984375,1.5864413976669312,-5.55015230178833,0.29790642857551575
1781678062006216400,52.82721655273438,3.16331148147583,-3.4983067512512207,-0.6448656916618347
1781678062064442400,52.8854423828125,-2.049452543258667,-17.781064987182617,3.071187973022461
1781678062161485800,52.98248583984375,-1.919043779373169,-15.129817962646484,4.862215518951416
1781678062258529000,53.07952905273437,-0.8841479420661926,-10.378868103027344,-2.3330020904541016
1781678062355572500,53.17657250976563,1.3710874319076538,-6.3601226806640625,0.13280165195465088
1781678062413798700,53.23479858398437,-2.416750907897949,-6.843472957611084,-1.0827522277832031
1781678062510841900,53.331841796875,1.2765709161758423,-8.09252643585205,3.951746702194214
1781678062607885300,53.42888525390625,-0.7692924737930298,-15.418152809143066,2.7385854721069336
1781678062704928500,53.52592846679688,-3.482753276824951,-6.485745906829834,-0.3206382393836975
1781678062763154400,53.58415454101562,-2.108076810836792,-13.581661224365234,-6.1363935470581055
1781678062860198000,53.681197998046876,3.2410783767700195,-6.38883638381958,4.646861553192139
1781678062957241000,53.77824096679687,1.8664016723632812,-4.948357105255127,-2.693121910095215
1781678063015467000,53.836467041015624,1.7742780447006226,-5.278566837310791,-0.6592226624488831
1781678063112510500,53.93351049804688,4.494917392730713,-13.560126304626465,2.7050859928131104
1781678063209554000,54.030553955078126,-0.625723123550415,-9.181260108947754,-1.3100703954696655
1781678063306597000,54.12759716796875,-0.5874379873275757,-11.469995498657227,-6.106483459472656
1781678063364823000,54.18582299804687,-0.4570291340351105,-8.087740898132324,1.2837493419647217
1781678063461866500,54.28286645507813,-0.5539384484291077,-7.28255558013916,1.2370892763137817
1781678063558909700,54.37990966796875,2.307877540588379,-7.916653633117676,0.851844847202301
1781678063655953000,54.47695288085937,-0.363709032535553,-14.203795433044434,1.8795621395111084
1781678063714179000,54.53517895507812,-3.94097900390625,-6.564708709716797,-0.849452018737793
1781678063811222300,54.63222216796875,-3.7710886001586914,-17.296518325805664,2.038684844970703
1781678063908265500,54.729265380859374,1.954936146736145,-6.977470874786377,1.3866406679153442
1781678063966491400,54.787491455078126,1.3184453248977661,-5.822933673858643,-2.2408783435821533
1781678064063534800,54.88453491210937,-2.4909284114837646,-8.595019340515137,4.260420799255371
1781678064160578300,54.98157836914063,-1.4811571836471558,-15.821343421936035,6.10169792175293
1781678064257621500,55.07862158203125,-2.170290231704712,-9.657432556152344,-1.6582261323928833
1781678064315847400,55.136847412109375,-0.07657032459974289,-10.419546127319336,-4.975874900817871
1781678064412890600,55.233890625,-2.5591237545013428,-6.597012042999268,-1.5002998113632202
1781678064509934000,55.33093408203125,0.8458628058433533,-7.420143127441406,3.005385160446167
1781678064568160000,55.38915991210938,1.781456470489502,-8.127222061157227,3.198007345199585
1781678064665203200,55.486203125,0.3481557071208954,-14.9072847366333,0.6005984544754028
1781678064762246400,55.58324633789063,-1.8460626602172852,-9.343972206115723,-3.449253797531128
1781678064859289900,55.680289794921876,-1.0528420209884644,-9.031708717346191,4.887340068817139
1781678064917515800,55.73851586914063,0.6340979933738708,-7.707281589508057,2.1104695796966553
1781678065014559000,55.83555908203125,2.012363910675049,-4.347758769989014,-1.4775680303573608
1781678065111602400,55.9326025390625,2.355733871459961,-20.71227264404297,-0.09930214285850525
1781678065208645600,56.029645751953126,-4.872983455657959,-15.211174011230469,-2.8175487518310547
1781678065266871600,56.08787158203125,-2.0338993072509766,-9.694520950317383,-0.9667003750801086
1781678065363914800,56.18491479492187,2.335394859313965,-6.1603217124938965,-3.1896326541900635
1781678065460958000,56.2819580078125,0.7369893789291382,-7.929814338684082,-2.025524377822876
1781678065519184000,56.34018383789063,0.41515472531318665,-9.073583602905273,6.507281303405762
1781678065616227000,56.43722705078125,1.8747764825820923,-12.850653648376465,2.80558443069458
1781678065713270500,56.5342705078125,-2.6775684356689453,-9.908679008483887,-2.26959228515625
1781678065810313700,56.631313720703126,-3.735196113586426,-19.389041900634766,-3.239881753921509
1781678065868539600,56.68953955078125,0.29312077164649963,-8.873783111572266,7.34476900100708
1781678065965582800,56.78658276367187,1.042074203491211,-5.748756408691406,-2.6835505962371826
1781678066062626000,56.8836259765625,3.1956145763397217,-4.459024906158447,3.322434186935425
1781678066159669200,56.980669189453124,-2.3844478130340576,-14.07697582244873,4.695914268493652
1781678066217895200,57.038895263671876,-2.118844509124756,-12.485748291015625,-2.7314071655273438
1781678066314938400,57.1359384765625,-1.301695466041565,-10.037891387939453,-6.696314334869385
1781678066411981600,57.232981689453126,-4.2795634269714355,-6.625725746154785,0.4019941985607147
1781678066470207500,57.29120751953125,1.4033905267715454,-7.730013370513916,0.26440688967704773
1781678066567251000,57.3882509765625,1.8149559497833252,-8.182256698608398,2.1583259105682373
1781678066664294100,57.48529418945313,0.07896314561367035,-14.009976387023926,1.4967105388641357
1781678066761337300,57.58233740234375,-2.3700907230377197,-9.047262191772461,-2.667997360229492
1781678066819563300,57.640563232421876,-3.48993182182312,-18.15434455871582,0.061016976833343506
1781678066916606500,57.7376064453125,0.5228317379951477,-6.9068827629089355,2.9862427711486816
1781678067013650400,57.834650390625,1.3555340766906738,-5.584847927093506,-1.2813565731048584
1781678067110693600,57.931693603515626,1.4117653369903564,-20.73261260986328,0.21415762603282928
1781678067168919600,57.98991943359375,-1.6522440910339355,-15.293725967407227,4.754538536071777
1781678067265962800,58.08696264648437,-2.2205393314361572,-8.39282512664795,0.13998012244701385
1781678067363006000,58.184005859375,1.6187444925308228,-7.527820110321045,-2.242074728012085
1781678067421231900,58.24223193359375,-3.665804386138916,-7.054041385650635,-0.09092725813388824
1781678067518274800,58.33927490234375,0.04187439754605293,-6.5252275466918945,2.410768747329712
1781678067615318000,58.43631811523438,3.095116138458252,-13.339985847473145,3.157329559326172
1781678067712361200,58.533361328125,-3.0891339778900146,-9.299705505371094,-0.19980068504810333
1781678067770587100,58.591587158203126,-3.0029923915863037,-11.038090705871582,-3.6358940601348877
1781678067867630600,58.68863061523437,1.6809579133987427,-8.154739379882812,5.578866004943848
1781678067964673800,58.785673828125,1.5589239597320557,-6.0741801261901855,-3.0903303623199463
1781678068061716700,58.882716796875,2.812762975692749,-5.1182475090026855,1.5625132322311401
1781678068119942700,58.940942626953124,2.321038007736206,-18.28594970703125,-0.14476576447486877
1781678068216985900,59.03798583984375,-6.498906135559082,-14.519647598266602,-1.5517455339431763
1781678068314029000,59.135029052734374,-1.3902299404144287,-11.81456184387207,-5.519045352935791
1781678068372255000,59.1932548828125,2.23848557472229,-8.076972961425781,-0.8063812255859375
1781678068469298000,59.2902978515625,-0.3122633695602417,-6.896114826202393,-0.04666004329919815
1781678068566341000,59.387341064453125,0.6041877269744873,-8.58784008026123,4.563112735748291
1781678068663384600,59.48438452148437,0.5539384484291077,-14.218152046203613,2.6177480220794678
1781678068721610500,59.542610595703124,-2.6871397495269775,-9.186046600341797,-0.486939400434494
1781678068818653400,59.6396533203125,-3.067598581314087,-18.155542373657227,-4.826323509216309
1781678068915696600,59.73669653320312,3.1417760848999023,-6.522834300994873,4.577469825744629
1781678069012739800,59.83373974609375,2.4598217010498047,-5.279763221740723,-2.166700839996338
1781678069070965500,59.89196557617188,2.7661030292510986,-5.08355188369751,2.8809585571289062
1781678069168008700,59.9890087890625,3.014956474304199,-12.56112289428711,5.735595703125
1781678069265052000,60.08605200195313,0.9571290612220764,-8.793622970581055,-1.0683952569961548
1781678069323277800,60.14427783203125,-2.376072883605957,-10.905289649963379,-3.627519130706787
1781678069420320800,60.24132080078125,-2.638087034225464,-7.069594383239746,2.5076780319213867
1781678069517364000,60.33836401367188,1.932204246520996,-6.811169624328613,0.9020941257476807
1781678069614407200,60.4354072265625,2.517249345779419,-9.461220741271973,-0.4713860750198364
1781678069672633000,60.493633056640626,0.7405785918235779,-14.090136528015137,3.4791641235351562
1781678069769676000,60.59067602539063,-2.8594231605529785,-6.999006271362305,-2.389233350753784
1781678069866719200,60.68771923828125,-5.937789440155029,-13.878371238708496,3.1345977783203125
1781678069963762400,60.78476245117187,0.6699903607368469,-5.9306111335754395,0.3242274820804596
1781678070021988400,60.84298828125,2.544766902923584,-5.62672233581543,-2.4131617546081543
1781678070119031300,60.94003125,-4.273581027984619,-17.602800369262695,2.4119651317596436
1781678070216074500,61.03707446289062,-2.967100143432617,-16.677974700927734,1.5290136337280273
1781678070313117400,61.134117431640625,-1.7204394340515137,-9.714859962463379,-2.706282377243042
1781678070371343400,61.19234326171875,3.036491870880127,-8.155936241149902,-4.333401679992676
1781678070507203800,61.328203857421876,-0.13160525262355804,-8.623732566833496,1.2323036193847656
1781678070565429500,61.386429443359376,0.6867401003837585,-7.520641803741455,3.589233875274658
1781678070623655400,61.44465551757813,2.5435705184936523,-10.187442779541016,0.7417750358581543
1781678070720698600,61.54169873046875,-1.3208380937576294,-12.259626388549805,-0.8470591902732849
1781678070817741600,61.638741455078126,-4.4135613441467285,-17.623138427734375,-6.295516490936279
1781678070914784800,61.73578466796875,4.25084924697876,-5.691328525543213,5.631507873535156
1781678070973010400,61.79401049804687,0.4295116662979126,-5.936593055725098,-0.9212366938591003
1781678071070053600,61.8910537109375,2.6057839393615723,-3.466003656387329,1.9405791759490967
1781678071167096600,61.9880966796875,5.015356063842773,-12.479766845703125,4.3178486824035645
1781678071264139800,62.08513989257813,1.3088740110397339,-8.142775535583496,-2.6596224308013916
1781678071322365400,62.143365478515626,-1.9513468742370605,-11.203195571899414,-3.669393539428711
1781678071419408600,62.24040869140625,-2.675175666809082,-6.920042991638184,2.4299113750457764
1781678071516451600,62.33745166015625,0.8781659007072449,-7.0755767822265625,1.415354609489441
1781678071574677500,62.39567749023438,0.9702895879745483,-6.9930243492126465,3.8321053981781006
1781678071671720400,62.49272045898437,-0.4378865361213684,-15.087943077087402,2.912065267562866
1781678071768763600,62.589763671875,-2.4335005283355713,-7.007380962371826,-1.32921302318573
1781678071865806600,62.686806640625,-4.64805793762207,-12.439088821411133,3.4779677391052246
1781678071924032500,62.74503247070312,1.0791629552841187,-6.366104602813721,3.658625841140747
1781678072021075500,62.842075439453126,2.555534601211548,-4.657629489898682,-1.537388563156128
1781678072118118700,62.93911865234375,-1.9776679277420044,-20.153549194335938,1.32921302318573
1781678072176344300,62.99734423828125,0.9834501147270203,-12.598211288452148,5.889933109283447
1781678072273387300,63.09438720703125,-0.2548356056213379,-8.23848819732666,-1.5852450132369995
1781678072370430500,63.19143041992187,1.8388842344284058,-7.691728591918945,-3.9326040744781494
1781678072467473400,63.288473388671875,-0.5886343717575073,-7.895118236541748,-3.091526746749878
1781678072525699300,63.34669921875,1.3555340766906738,-7.755138397216797,4.273581027984619
1781678072622742300,63.4437421875,2.3605196475982666,-11.663813591003418,0.8733802437782288
1781678072719785200,63.54078515625,-1.8233308792114258,-11.887542724609375,-2.3186452388763428
1781678072816828400,63.63782836914063,-3.3690943717956543,-17.50708770751953,-4.533202648162842
1781678072875054000,63.69605419921875,-3.3714871406555176,-11.135000228881836,4.564309120178223
1781678072972097300,63.79309716796875,1.534995675086975,-5.168497085571289,-1.246660590171814
1781678073069140200,63.89014013671875,4.089334011077881,-4.258028030395508,1.7766708135604858
1781678073127366000,63.94836596679688,0.22492532432079315,-21.092731475830078,-0.3002992272377014
1781678073224408800,64.04540893554687,-4.657629489898682,-17.71526336669922,-2.4705893993377686
1781678073321452000,64.1424521484375,-0.6556333899497986,-10.875378608703613,-4.432703971862793
1781678073418495000,64.23949487304688,-2.5782663822174072,-6.957131862640381,2.853440999984741
1781678073476721000,64.29772094726563,-0.46420758962631226,-8.628518104553223,-1.0121639966964722
1781678073573763800,64.39476391601562,0.7824530005455017,-7.798209190368652,4.2831525802612305
1781678073670806800,64.49180688476562,-1.2634103298187256,-13.972887992858887,4.150351047515869
1781678073767849700,64.588849609375,-2.258824586868286,-6.97268533706665,-2.242074728012085
1781678073826075600,64.64707568359376,-3.2709884643554688,-20.640487670898438,-4.985445976257324
1781678073923118600,64.74411865234374,2.396411895751953,-5.621936798095703,4.997410297393799
1781678074020161500,64.84116162109375,2.702693223953247,-5.139782905578613,-2.6141586303710938
1781678074078387200,64.89938720703125,2.8594231605529785,-4.7401814460754395,3.1692936420440674
1781678074175430100,64.99643017578126,2.757728099822998,-14.019547462463379,5.106283664703369
1781678074272473000,65.09347314453125,-0.8769695162773132,-6.271588325500488,-1.0887342691421509
1781678074369516300,65.19051635742187,1.4871392250061035,-8.571090698242188,-3.0317063331604004
1781678074427742000,65.24874194335938,-3.924229145050049,-6.872186660766602,1.7359927892684937
1781678074524785000,65.34578491210938,0.8877372145652771,-7.16650390625,2.1367905139923096
1781678074621827800,65.44282788085937,2.926422119140625,-12.102896690368652,2.1894326210021973
1781678074718871000,65.53987109375,-3.014956474304199,-10.894521713256836,-0.9631111025810242
1781678074777096700,65.5980966796875,-2.723032236099243,-10.427921295166016,-3.7507495880126953
1781678074874139600,65.6951396484375,-1.9094724655151367,-9.408578872680664,4.156332969665527
1781678074971182600,65.7921826171875,0.7501499056816101,-5.290530681610107,-1.7790635824203491
1781678075029408300,65.850408203125,2.2396819591522217,-4.965106964111328,-1.7371892929077148
1781678075126451200,65.947451171875,3.0999016761779785,-19.341184616088867,0.2883351147174835
1781678075223494100,66.044494140625,-3.139383316040039,-13.642678260803223,-2.967100143432617
1781678075281719800,66.1027197265625,-1.7742780447006226,-8.941978454589844,-1.679761528968811
1781678075378763000,66.19976293945312,0.15194423496723175,-7.160521984100342,-0.44745782017707825
1781678075475805700,66.2968056640625,-0.3900300860404968,-7.936992645263672,0.6556333899497986
1781678075572849000,66.39384887695313,1.1940184831619263,-8.206185340881348,4.267599105834961
1781678075631074300,66.45207421875,1.4057832956314087,-14.118849754333496,3.1860432624816895
1781678075728117200,66.5491171875,-2.8773691654205322,-8.427521705627441,-1.0947163105010986
1781678075825160400,66.64616040039063,-2.1236300468444824,-17.6817626953125,-0.08135596662759781
1781678075922203100,66.743203125,5.344369411468506,-6.346961975097656,3.432504177093506
1781678075980429000,66.80142895507812,1.2873386144638062,-5.312066078186035,-2.779263496398926
1781678076077471700,66.8984716796875,0.3840480446815491,-6.930810928344727,2.700300455093384
1781678076174514700,66.9955146484375,-0.49292147159576416,-12.973884582519531,4.567898273468018
1781678076232740600,67.05374072265624,-1.9764715433120728,-12.847064971923828,-3.4672000408172607
1781678076329783300,67.150783203125,0.7262216806411743,-10.677970886230469,-5.124229907989502
1781678076426826200,67.247826171875,-3.647858142852783,-6.894918441772461,-0.1495514214038849
1781678076523869200,67.344869140625,0.43908295035362244,-6.829115867614746,2.1894326210021973
1781678076582094800,67.4030947265625,1.7455641031265259,-8.545966148376465,0.9643075466156006
1781678076679137800,67.5001376953125,0.04426721855998039,-14.187045097351074,0.6245267391204834
1781678076776180700,67.5971806640625,-2.730210542678833,-12.417552947998047,-4.043870449066162
1781678076873223700,67.6942236328125,0.5539384484291077,-7.466803073883057,5.551348686218262
1781678076931449300,67.75244946289062,1.4321043491363525,-6.289534091949463,1.6941183805465698
1781678077028492300,67.8494921875,3.0903303623199463,-3.9493536949157715,-1.3256237506866455
1781678077125535000,67.94653491210937,5.9784674644470215,-17.63629913330078,1.0612168312072754
1781678077183761000,68.00476098632812,-1.1461620330810547,-14.959927558898926,8.47178840637207
1781678077280803600,68.10180346679688,-1.5828521251678467,-7.727620601654053,-1.6869399547576904
1781678077377846500,68.19884643554687,0.9822536706924438,-7.019345283508301,-1.0432707071304321
1781678077436072200,68.257072265625,-2.7625136375427246,-8.068597793579102,-0.833898663520813
1781678077533115100,68.354115234375,0.8614161610603333,-5.173282623291016,2.5459632873535156
1781678077630157800,68.45115771484375,0.7286145091056824,-13.308879852294922,3.559323787689209
1781678077727200800,68.54820068359375,-3.85483717918396,-8.95394229888916,-0.8877372145652771
1781678077785426400,68.60642651367188,-1.8065811395645142,-11.882757186889648,-5.30847692489624
1781678077882469400,68.70346948242188,-1.6666009426116943,-8.455039024353027,5.188836097717285
1781678077979512300,68.80051220703125,1.022931694984436,-4.2987060546875,-2.2576282024383545
1781678078076555000,68.89755493164063,0.6903293132781982,-7.357929706573486,3.3846476078033447
1781678078134780700,68.95578076171876,6.612565517425537,-17.2486629486084,1.3674981594085693
1781678078231823600,69.05282373046875,-2.431107759475708,-15.074782371520996,-4.3417768478393555
1781678078328866300,69.1498662109375,-0.3290131092071533,-9.454042434692383,-4.06540584564209
1781678078425909200,69.2469091796875,-1.6821542978286743,-6.604190349578857,-0.8003991842269897
1781678078484135000,69.30513500976562,0.3613162338733673,-7.917850017547607,0.34217363595962524
1781678078619995000,69.44099487304688,1.3459627628326416,-13.378271102905273,3.0723843574523926
1781678078678220500,69.49922045898437,-0.02392822690308094,-13.72523021697998,2.8558337688446045
1781678078775263200,69.59626318359375,-1.9824535846710205,-6.833901405334473,-2.531606435775757
1781678078833489000,69.65448901367188,-1.674975872039795,-20.36052703857422,-0.7106683254241943
1781678078930531800,69.75153173828124,2.651247501373291,-6.013163089752197,4.2592244148254395
1781678079027574800,69.84857470703125,2.4047868251800537,-5.576473236083984,-2.190629243850708
1781678079085800400,69.90680053710938,-2.5567309856414795,-10.910075187683105,2.946761131286621
1781678079182843100,70.00384301757812,-2.1954147815704346,-15.844075202941895,6.837490558624268
1781678079279886000,70.10088598632812,-1.8508483171463013,-10.972288131713867,-4.634897232055664
1781678079338111700,70.15911181640625,-0.30628129839897156,-8.433503150939941,-4.549952030181885
1781678079435154400,70.25615454101562,-1.0947163105010986,-7.621140003204346,-2.702693223953247
1781678079532197000,70.35319702148438,0.7573283910751343,-5.523830890655518,3.432504177093506
1781678079629240000,70.45023999023438,0.6604190468788147,-15.846467971801758,4.677968502044678
1781678079687465700,70.5084658203125,-1.4452649354934692,-10.715060234069824,0.6245267391204834
1781678079784508400,70.60550830078125,-4.954339504241943,-23.158933639526367,-7.684549808502197
1781678079881551000,70.70255102539062,2.1954147815704346,-5.064409255981445,4.913661479949951
1781678079978594000,70.79959399414062,2.087737798690796,-4.080958843231201,-2.1403799057006836
1781678080036819700,70.85781982421875,3.702893018722534,-2.311466693878174,0.8327022790908813
1781678080133862400,70.9548623046875,2.974278450012207,-19.33281135559082,-0.05623133108019829
1781678080230905300,71.0519052734375,-0.15314064919948578,-10.595418930053711,-4.4721856117248535
1781678080327948000,71.14894799804688,-0.6867401003837585,-12.002398490905762,-2.9838497638702393
1781678080386173700,71.20717358398437,-1.0217353105545044,-6.604190349578857,-0.6975077986717224
1781678080483216400,71.30421630859375,0.8374879360198975,-6.819544315338135,1.1976077556610107
1781678080580259300,71.40125927734375,0.6101697683334351,-8.512466430664062,3.799802303314209
1781678080638485000,71.45948510742187,0.7369893789291382,-15.765111923217773,4.997410297393799
1781678080735527700,71.55652758789063,-1.054038405418396,-5.722435474395752,-0.059820566326379776
1781678080832570400,71.6535703125,-4.1730828285217285,-14.32463264465332,3.314059257507324
1781678080929613000,71.75061303710937,0.41994038224220276,-6.970292568206787,1.031306505203247
1781678080987838700,71.80883862304688,2.908475875854492,-5.038087844848633,-3.726821184158325
1781678081084881400,71.90588134765625,-2.7984061241149902,-12.802797317504883,3.8045880794525146
1781678081181924000,72.00292407226563,-0.3409772217273712,-17.783458709716797,4.967499732971191
1781678081278967000,72.09996704101563,-1.5864413976669312,-10.48534870147705,-2.2540390491485596
1781678081337192700,72.15819262695312,0.836291491985321,-9.306883811950684,-3.3547372817993164
1781678081434235400,72.2552353515625,-0.062213387340307236,-6.985845565795898,-2.4502503871917725
1781678081531278000,72.35227807617187,0.21415762603282928,-6.953542709350586,2.458625316619873
1781678081589503700,72.41050366210938,2.2983062267303467,-10.3621187210083,2.4466612339019775
1781678081686546400,72.50754638671874,-1.262213945388794,-13.703695297241211,0.47258245944976807
1781678081783589000,72.60458911132812,-1.8340985774993896,-12.447463035583496,-5.089533805847168
1781678081841814800,72.66281469726563,-3.7782669067382812,-12.230913162231445,2.572284460067749
1781678081938857500,72.759857421875,1.8783657550811768,-6.198606967926025,0.8159525394439697
1781678082035900200,72.85690014648438,2.7840490341186523,-4.302295207977295,0.4498506486415863
1781678082132942800,72.95394287109374,8.111668586730957,-13.810175895690918,3.0281169414520264
1781678082191168500,73.01216845703125,-4.878965377807617,-18.00240135192871,3.0484559535980225
1781678082288211200,73.10921118164063,-1.3567304611206055,-11.330015182495117,-1.4715858697891235
1781678082385254000,73.20625390625,0.4893322288990021,-7.679764270782471,1.1545369625091553
1781678082482296600,73.30329663085938,-0.03349951654672623,-7.786244869232178,1.4105689525604248
1781678082540522000,73.36152197265625,0.745364248752594,-7.112665176391602,2.242074728012085
1781678082637565000,73.45856494140625,-0.17347964644432068,-13.545768737792969,3.0077781677246094
1781678082734607600,73.55560766601562,-2.748156785964966,-6.80877685546875,-0.8279166221618652
1781678082792833000,73.6138330078125,-2.1272194385528564,-13.95254898071289,-5.057230472564697
1781678082889876000,73.7108759765625,1.215553879737854,-7.0025954246521,5.320441246032715
1781678082986918400,73.80791845703125,1.5337992906570435,-4.334598064422607,-2.2061824798583984
1781678083083961000,73.90496118164063,-3.647858142852783,-13.074382781982422,4.146761417388916
1781678083142186800,73.96318676757812,4.4243292808532715,-11.82174015045166,6.293123722076416
1781678083239229400,74.0602294921875,-0.6652047038078308,-8.21695327758789,-0.6089733839035034
1781678083336272100,74.15727221679687,0.36610186100006104,-9.067601203918457,-3.111865758895874
1781678083433314800,74.25431469726563,-1.521835207939148,-6.3840508460998535,-0.8685946464538574
1781678083491540200,74.31254028320312,-1.3698909282684326,-7.237092018127441,0.9858429431915283
1781678083588583000,74.4095830078125,2.287538528442383,-8.891729354858398,1.719243049621582
1781678083685625600,74.50662548828124,-1.042074203491211,-13.9513521194458,0.2632105052471161
1781678083782668300,74.60366821289062,-2.4526431560516357,-11.467602729797363,-5.020142078399658
1781678083840894000,74.66189404296875,-4.506881237030029,-15.915860176086426,2.00518536567688
1781678083937936600,74.7589365234375,2.124826431274414,-6.32662296295166,1.4105689525604248
1781678084034979300,74.85597924804688,2.9527430534362793,-3.2159535884857178,0.9487541913986206
1781678084093204700,74.91420483398437,-2.89890456199646,-17.339590072631836,3.372683525085449
1781678084190247400,75.01124731445313,-1.3387842178344727,-14.652449607849121,5.216353416442871
1781678084287290000,75.1082900390625,-1.8891334533691406,-9.440881729125977,-1.7395820617675781
1781678084384332500,75.20533251953125,0.0323031060397625,-6.555137634277344,0.8291130661964417
1781678084442558200,75.26355810546875,-2.6225335597991943,-7.4739813804626465,-2.5495524406433105
1781678084539601000,75.36060083007813,0.007178467698395252,-7.630711555480957,4.864608287811279
1781678084636643300,75.45764331054687,-0.8997012972831726,-13.878371238708496,5.093122959136963
1781678084733686000,75.55468603515625,-2.33180570602417,-4.878965377807617,-2.297109842300415
1781678084791911400,75.61291137695312,-4.182653903961182,-20.14038848876953,-4.549952030181885
1781678084888954000,75.7099541015625,2.194218397140503,-5.185246467590332,4.942375183105469
1781678084985996800,75.80699682617187,3.2578279972076416,-4.801198482513428,-3.5270206928253174
1781678085044222500,75.86522241210938,2.049452543258667,-5.414957523345947,-0.09690931439399719
1781678085141265200,75.96226513671876,4.785645484924316,-11.68175983428955,5.657829284667969
1781678085238307600,76.0593076171875,1.7084753513336182,-7.385447025299072,-3.1405797004699707
1781678085335350300,76.15635034179688,-0.13160525262355804,-10.484152793884277,-3.9326040744781494
1781678085393575700,76.21457568359375,-1.4249259233474731,-7.087540626525879,3.188436269760132
1781678085490618400,76.31161840820313,0.6747759580612183,-7.134200572967529,1.357926845550537
1781678085587661000,76.4086611328125,3.139383316040039,-9.294919967651367,1.451246976852417
1781678085684703500,76.50570336914062,-1.8795621395111084,-12.613764762878418,1.1186445951461792
1781678085742929200,76.56392919921875,-2.510071039199829,-8.100900650024414,-2.548356056213379
1781678085839971600,76.6609716796875,-3.6406795978546143,-12.350554466247559,3.9110686779022217
1781678085937014300,76.75801416015625,0.9439685344696045,-5.313262462615967,0.15314064919948578
1781678085995240000,76.81623999023438,2.7122645378112793,-5.182853698730469,-2.289931297302246
1781678086092282400,76.91328247070312,-0.35054850578308105,-20.092531204223633,1.4261223077774048
1781678086189324800,77.01032470703124,-3.8775691986083984,-17.613567352294922,-0.2835494875907898
1781678086286367500,77.10736743164063,-0.5910272002220154,-11.527422904968262,-2.939582586288452
1781678086344593000,77.16559301757812,1.1593226194381714,-7.70249605178833,-3.78544545173645
1781678086441635600,77.26263549804688,0.1746760457754135,-7.594819068908691,-1.042074203491211
1781678086538678300,77.35967822265626,0.849452018737793,-7.019345283508301,3.0855448246002197
1781678086596903700,77.41790356445313,2.878565549850464,-11.84566879272461,1.8317056894302368
1781678086693946400,77.5149462890625,-1.6259230375289917,-11.883954048156738,0.6400800347328186
1781678086790989000,77.61198901367187,-3.0424740314483643,-13.51585865020752,-6.727420806884766
1781678086888031500,77.70903149414063,1.3244273662567139,-5.699703693389893,4.34536600112915
1781678086946257200,77.76725708007812,1.6821542978286743,-4.8574299812316895,-0.12203395366668701
1781678087043299600,77.86429956054687,2.4945175647735596,-4.871787071228027,0.8135597109794617
1781678087140342300,77.96134228515625,6.7106709480285645,-13.073186874389648,3.476771354675293
1781678087237385000,78.05838500976563,1.534995675086975,-8.15234661102295,-2.953939437866211
1781678087295610400,78.1166103515625,-1.0085747241973877,-11.625529289245605,-1.9645073413848877
1781678087392653000,78.21365307617188,-0.867398202419281,-6.640082836151123,2.7637102603912354
1781678087489695500,78.31069555664062,-0.5395814776420593,-7.836493968963623,1.1306086778640747
1781678087547921200,78.36892114257813,1.3603196144104004,-5.5692949295043945,2.6321048736572266
1781678087644963600,78.46596362304687,-0.2476571500301361,-16.000804901123047,4.415954113006592
1781678087742006300,78.56300634765626,-2.458625316619873,-5.804987907409668,-1.5002998113632202
1781678087839049000,78.66004907226562,-5.464010715484619,-14.730216026306152,4.028316974639893
1781678087897274600,78.71827465820313,2.5986053943634033,-5.416153907775879,4.18983268737793
1781678087994317300,78.8153173828125,2.827120065689087,-5.014159679412842,-3.170490026473999
1781678088091359700,78.91235986328125,-3.2889347076416016,-17.32403564453125,1.750349760055542
1781678088149585400,78.97058544921875,4.9399824142456055,-11.532208442687988,3.8189449310302734
1781678088246628000,79.06762817382813,1.7168502807617188,-7.710870742797852,-2.939582586288452
1781678088343670800,79.1646708984375,2.2097716331481934,-8.823533058166504,-4.314259052276611
1781678088440713200,79.26171313476563,-0.6221339106559753,-7.93579626083374,-1.9525432586669922
1781678088498939000,79.31993896484374,-0.08015955984592438,-8.111668586730957,2.104487419128418
1781678088595981600,79.41698168945312,2.664407968521118,-10.834700584411621,3.434896945953369
1781678088693024300,79.51402416992188,-1.1425727605819702,-12.882957458496094,0.5754738450050354
1781678088790067000,79.61106689453125,-1.2287144660949707,-13.509876251220703,-6.416353702545166
1781678088848292400,79.66929223632812,-6.106483459472656,-15.199209213256836,3.737588882446289
1781678088945335000,79.7663349609375,1.9836499691009521,-5.682953834533691,0.0323031060397625
1781678089042377700,79.86337768554688,2.796013355255127,-4.195814609527588,0.08733802288770676
1781678089100603400,79.92160327148437,-3.372683525085449,-17.190038681030273,4.0558342933654785
1781678089197646300,80.01864624023438,-1.5158531665802002,-16.693527221679688,4.576273441314697
1781678089294689000,80.11568896484376,-1.7922241687774658,-9.078369140625,0.07537391036748886
1781678089391731700,80.21273168945312,4.047459602355957,-5.925825119018555,-1.2011969089508057
1781678089449957400,80.27095727539063,-2.324627161026001,-7.787441253662109,0.23330020904541016
1781678089547000000,80.368,0.503689169883728,-7.694121360778809,3.211168050765991
1781678089644042800,80.46504272460938,1.074377417564392,-13.83649730682373,1.8903298377990723
1781678089741085400,80.56208544921876,-2.9036903381347656,-8.056633949279785,-0.7226324677467346
1781678089799311000,80.62031103515625,-2.9563324451446533,-14.054244041442871,-5.894718647003174
1781678089896353800,80.71735375976563,0.9068797826766968,-6.3122663497924805,5.5728840827941895
1781678089993396700,80.81439672851562,2.654836654663086,-4.691128730773926,-3.6059837341308594
1781678090090439700,80.91143969726562,0.9786644577980042,-8.58185863494873,2.8582265377044678
1781678090148665000,80.9696650390625,5.241477966308594,-15.845271110534668,1.2849457263946533
1781678090245707800,81.06670776367187,0.5096712112426758,-10.095318794250488,-4.675575256347656
1781678090342750700,81.16375073242187,-0.5084748268127441,-10.443474769592285,-3.809373617172241
1781678090400976400,81.22197631835938,0.8410771489143372,-6.673582553863525,0.9906286001205444
1781678090498019300,81.31901928710937,-1.0803594589233398,-7.812565803527832,1.1700903177261353
1781678090595062000,81.41606201171875,2.049452543258667,-7.816154956817627,2.4741785526275635
1781678090692104700,81.51310473632813,0.9200403094291687,-14.256437301635742,0.973878800868988
1781678090750330400,81.57133032226562,-4.187439441680908,-6.2500529289245605,1.0289137363433838
1781678090847373300,81.66837329101563,-3.043670415878296,-19.46441650390625,2.4670002460479736
1781678090944416000,81.765416015625,2.517249345779419,-6.447460651397705,1.7599210739135742
1781678091002641700,81.8236416015625,1.750349760055542,-4.4614176750183105,-2.4155545234680176
1781678091099684600,81.9206845703125,-0.9499505758285522,-9.7938232421875,3.5162527561187744
1781678091196727300,82.01772729492187,-0.39122650027275085,-14.094922065734863,6.5766730308532715
1781678091293770200,82.11477026367187,-1.4608181715011597,-7.427321434020996,-3.2279176712036133
1781678091351996000,82.17299584960938,-0.03469592705368996,-10.14317512512207,-3.9314076900482178
1781678091449038800,82.27003881835938,-4.016352653503418,-6.3840508460998535,-0.41874396800994873
1781678091546081800,82.36708178710937,1.5469598770141602,-6.449853420257568,2.194218397140503
1781678091643124500,82.46412451171875,1.7467604875564575,-14.846267700195312,3.159722328186035
1781678091701350100,82.52235009765624,-1.3351950645446777,-13.061222076416016,0.42831525206565857
1781678091798393000,82.61939306640625,-3.129812002182007,-15.956538200378418,-6.166304111480713
1781678091895435800,82.71643579101563,1.4727823734283447,-5.449653625488281,5.6685967445373535
1781678091953661700,82.77466162109376,0.5730810165405273,-4.8299126625061035,-0.5539384484291077
1781678092050704400,82.87170434570312,3.675375461578369,-3.6323046684265137,1.007378339767456
1781678092147747300,82.96874731445313,2.9479575157165527,-15.223137855529785,3.4301111698150635
1781678092244790000,83.0657900390625,-2.9072794914245605,-8.417949676513672,0.05024927482008934
1781678092303016000,83.12401586914062,-0.29312077164649963,-12.54556941986084,-5.194818019866943
1781678092400058600,83.22105859375,-2.89890456199646,-6.0741801261901855,0.397208571434021
1781678092497101600,83.3181015625,-1.2179467678070068,-7.657032489776611,2.9216363430023193
1781678092594144500,83.41514453125,2.6739792823791504,-9.577272415161133,0.7250252366065979
1781678092652370200,83.4733701171875,-0.013160524889826775,-14.752947807312012,3.2004003524780273
1781678092749413000,83.5704130859375,-2.7421748638153076,-8.025527000427246,-0.7585247755050659
1781678092846455800,83.66745581054687,-4.504488468170166,-12.665210723876953,3.425325632095337
1781678092904681700,83.725681640625,1.6689938306808472,-6.461817741394043,4.931607246398926
1781678093001724400,83.82272436523438,1.8317056894302368,-5.085944652557373,-2.2360928058624268
1781678093098767400,83.91976733398438,-4.262813568115234,-18.00838279724121,2.944368362426758
1781678093195810300,84.01681030273437,-4.497310161590576,-19.249061584472656,-1.550549030303955
1781678093254036000,84.07503588867188,-1.4991034269332886,-6.905686378479004,-1.1042876243591309
1781678093351078700,84.17207861328124,1.0612168312072754,-7.978867053985596,-2.427518606185913
1781678093448121600,84.26912158203125,1.0456634759902954,-6.726224422454834,-0.9200403094291687
1781678093506347300,84.32734716796875,-0.8781659007072449,-7.47637414932251,3.4301111698150635
1781678093603390200,84.42439013671876,4.167100429534912,-10.53081226348877,0.9379864931106567
1781678093700433200,84.52143310546874,-1.95852530002594,-12.21655559539795,0.1495514214038849
1781678093797476000,84.61847607421875,-3.0065815448760986,-18.967905044555664,-2.076970100402832
1781678093855701800,84.67670166015625,-1.275374412536621,-10.48654556274414,4.0666022300720215
1781678093952744400,84.77374438476562,0.4211367964744568,-5.062016487121582,-1.0205388069152832
1781678094049787400,84.87078735351562,3.5617165565490723,-2.8582265377044678,0.6424728631973267
1781678094146830000,84.967830078125,4.706682205200195,-13.424931526184082,3.043670415878296
1781678094205056000,85.02605590820312,-4.910071849822998,-18.796817779541016,1.8783657550811768
1781678094302098700,85.1230986328125,-1.456032633781433,-13.452448844909668,-4.132404804229736
1781678094399141600,85.2201416015625,-1.4679967164993286,-6.198606967926025,1.0061819553375244
1781678094457367300,85.2783671875,-0.5132604837417603,-6.569494724273682,-1.5170495510101318
1781678094554410200,85.37541015625,0.9762716293334961,-9.013762474060059,4.668396949768066
1781678094651453000,85.47245288085938,0.8147560954093933,-15.17288875579834,2.4155545234680176
1781678094748496000,85.56949584960938,-3.8871402740478516,-9.205188751220703,-0.7429714202880859
1781678094806721800,85.6277216796875,-3.1657042503356934,-18.238094329833984,-2.6967110633850098
1781678094903764500,85.72476440429688,4.682754039764404,-5.630311489105225,3.91705060005188
1781678095000807400,85.82180737304688,1.576870083808899,-4.773681163787842,-1.576870083808899
1781678095097850000,85.91885009765625,-4.212564468383789,-19.69053840637207,3.830909013748169
1781678095156075800,85.97707568359375,2.5435705184936523,-14.676377296447754,4.082155227661133
1781678095253118700,86.07411865234376,-2.1068804264068604,-8.048258781433105,0.18424734473228455
1781678095350161400,86.17116137695312,0.47976094484329224,-8.051848411560059,-2.528017044067383
1781678095408387000,86.22938696289063,-3.2793633937835693,-6.692724704742432,1.2418749332427979
1781678095505430000,86.32642993164062,-0.9786644577980042,-7.0061845779418945,2.4047868251800537
1781678095602472700,86.42347265625,3.355933666229248,-13.636695861816406,3.080759048461914
1781678095699515600,86.520515625,-3.1334011554718018,-10.332208633422852,-2.1332013607025146
1781678095757741300,86.5787412109375,-2.9455647468566895,-11.048858642578125,-4.459024906158447
1781678095854784300,86.6757841796875,-1.1485549211502075,-7.117451190948486,5.8923258781433105
1781678095951827000,86.77282690429688,2.00518536567688,-5.497509956359863,-2.3988046646118164
1781678096010052600,86.83105249023437,2.201396942138672,-5.020142078399658,-1.0660024881362915
1781678096107095600,86.92809545898437,5.824130535125732,-16.283157348632812,1.3435698747634888
1781678096204138200,87.02513818359375,-2.368894338607788,-14.062618255615234,-6.6939215660095215
1781678096301181000,87.12218090820312,-1.7228323221206665,-9.651450157165527,-4.280759811401367
1781678096359406800,87.18040673828125,0.14117653667926788,-6.786045074462891,-0.7800601720809937
1781678096456449500,87.27744946289063,0.6687939167022705,-8.536395072937012,0.5862415432929993
1781678096553492200,87.3744921875,2.149951219558716,-7.39980411529541,-0.33738797903060913
1781678096650535000,87.47153491210938,-0.08374879509210587,-14.593825340270996,1.794616937637329
1781678096708760600,87.52976049804687,-4.051048755645752,-8.117650985717773,0.9702895879745483
1781678096805803500,87.62680346679687,-3.3296127319335938,-14.350954055786133,2.592623233795166
1781678096902846200,87.72384619140625,0.6005984544754028,-6.290730953216553,0.5024927258491516
1781678096961072000,87.78207202148438,2.572284460067749,-5.113461971282959,-2.3808584213256836
1781678097058114800,87.87911474609375,-0.6460621356964111,-13.852049827575684,4.159922122955322
1781678097155157500,87.97615747070313,-2.544766902923584,-16.24247932434082,5.161318302154541
1781678097252200400,88.07320043945313,-2.882154941558838,-9.751948356628418,-2.1296122074127197
1781678097310425900,88.13142578125,1.2969099283218384,-7.932207107543945,-3.589233875274658
1781678097407468800,88.22846875,-2.035095691680908,-6.750152587890625,-1.7515461444854736
1781678097504511500,88.32551147460937,-0.7932206988334656,-7.835297584533691,3.8799619674682617
1781678097601554200,88.42255419921875,-0.9655039310455322,-13.378271102905273,3.6538400650024414
1781678097659779800,88.48077978515624,-1.8185452222824097,-11.425727844238281,-1.3363914489746094
1781678097756822500,88.57782250976562,-2.981456995010376,-20.301902770996094,-5.437689304351807
1781678097853865200,88.674865234375,1.454836130142212,-6.1399827003479,5.123033046722412
1781678097912091000,88.7330908203125,1.7060825824737549,-4.880161762237549,-2.5459632873535156
1781678098009133600,88.83013354492188,2.6524438858032227,-4.511667251586914,2.6596224308013916
1781678098106176300,88.92717626953124,1.604387640953064,-11.733205795288086,5.447260856628418
1781678098203219200,89.02421923828125,-0.3170489966869354,-6.701099872589111,-2.2576282024383545
1781678098261444900,89.08244482421875,-0.8327022790908813,-11.724830627441406,-5.212764263153076
1781678098358487600,89.17948754882812,-3.5928232669830322,-7.286144733428955,2.097309112548828
1781678098455530200,89.2765302734375,0.7561319470405579,-7.046862602233887,2.0829520225524902
1781678098552573000,89.37357299804688,3.050848960876465,-11.312068939208984,3.5437703132629395
1781678098630207200,89.45120727539063,-1.6295121908187866,-12.838689804077148,0.30987054109573364
1781678098727249700,89.54824975585937,-2.025524377822876,-15.89552116394043,-7.447660446166992
1781678098824292400,89.64529223632813,0.34695929288864136,-6.68435001373291,6.551548480987549
1781678098921335000,89.7423349609375,2.111665964126587,-5.149354457855225,-2.3533411026000977
1781678099018377700,89.83937768554688,-3.786641836166382,-10.569097518920898,4.261617183685303
1781678099115420400,89.93642041015624,-1.5936198234558105,-17.80738639831543,5.434100151062012
1781678099212463000,90.03346313476563,-2.1583259105682373,-10.949556350708008,-2.8390841484069824
1781678099309505800,90.130505859375,2.6225335597991943,-6.3493547439575195,-0.46899324655532837
1781678099406548700,90.227548828125,-0.16031911969184875,-7.645068168640137,0.698704183101654
1781678099464774100,90.28577416992188,0.6269195079803467,-7.467999458312988,3.6502509117126465
1781678099561816800,90.38281689453125,1.8221344947814941,-13.782658576965332,3.4372897148132324
1781678099658859500,90.47985961914063,-3.212364435195923,-8.748159408569336,-1.2167502641677856
1781678099755902200,90.57690209960937,-1.679761528968811,-17.70449447631836,1.5445669889450073
1781678099833536000,90.65453588867187,2.7397818565368652,-6.419943332672119,4.840680122375488
1781678099911170300,90.73217041015624,1.3663017749786377,-4.864608287811279,-2.640479803085327
1781678100008213000,90.829212890625,-0.010767702013254166,-7.585247993469238,3.06999135017395
1781678100066438700,90.88743872070313,6.178267955780029,-17.467605590820312,1.176072359085083
1781678100163481000,90.98448120117187,-4.984249591827393,-18.157934188842773,-5.326423168182373
1781678100260523800,91.08152368164062,-0.31465616822242737,-10.301101684570312,-3.3822548389434814
1781678100318749400,91.13974951171875,0.9667003750801086,-6.406782627105713,-0.20458634197711945
1781678100376974800,91.19797485351563,-2.1858434677124023,-6.472585201263428,-2.4562325477600098
1781678100474017500,91.295017578125,0.05503492057323456,-6.908079147338867,5.828916072845459
1781678100571060200,91.39206030273438,-0.4486542344093323,-13.47877025604248,4.433900356292725
1781678100629286000,91.45028588867187,-0.5694918036460876,-13.160524368286133,-0.04666004329919815
1781678100687511600,91.50851147460938,-3.129812002182007,-7.432106971740723,-2.1571295261383057
1781678100784554000,91.60555395507812,-6.141179084777832,-13.184453010559082,2.5052852630615234
1781678100881596700,91.7025966796875,1.4871392250061035,-5.255835056304932,0.5156532526016235
1781678100978639000,91.79963916015625,2.104487419128418,-4.565505504608154,0.3170489966869354
1781678101075681800,91.89668188476563,3.1992039680480957,-15.035301208496094,4.490131855010986
1781678101172724500,91.99372436523437,0.16390834748744965,-7.026523590087891,-1.3938192129135132
1781678101269767000,92.09076684570313,-0.07657032459974289,-9.994820594787598,-2.5974090099334717
1781678101327992600,92.14899267578124,-1.058824062347412,-5.894718647003174,1.3914263248443604
1781678101425035000,92.24603491210938,-0.7334001660346985,-7.980063438415527,1.4273186922073364
1781678101522077700,92.34307763671875,3.377469062805176,-8.590232849121094,2.702693223953247
1781678101580303400,92.40130346679688,-0.8877372145652771,-14.83669662475586,2.475374937057495
1781678101677345800,92.498345703125,-3.321237802505493,-7.338787078857422,-0.10887342691421509
1781678101774388200,92.59538818359376,-3.565305709838867,-11.732009887695312,1.9860427379608154
1781678101871431000,92.69243090820312,0.7812566161155701,-5.777470111846924,-0.019142581149935722
1781678101929656300,92.75065625,2.2791635990142822,-5.643472194671631,-2.7936203479766846
1781678102026698800,92.84769873046875,-1.4452649354934692,-19.446470260620117,1.672582983970642
1781678102123741700,92.94474169921875,-3.6406795978546143,-18.229719161987305,-0.7345965504646301
1781678102201375500,93.02237548828126,-2.6392834186553955,-10.436295509338379,-2.042274236679077
1781678102279009500,93.10000952148438,2.6727828979492188,-7.81974458694458,-1.950150489807129
1781678102376052200,93.19705224609375,-0.5515456199645996,-6.97986364364624,-2.2983062267303467
1781678102473094700,93.2940947265625,1.3591232299804688,-8.199007034301758,4.302295207977295
1781678102531320000,93.35232006835938,1.2550355195999146,-15.42054557800293,2.008774518966675
1781678102667179800,93.4881796875,-2.5710878372192383,-7.334001541137695,-2.8319056034088135
1781678102725405200,93.5464052734375,-3.126222848892212,-20.678773880004883,-4.828716278076172
1781678102822447900,93.64344775390624,3.2506494522094727,-4.3070807456970215,5.124229907989502
1781678102880673300,93.70167333984375,1.317248821258545,-4.122833251953125,-2.524427890777588
1781678102977715700,93.7987158203125,-0.6376872062683105,-8.434700012207031,3.755535125732422
1781678103074758100,93.89575805664063,-1.7766708135604858,-16.593029022216797,5.9509501457214355
1781678103171800800,93.99280078125,-2.4394826889038086,-9.735198974609375,-2.286342144012451
1781678103230026200,94.05102612304688,-0.8506484627723694,-10.675578117370605,-2.6009981632232666
1781678103327068700,94.14806860351563,-2.6321048736572266,-6.090929985046387,-0.7310073375701904
1781678103424111000,94.24511108398437,-0.20458634197711945,-6.832705020904541,1.8771693706512451
1781678103521153800,94.34215380859375,1.8317056894302368,-14.453845024108887,3.2446675300598145
1781678103579379200,94.40037915039062,-0.5467599630355835,-12.760923385620117,-0.07058826833963394
1781678103676421600,94.49742163085938,-4.068994998931885,-14.739787101745605,-4.813162803649902
1781678103773464000,94.59446411132812,-0.0023928226437419653,-6.742974281311035,5.347958564758301
1781678103831689500,94.652689453125,1.7324036359786987,-5.748756408691406,0.37447673082351685
1781678103928732200,94.74973217773437,2.8426733016967773,-4.729413986206055,-1.3363914489746094
1781678104025774600,94.84677465820313,4.642076015472412,-16.99980926513672,1.698904037475586
1781678104122817000,94.94381713867188,-2.589034080505371,-12.44267749786377,-2.1032910346984863
1781678104181042700,95.00204272460938,-1.8783657550811768,-12.221342086791992,-2.449054002761841
1781678104278084900,95.0990849609375,0.6544370055198669,-6.296712875366211,0.6460621356964111
1781678104375127300,95.19612719726562,-0.005982056725770235,-7.423732280731201,0.9032905697822571
1781678104472169700,95.29316967773437,1.9286150932312012,-9.184849739074707,3.078366279602051
1781678104530395100,95.35139501953125,0.23808585107326508,-14.214563369750977,2.726621389389038
1781678104627437600,95.4484375,-4.098905086517334,-8.12123966217041,-0.5515456199645996
1781678104724480000,95.54547998046876,-4.691128730773926,-16.638492584228516,4.0426740646362305
1781678104782705700,95.60370556640625,2.438286304473877,-6.285944938659668,6.726224422454834
1781678104879748000,95.700748046875,1.5302101373672485,-4.5200419425964355,-2.89172625541687
1781678104976790300,95.79779028320313,-1.8759729862213135,-11.351551055908203,4.656432628631592
1781678105073833000,95.8948330078125,-2.1403799057006836,-17.12064552307129,4.1144585609436035
1781678105132058400,95.95305834960938,-0.9308080077171326,-10.17428207397461,-2.2504496574401855
1781678105229100800,96.05010083007812,-0.23330020904541016,-9.360722541809082,-4.0319061279296875
1781678105326143200,96.14714331054688,-2.0518453121185303,-5.934200286865234,-1.561316728591919
1781678105423185700,96.244185546875,0.8757730722427368,-7.818548202514648,4.1036906242370605
1781678105481411000,96.3024111328125,2.084148406982422,-9.098708152770996,1.412961721420288
1781678105578453500,96.39945361328125,-1.7180466651916504,-13.673785209655762,0.21176479756832123
1781678105675495700,96.49649560546875,-3.016152858734131,-13.51705551147461,-8.02193832397461
1781678105733721300,96.55472143554688,-5.542973518371582,-13.651053428649902,3.524627685546875
1781678105830763800,96.651763671875,1.0971091985702515,-5.402993679046631,0.07537391036748886
1781678105927806200,96.74880615234375,4.878965377807617,-2.8558337688446045,-0.5395814776420593
1781678106024848600,96.8458486328125,6.135197162628174,-14.425130844116211,5.7272210121154785
1781678106083074000,96.90407397460937,-2.416750907897949,-14.307883262634277,3.332005500793457
1781678106180116500,97.00111645507812,-2.124826431274414,-10.599007606506348,-1.8221344947814941
1781678106277159000,97.09815893554688,0.13040883839130402,-5.556134223937988,1.089930772781372
1781678106374201000,97.195201171875,2.6668007373809814,-7.93579626083374,1.5601203441619873
1781678106432426500,97.25342651367187,-1.0923235416412354,-8.459824562072754,4.5547380447387695
1781678106529469000,97.35046899414063,-0.4582255482673645,-13.488341331481934,4.83469820022583
1781678106626511400,97.44751147460937,-3.4576287269592285,-7.646264553070068,-2.111665964126587
1781678106684737000,97.50573706054688,-3.1513473987579346,-14.857035636901855,-5.430510997772217
1781678106781779500,97.60277954101562,2.8630123138427734,-5.523830890655518,5.893522262573242
1781678106878822000,97.69982177734374,2.4993033409118652,-4.500899314880371,-2.5914268493652344
1781678106975864300,97.7968642578125,-3.7220356464385986,-14.167902946472168,4.886143684387207
1781678107034089700,97.85508984375,2.6775684356689453,-14.489737510681152,4.797609329223633
1781678107131132000,97.9521318359375,-1.8747764825820923,-7.901100158691406,-0.7393822073936462
1781678107228174300,98.04917431640625,2.307877540588379,-7.872386455535889,-3.737588882446289
1781678107325217000,98.14621704101563,0.5910272002220154,-6.532405853271484,-0.9690931439399719
1781678107383442400,98.2044423828125,-0.4175475537776947,-7.304090976715088,1.9357935190200806
1781678107480484900,98.30148486328125,1.9298114776611328,-11.85165023803711,1.8388842344284058
1781678107577527300,98.39852734375,-1.9250258207321167,-11.25464153289795,-0.6532405614852905
1781678107635752700,98.45675268554687,-2.6356940269470215,-9.147761344909668,-3.786641836166382
1781678107732795100,98.55379516601562,-5.242674350738525,-10.177870750427246,5.4556355476379395
1781678107829837600,98.65083764648438,1.057627558708191,-4.774877548217773,-1.3459627628326416
1781678107926880000,98.7478798828125,4.009174346923828,-4.509274482727051,2.1379871368408203
1781678107985105400,98.80610546875,3.135794162750244,-20.15474510192871,0.36251261830329895
1781678108082147800,98.90314794921875,-1.4321043491363525,-14.163117408752441,-2.8689942359924316
1781678108179190300,99.00019018554687,-0.46061834692955017,-10.780862808227539,-4.481756687164307
1781678108276233000,99.09723291015625,-4.180261135101318,-7.191628456115723,0.8554341197013855
1781678108334458400,99.15545825195312,0.3732803463935852,-7.46201753616333,0.25363919138908386
1781678108431500800,99.25250073242188,1.4416756629943848,-8.58185863494873,2.4849462509155273
1781678108528543200,99.34954321289062,0.1782652884721756,-15.76152229309082,3.2506494522094727
1781678108586768600,99.4077685546875,-2.939582586288452,-10.219745635986328,-0.12203395366668701
1781678108683811000,99.50481103515625,-1.7132610082626343,-18.4450740814209,-3.583251953125
1781678108780853500,99.601853515625,5.633901119232178,-4.800002098083496,4.382454872131348
1781678108877896000,99.69889599609375,2.633301258087158,-4.817948341369629,-2.819941520690918
1781678108936121300,99.75712133789062,0.836291491985321,-6.441478729248047,2.5363919734954834
1781678109033163800,99.85416381835938,0.8087740540504456,-15.184852600097656,5.352744102478027
1781678109130206500,99.95120654296875,-1.6366907358169556,-9.281759262084961,-1.820937991142273
1781678109227249000,100.04824877929687,4.115654945373535,-6.859025955200195,-1.786242127418518
1781678109285474300,100.10647436523438,-2.957528829574585,-6.608976364135742,0.4366901218891144
1781678109382516700,100.20351684570312,-0.6963114142417908,-6.869793891906738,1.9250258207321167
1781678109479559200,100.30055908203126,2.926422119140625,-12.270394325256348,1.3507484197616577
1781678109537784600,100.35878466796875,0.5359922647476196,-14.865410804748535,2.9216363430023193
1781678109634827000,100.45582690429687,-2.554338216781616,-9.091529846191406,-2.310270309448242
1781678109731869400,100.55286938476563,-4.470989227294922,-9.591629981994629,4.42193603515625
1781678109828912000,100.649912109375,0.36729827523231506,-4.711467742919922,-1.5852450132369995
1781678109887137500,100.70813745117188,2.606980323791504,-5.410171985626221,-2.4263222217559814
1781678109984180000,100.80517993164062,3.0520453453063965,-20.227725982666016,1.566102385520935
1781678110081222400,100.90222241210938,-5.36351203918457,-16.4255313873291,-3.483949661254883
1781678110178265000,100.99926513671875,-0.778863787651062,-10.989038467407227,-3.3954153060913086
1781678110236490200,101.057490234375,1.8269200325012207,-7.200003147125244,-1.6211373805999756
1781678110333533000,101.15453295898438,-0.2392822653055191,-8.602197647094727,-0.04785645380616188
1781678110430575400,101.25157543945312,1.031306505203247,-8.237292289733887,3.8572301864624023
1781678110527617800,101.34861767578126,-0.08733802288770676,-14.092529296875,3.159722328186035
1781678110585843200,101.40684326171875,-2.581855535507202,-8.082955360412598,-2.035095691680908
1781678110682885600,101.5038857421875,-3.040081262588501,-21.308086395263672,0.10408778488636017
1781678110779928000,101.60092797851563,3.2004003524780273,-5.694917678833008,2.667997360229492
1781678110838153700,101.65915380859374,2.087737798690796,-5.339583873748779,-2.555534601211548
1781678110935196200,101.75619604492188,-2.0518453121185303,-9.471988677978516,4.548755645751953
1781678111032238600,101.85323852539062,-0.7345965504646301,-15.64547061920166,4.179064750671387
1781678111129281000,101.95028100585938,-2.768495798110962,-9.122636795043945,-0.9320043921470642
1781678111187506400,102.00850634765625,-0.4043870270252228,-10.535597801208496,-4.579862594604492
1781678111284548900,102.105548828125,-3.724428415298462,-6.534798622131348,-0.8578268885612488
1781678111381591600,102.20259155273438,-0.49172505736351013,-7.328019142150879,2.6392834186553955
1781678111478634000,102.29963403320312,2.056631088256836,-13.38425350189209,3.129812002182007
1781678111536859400,102.357859375,-0.5288137793540955,-14.197813034057617,0.3900300860404968
1781678111633901800,102.45490185546875,-3.403790235519409,-12.853046417236328,-5.255835056304932
1781678111730944300,102.5519443359375,2.651247501373291,-6.565905570983887,5.819344520568848
1781678111827987000,102.64898706054687,1.903490424156189,-4.960321426391602,-3.2243285179138184
1781678111886212000,102.70721215820312,2.8187451362609863,-3.6634113788604736,-0.1950150430202484
1781678111983254800,102.8042548828125,5.328815937042236,-15.566507339477539,2.7457640171051025
1781678112080297200,102.90129711914062,0.6999006271362305,-10.600204467773438,-3.617947816848755
1781678112138523000,102.95952294921875,-1.3268201351165771,-9.489934921264648,-3.456432342529297
1781678112235565300,103.0565654296875,0.4055834412574768,-6.0610198974609375,1.475175142288208
1781678112332607700,103.15360766601563,-0.7166503667831421,-7.154539585113525,0.6424728631973267
1781678112429650200,103.25065014648438,2.775674343109131,-10.674382209777832,2.201396942138672
1781678112487875600,103.30887548828125,-0.5443671345710754,-14.639288902282715,3.91705060005188
1781678112584918000,103.40591796875,-2.3736801147460938,-6.704689025878906,-1.1461620330810547
1781678112681960400,103.50296044921875,-5.252245903015137,-11.928220748901367,2.7840490341186523
1781678112779003000,103.6000029296875,1.0815558433532715,-5.499902725219727,-0.016749758273363113
1781678112837228300,103.65822827148438,2.510071039199829,-5.357530117034912,-2.0135602951049805
1781678112934271000,103.75527099609376,-0.49292147159576416,-19.932212829589844,2.324627161026001
1781678113031313700,103.85231372070312,-6.873383045196533,-17.935401916503906,-2.3617160320281982
1781678113089539000,103.9105390625,-3.16331148147583,-8.37846851348877,-3.52103853225708
1781678113186581500,104.00758154296875,4.823930263519287,-6.551548480987549,-2.1343977451324463
1781678113283624000,104.1046240234375,-0.23688943684101105,-8.554341316223145,0.11964113265275955
1781678113380666600,104.20166650390625,1.4919248819351196,-8.047062873840332,4.36091947555542
1781678113438892000,104.25989208984375,0.08015955984592438,-15.333207130432129,3.1345977783203125
1781678113535934500,104.3569345703125,-2.2755744457244873,-6.585047721862793,-0.6329016089439392
1781678113632977000,104.45397680664063,-3.4815568923950195,-21.938594818115234,0.3924229145050049
1781678113691202600,104.51220263671875,1.8580267429351807,-6.4666032791137695,5.117051124572754
1781678113788245000,104.60924487304688,2.118844509124756,-4.2209391593933105,-3.1094729900360107
1781678113885287400,104.70628735351562,-0.8422735929489136,-11.102697372436523,4.019941806793213
1781678113982329900,104.80332983398438,-0.2667997181415558,-16.023536682128906,4.609772682189941
1781678114040555300,104.86155517578125,0.7992027401924133,-10.103693962097168,-2.854637384414673
1781678114137598000,104.95859790039063,0.36610186100006104,-9.245866775512695,-4.108476638793945
1781678114234640400,105.05564038085937,-3.2518460750579834,-6.7178497314453125,-0.2727817893028259
1781678114331682800,105.15268286132813,0.5359922647476196,-5.992824077606201,2.589034080505371
1781678114428725500,105.2497255859375,-0.5730810165405273,-15.113067626953125,2.42512583732605
1781678114486951000,105.30795092773438,-0.44745782017707825,-12.76211929321289,-0.4618147611618042
1781678114583993300,105.40499340820313,-4.086941242218018,-13.98963737487793,-4.289134502410889
1781678114642219000,105.46321899414062,-5.375475883483887,-12.727423667907715,2.289931297302246
1781678114739261400,105.56026147460938,0.3732803463935852,-6.295516490936279,-0.7489534616470337
1781678114836304000,105.65730395507812,2.561516523361206,-3.955335855484009,-0.17706887423992157
1781678114933346600,105.7543466796875,4.945964336395264,-15.127425193786621,2.7086751461029053
1781678114991572000,105.81257202148437,-4.945964336395264,-16.89452362060547,-0.008374879136681557
1781678115088614400,105.90961450195313,-2.3641088008880615,-11.242676734924316,-2.1296122074127197
1781678115185656800,106.00665673828125,0.064606212079525,-6.658029079437256,1.0037890672683716
1781678115243882500,106.06488256835938,-0.6664010882377625,-7.133004188537598,-0.8757730722427368
1781678115340925000,106.16192504882812,1.2167502641677856,-8.445467948913574,2.9359934329986572
1781678115437967400,106.25896728515625,-0.9978070259094238,-13.910674095153809,3.1680972576141357
1781678115535009800,106.356009765625,-3.0352954864501953,-6.961917400360107,-0.9822536706924438
1781678115593235500,106.4142353515625,-3.3750762939453125,-16.744972229003906,-7.837690353393555
1781678115690278000,106.51127783203125,5.8683977127075195,-5.55015230178833,6.126822471618652
1781678115787320300,106.6083203125,2.2923240661621094,-4.579862594604492,-3.273381471633911
1781678115884363000,106.70536303710938,-1.7228323221206665,-13.02772331237793,3.3128628730773926
1781678115942588400,106.76358837890625,3.6323046684265137,-13.752748489379883,4.8059844970703125
1781678116039630800,106.860630859375,-0.12323036789894104,-6.065805435180664,-0.22851456701755524
1781678116136673300,106.95767333984375,0.6843472719192505,-9.013762474060059,-3.996013879776001
1781678116233716000,107.05471606445313,-1.730010747909546,-7.653443336486816,-1.6701902151107788
1781678116291941000,107.11294116210938,-1.0911271572113037,-7.557730197906494,2.4227328300476074
1781678116388983800,107.20998388671875,2.8869404792785645,-8.62732219696045,1.490728497505188
1781678116486026200,107.30702612304688,-0.36729827523231506,-13.304094314575195,0.08733802288770676
1781678116544252000,107.365251953125,-4.1347975730896,-7.738388538360596,0.6041877269744873
1781678116641294000,107.46229418945312,-6.008377552032471,-14.036297798156738,3.4444682598114014
1781678116738336800,107.55933666992188,1.8735800981521606,-6.126822471618652,0.49172505736351013
1781678116835379200,107.65637915039062,2.4909284114837646,-3.7220356464385986,-0.16510476171970367
1781678116893604600,107.7146044921875,-1.0301101207733154,-16.609777450561523,2.586641311645508
1781678116990647000,107.81164697265625,-3.5090744495391846,-19.841285705566406,2.950350284576416
1781678117087689500,107.908689453125,-2.3150558471679688,-12.0394868850708,-4.1419758796691895
1781678117145915000,107.96691479492188,0.30987054109573364,-7.432106971740723,-3.792623996734619
1781678117242957300,108.06395727539062,-0.02273181453347206,-7.599604606628418,-2.1643080711364746
1781678117339999700,108.16099975585938,-0.2907279431819916,-7.738388538360596,1.0671988725662231
1781678117437042400,108.25804248046875,0.4534398913383484,-13.995619773864746,1.9956140518188477
1781678117495267800,108.31626782226563,0.10887342691421509,-13.17248821258545,0.8231309652328491
1781678117592310300,108.41331030273437,-3.383451223373413,-12.832707405090332,-5.667400360107422
1781678117689352700,108.51035278320313,2.6799614429473877,-6.67717170715332,4.709074974060059
1781678117786395100,108.60739501953125,1.7742780447006226,-5.000999450683594,-2.190629243850708
