time,seconds_elapsed,z,y,x
1780853137030093000,0.303093017578125,0.15882360935211182,-9.87667465209961,-1.1303095817565918
1780853137127133700,0.4001337890625,0.15942180156707764,-9.920642852783203,-1.07826566696167
1780853137224174300,0.49717431640625,0.14446666836738586,-9.908679008483887,-1.0785647630691528
1780853137321215000,0.594215087890625,0.2105683982372284,-9.866206169128418,-1.0495518445968628
1780853137418255600,0.691255615234375,0.16031911969184875,-9.903892517089844,-1.1030912399291992
1780853137515296300,0.788296142578125,0.1905284970998764,-9.91286563873291,-1.0561320781707764
1780853137612337000,0.8853369140625,0.243469700217247,-9.888937950134277,-1.0968101024627686
1780853137709377500,0.98237744140625,0.1827518343925476,-9.910174369812012,-1.1644073724746704
1780853137806418200,1.079418212890625,0.20039889216423035,-9.840184211730957,-1.1850453615188599
1780853137903458800,1.176458740234375,0.09391828626394272,-9.888040542602539,-1.1012966632843018
1780853138000499500,1.27349951171875,0.06281159073114395,-9.930811882019043,-1.0630114078521729
1780853138097540000,1.3705400390625,0.19322042167186737,-9.890433311462402,-1.1093723773956299
1780853138194580700,1.467580810546875,0.1737787425518036,-9.911669731140137,-0.99481600522995
1780853138291621400,1.564621337890625,0.03918246924877167,-9.98136043548584,-1.0450652837753296
1780853138388662000,1.661662109375,0.17228323221206665,-9.682855606079102,-1.0528420209884644
1780853138485702700,1.75870263671875,-0.04935196787118912,-9.976574897766113,-1.2601202726364136
1780853138582743300,1.855743408203125,-0.07088737189769745,-9.868897438049316,-1.179063320159912
1780853138679784000,1.952783935546875,-0.4384847581386566,-9.966704368591309,-1.2424731254577637
1780853138728304400,2.001304443359375,-0.1704886108636856,-9.824930191040039,-1.2523435354232788
1780853138776824800,2.049824951171875,0.19322042167186737,-9.766006469726562,-1.057029366493225
1780853138873865500,2.146865478515625,-0.18005990982055664,-9.900602340698242,-1.1024930477142334
1780853138922385400,2.195385498046875,-0.017647067084908485,-9.916455268859863,-1.1644073724746704
1780853139019426000,2.292426025390625,-0.030508488416671753,-9.943075180053711,-1.1524431705474854
1780853139067946500,2.340946533203125,0.008075776509940624,-9.909575462341309,-1.1255239248275757
1780853139116467000,2.389467041015625,0.007178467698395252,-9.897313117980957,-1.150050401687622
1780853139164987400,2.4379873046875,0.030508488416671753,-9.837791442871094,-1.2029916048049927
1780853139213507600,2.486507568359375,0.0062811593525111675,-9.836894035339355,-1.170688509941101
1780853139262028000,2.535028076171875,-0.1381855010986328,-9.899106979370117,-1.191625714302063
1780853139310548200,2.58354833984375,-0.2024926096200943,-9.8838529586792,-1.1515458822250366
1780853139359068700,2.632068603515625,-0.13698910176753998,-9.866206169128418,-1.2675977945327759
1780853139407588900,2.6805888671875,-0.14775680005550385,-9.905388832092285,-1.2604193687438965
1780853139456109000,2.729109130859375,-0.20877377688884735,-9.896714210510254,-1.222732424736023
1780853139504629500,2.77762939453125,-0.20997019112110138,-9.89970588684082,-1.1835498809814453
1780853139553149700,2.826149658203125,-0.15314064919948578,-9.888638496398926,-1.1835498809814453
1780853139601670100,2.874670166015625,-0.13160525262355804,-9.893424034118652,-1.1997014284133911
1780853139650190300,2.9231904296875,-0.21714866161346436,-9.844969749450684,-1.173978567123413
1780853139698710800,2.971710693359375,-0.11246266216039658,-9.868000984191895,-1.1850453615188599
1780853139747230700,3.020230712890625,-0.17647066712379456,-9.879366874694824,-1.277169108390808
1780853139795751200,3.068751220703125,-0.14925231039524078,-9.894919395446777,-1.267298698425293
1780853139844271400,3.117271240234375,-0.05174478888511658,-9.86231803894043,-1.2284153699874878
1780853139892791800,3.165791748046875,-0.07028916478157043,-9.8871431350708,-1.2403794527053833
1780853139941312000,3.21431201171875,-0.06939185410737991,-9.891031265258789,-1.1838489770889282
1780853139989832400,3.26283251953125,-0.03409772366285324,-9.848259925842285,-1.212263822555542
1780853140038352600,3.3113525390625,-0.064606212079525,-9.871291160583496,-1.2433704137802124
1780853140086873000,3.359873046875,-0.07328019291162491,-9.902098655700684,-1.2394821643829346
1780853140135393300,3.408393310546875,0.0005982056609354913,-9.88086223602295,-1.174277663230896
1780853140183913500,3.45691357421875,-0.04247260093688965,-9.885647773742676,-1.1958130598068237
1780853140232434000,3.505433837890625,-0.04217349737882614,-9.929316520690918,-1.1365907192230225
1780853140280954000,3.5539541015625,-0.0568295381963253,-9.881460189819336,-1.2059825658798218
1780853140329474600,3.602474609375,0.010468599386513233,-9.818648338317871,-1.1563315391540527
1780853140377994800,3.650994873046875,-0.054137613624334335,-9.926325798034668,-1.2005987167358398
1780853140426515200,3.69951513671875,-0.0972084179520607,-9.907781600952148,-1.1644073724746704
1780853140475035400,3.748035400390625,0.040677983313798904,-9.870991706848145,-1.1647064685821533
1780853140523555800,3.796555908203125,0.001794616924598813,-9.893723487854004,-1.1575279235839844
1780853140620596200,3.89359619140625,-0.0029910283628851175,-9.909575462341309,-1.1907284259796143
1780853140669116400,3.942116455078125,-0.0008973084622994065,-9.848259925842285,-1.1820544004440308
1780853140717636900,3.990636962890625,0.07806584239006042,-9.866504669189453,-1.2077772617340088
1780853140766157000,4.039156982421875,0.05353940650820732,-9.844969749450684,-1.1309077739715576
1780853140814677500,4.087677490234375,0.012562318705022335,-9.9140625,-1.1518449783325195
1780853140863197700,4.13619775390625,0.038285162299871445,-9.920642852783203,-1.1001001596450806
1780853140911718100,4.18471826171875,0.09960123896598816,-9.871889114379883,-1.1231311559677124
1780853140960238300,4.23323828125,0.04695914313197136,-9.923633575439453,-1.1285150051116943
1780853141008758500,4.281758544921875,0.041575293987989426,-9.926026344299316,-1.1446665525436401
1780853141057279000,4.330279052734375,0.11425728350877762,-9.879366874694824,-1.1084750890731812
1780853141105799200,4.378799072265625,0.15493527054786682,-9.896116256713867,-1.1120643615722656
1780853141202839600,4.475839599609375,0.13579268753528595,-9.88086223602295,-1.0878369808197021
1780853141251360000,4.524360107421875,0.13250255584716797,-9.891928672790527,-1.1327024698257446
1780853141299880200,4.572880126953125,0.10199406743049622,-9.89432144165039,-1.1150553226470947
1780853141348400600,4.621400634765625,0.12771691381931305,-9.916754722595215,-1.1276177167892456
1780853141396920800,4.6699208984375,0.11096715182065964,-9.881759643554688,-1.1285150051116943
1780853141445441000,4.71844091796875,0.10588239878416061,-9.916455268859863,-1.1539387702941895
1780853141493961200,4.766961181640625,0.08285148441791534,-9.871889114379883,-1.1455638408660889
1780853141542481700,4.815481689453125,0.10677970945835114,-9.875179290771484,-1.1685947179794312
1780853141591001900,4.864001953125,0.11186445504426956,-9.837491989135742,-1.1494522094726562
1780853141639522300,4.912522216796875,0.06610172241926193,-9.878170013427734,-1.1826525926589966
1780853141688042500,4.96104248046875,0.03170489892363548,-9.860223770141602,-1.1623135805130005
1780853141736563000,5.00956298828125,0.046360939741134644,-9.936494827270508,-1.2140583992004395
1780853141785083000,5.058082763671875,-0.018544375896453857,-9.891031265258789,-1.2083754539489746
1780853141833603000,5.10660302734375,0.14117653667926788,-9.865009307861328,-1.150349497795105
1780853141882123500,5.15512353515625,0.08374879509210587,-9.869794845581055,-1.1324033737182617
1780853141930643700,5.203643798828125,0.034995030611753464,-9.88415241241455,-1.1596217155456543
1780853141979164200,5.2521640625,0.09242277592420578,-9.885647773742676,-1.1766705513000488
1780853142027684400,5.300684326171875,0.05922235921025276,-9.893723487854004,-1.1874382495880127
1780853142076204500,5.34920458984375,0.04695914313197136,-9.900901794433594,-1.1724830865859985
1780853142124724700,5.397724853515625,0.07836493849754333,-9.889535903930664,-1.1491531133651733
1780853142173245200,5.4462451171875,0.08673982322216034,-9.874580383300781,-1.1766705513000488
1780853142221765400,5.494765380859375,0.1013958603143692,-9.881460189819336,-1.1476575136184692
1780853142270285800,5.543285888671875,0.10348957777023315,-9.879964828491211,-1.1509476900100708
1780853142318805800,5.5918056640625,0.06400800496339798,-9.907182693481445,-1.155135154724121
1780853142367326200,5.640326171875,0.08554340898990631,-9.877572059631348,-1.1647064685821533
1780853142415846400,5.688846435546875,0.11635100096464157,-9.906285285949707,-1.1694921255111694
1780853142464366800,5.737366943359375,0.07357929646968842,-9.869794845581055,-1.1527422666549683
1780853142512886800,5.78588671875,0.09990034252405167,-9.902397155761719,-1.1327024698257446
1780853142561407000,5.834406982421875,0.10677970945835114,-9.90568733215332,-1.1653046607971191
1780853142609927400,5.882927490234375,0.18903298676013947,-9.875179290771484,-1.1180464029312134
1780853142658447600,5.931447509765625,0.1378864049911499,-9.887741088867188,-1.1341979503631592
1780853142706968000,5.979968017578125,0.14117653667926788,-9.880562782287598,-1.1174482107162476
1780853142755488300,6.02848828125,0.14745768904685974,-9.884750366210938,-1.1635099649429321
1780853142804008400,6.077008544921875,0.07836493849754333,-9.904789924621582,-1.1772687435150146
1780853142852528600,6.125528564453125,0.10857433080673218,-9.900602340698242,-1.1527422666549683
1780853142901049000,6.174049072265625,0.11814561486244202,-9.870991706848145,-1.170987606048584
1780853142949569000,6.222569091796875,0.13070793449878693,-9.872187614440918,-1.1859427690505981
1780853142998089500,6.27108935546875,0.15314064919948578,-9.894919395446777,-1.124626636505127
1780853143046609700,6.319609619140625,0.08315058797597885,-9.899106979370117,-1.1802598237991333
1780853143095130000,6.368130126953125,0.08763712644577026,-9.897611618041992,-1.1647064685821533
1780853143143650000,6.416650146484375,0.1618146300315857,-9.89133071899414,-1.1470593214035034
1780853143192170500,6.46517041015625,0.1013958603143692,-9.88086223602295,-1.1443674564361572
1780853143240690700,6.513690673828125,0.12023933976888657,-9.894919395446777,-1.1300104856491089
1780853143289211000,6.5622109375,0.0975075215101242,-9.893723487854004,-1.1446665525436401
1780853143337731000,6.61073095703125,0.08374879509210587,-9.923633575439453,-1.1802598237991333
1780853143386251300,6.659251220703125,0.12741780281066895,-9.859326362609863,-1.1335997581481934
1780853143434771700,6.707771728515625,0.1498505175113678,-9.890433311462402,-1.1335997581481934
1780853143483291600,6.756291748046875,0.024825535714626312,-9.87368392944336,-1.1611171960830688
1780853143531812000,6.80481201171875,0.09900303930044174,-9.86411190032959,-1.1581261157989502
1780853143580332300,6.853332275390625,0.09511470049619675,-9.888040542602539,-1.1805589199066162
1780853143628852700,6.901852783203125,0.020039889961481094,-9.900602340698242,-1.1934202909469604
1780853143677372700,6.95037255859375,0.06699903309345245,-9.878170013427734,-1.1694921255111694
1780853143725893000,6.99889306640625,0.06610172241926193,-9.87368392944336,-1.1778669357299805
1780853143774413300,7.047413330078125,0.04127619042992592,-9.879067420959473,-1.1988041400909424
1780853143822933500,7.09593359375,0.054436713457107544,-9.878469467163086,-1.1757732629776
1780853143871453700,7.14445361328125,0.06071787327528,-9.887741088867188,-1.181456208229065
1780853143919974000,7.192973876953125,0.046061836183071136,-9.881759643554688,-1.1829516887664795
1780853143968494000,7.241494140625,0.07477571070194244,-9.888638496398926,-1.176371455192566
1780853144017014300,7.29001416015625,0.062213387340307236,-9.891928672790527,-1.186241865158081
1780853144065534700,7.33853466796875,0.04785645380616188,-9.873384475708008,-1.173978567123413
1780853144114055000,7.387054931640625,0.06400800496339798,-9.910174369812012,-1.1826525926589966
1780853144162575000,7.4355751953125,0.024526432156562805,-9.888638496398926,-1.201795220375061
1780853144211095300,7.48409521484375,0.12622138857841492,-9.853643417358398,-1.160519003868103
1780853144259615500,7.532615478515625,0.08673982322216034,-9.879067420959473,-1.1853444576263428
1780853144308135700,7.5811357421875,0.02063809521496296,-9.881460189819336,-1.1730812788009644
1780853144356656000,7.62965625,0.10857433080673218,-9.872786521911621,-1.1730812788009644
1780853144405176000,7.678176025390625,0.024825535714626312,-9.911669731140137,-1.2092727422714233
1780853144453696500,7.726696533203125,0.030508488416671753,-9.904789924621582,-1.1892328262329102
1780853144502216700,7.775216796875,0.08793623000383377,-9.865009307861328,-1.1931211948394775
1780853144550737000,7.82373681640625,0.05503492057323456,-9.882955551147461,-1.1934202909469604
1780853144599257000,7.872257080078125,0.05174478888511658,-9.888638496398926,-1.189831018447876
1780853144647777300,7.92077734375,0.0687936544418335,-9.892826080322266,-1.2074781656265259
1780853144696297500,7.96929736328125,0.043968115001916885,-9.888638496398926,-1.196411371231079
1780853144744817700,8.017817626953125,0.05832505226135254,-9.891928672790527,-1.1838489770889282
1780853144793337900,8.066337890625,0.06131608039140701,-9.88415241241455,-1.184447169303894
1780853144841858000,8.114858154296876,0.05353940650820732,-9.886545181274414,-1.1907284259796143
1780853144890378500,8.16337841796875,0.06370890140533447,-9.879964828491211,-1.189831018447876
1780853144938898400,8.2118984375,0.05922235921025276,-9.879366874694824,-1.2035897970199585
1780853144987419000,8.2604189453125,0.043968115001916885,-9.903892517089844,-1.184447169303894
1780853145035938800,8.308938720703125,0.035892341285943985,-9.892826080322266,-1.1988041400909424
1780853145084459300,8.357459228515625,0.09990034252405167,-9.854242324829102,-1.1766705513000488
1780853145132979500,8.4059794921875,0.0568295381963253,-9.873384475708008,-1.1835498809814453
1780853145181499600,8.454499755859375,-0.009571290574967861,-9.885647773742676,-1.2005987167358398
1780853145230019800,8.503019775390625,0.064606212079525,-9.875777244567871,-1.1925230026245117
1780853145278540000,8.5515400390625,0.008973085321485996,-9.89970588684082,-1.2337992191314697
1780853145327060200,8.600060302734375,0.0023928226437419653,-9.904491424560547,-1.1868400573730469
1780853145375580400,8.648580322265625,0.07357929646968842,-9.859925270080566,-1.201795220375061
1780853145424100600,8.6971005859375,0.027816563844680786,-9.885647773742676,-1.1988041400909424
1780853145521141000,8.79414111328125,0.03888336941599846,-9.874281883239746,-1.2074781656265259
1780853145569661200,8.8426611328125,0.03200400248169899,-9.891928672790527,-1.200299620628357
1780853145666701600,8.93970166015625,0.043968115001916885,-9.878469467163086,-1.1781660318374634
1780853145715221800,8.9882216796875,0.09242277592420578,-9.859027862548828,-1.1829516887664795
1780853145763742000,9.036741943359376,0.019740786403417587,-9.888040542602539,-1.212263822555542
1780853145812262400,9.085262451171875,0.012562318705022335,-9.90149974822998,-1.1877373456954956
1780853145860782300,9.1337822265625,0.038285162299871445,-9.866206169128418,-1.2233306169509888
1780853145909302800,9.182302734375,0.017647067084908485,-9.9140625,-1.1877373456954956
1780853145957822700,9.23082275390625,-0.01196411345154047,-9.867402076721191,-1.201795220375061
1780853146006343000,9.279343017578125,0.13160525262355804,-9.849455833435059,-1.191625714302063
1780853146103383300,9.37638330078125,-0.028115665540099144,-9.888937950134277,-1.200299620628357
1780853146151903500,9.424903564453125,0.050847481936216354,-9.882955551147461,-1.1877373456954956
1780853146200423700,9.473423583984374,-0.01734796352684498,-9.902996063232422,-1.2149556875228882
1780853146248943900,9.52194384765625,0.03529413416981697,-9.881460189819336,-1.1820544004440308
1780853146297464000,9.570464111328125,0.05503492057323456,-9.875777244567871,-1.2164511680603027
1780853146345984300,9.618984375,0.023030918091535568,-9.880562782287598,-1.2233306169509888
1780853146394504400,9.66750439453125,0.03918246924877167,-9.88086223602295,-1.2029916048049927
1780853146443024600,9.716024658203125,0.046061836183071136,-9.87667465209961,-1.2011969089508057
1780853146491544800,9.764544921875,0.04007977992296219,-9.882955551147461,-1.2098709344863892
1780853146540065000,9.81306494140625,0.0526420995593071,-9.885348320007324,-1.1820544004440308
1780853146588585200,9.861585205078125,0.06610172241926193,-9.871291160583496,-1.1958130598068237
1780853146637105400,9.91010546875,0.04247260093688965,-9.89133071899414,-1.197009563446045
1780853146685625600,9.95862548828125,0.043968115001916885,-9.88415241241455,-1.2161520719528198
1780853146734145800,10.007145751953125,0.05174478888511658,-9.873384475708008,-1.2059825658798218
1780853146782666000,10.055666015625,0.034995030611753464,-9.886245727539062,-1.194915771484375
1780853146831186000,10.10418603515625,0.025722842663526535,-9.905388832092285,-1.2131611108779907
1780853146879706000,10.1527060546875,0.06640082597732544,-9.853643417358398,-1.1820544004440308
1780853146928226300,10.201226318359375,0.0975075215101242,-9.873384475708008,-1.1994023323059082
1780853147025266700,10.2982666015625,0.07028916478157043,-9.86949634552002,-1.1925230026245117
1780853147073787000,10.346786865234375,0.020039889961481094,-9.903294563293457,-1.2281162738800049
1780853147122307000,10.39530712890625,-0.020039889961481094,-9.913464546203613,-1.2140583992004395
1780853147170827300,10.4438271484375,0.06131608039140701,-9.871291160583496,-1.2041879892349243
1780853147219347200,10.49234716796875,0.06610172241926193,-9.8871431350708,-1.1994023323059082
1780853147267867400,10.540867431640624,0.024825535714626312,-9.876076698303223,-1.2137593030929565
1780853147316387600,10.5893876953125,0.040677983313798904,-9.885348320007324,-1.2284153699874878
1780853147413428000,10.686427978515624,0.04486542567610741,-9.863214492797852,-1.1279168128967285
1780853147461948000,10.734947998046875,0.02063809521496296,-9.872187614440918,-1.1054840087890625
1780853147510468400,10.78346826171875,-0.020937198773026466,-9.921540260314941,-1.0633105039596558
1780853147558988300,10.83198828125,0.005682953633368015,-9.89013385772705,-1.1685947179794312
1780853147607508700,10.8805087890625,0.059820566326379776,-9.827920913696289,-1.2457633018493652
1780853147656028700,10.929028564453125,0.07238288223743439,-9.831509590148926,-1.236191987991333
1780853147704548900,10.977548828125,0.0062811593525111675,-9.921540260314941,-1.1596217155456543
1780853147753069000,11.026069091796876,-0.008075776509940624,-9.941280364990234,-1.2499507665634155
1780853147801589200,11.07458935546875,0.1707877218723297,-9.900602340698242,-1.241276741027832
1780853147850109400,11.123109375,0.18813568353652954,-9.854242324829102,-1.2499507665634155
1780853147898629600,11.171629638671876,0.17318053543567657,-9.865009307861328,-1.20687997341156
1780853147947149600,11.220149658203125,0.2886342406272888,-9.859925270080566,-1.093519926071167
1780853147995669800,11.268669677734374,0.22971096634864807,-9.882955551147461,-1.1611171960830688
1780853148044190000,11.31718994140625,0.1579262912273407,-9.824331283569336,-1.1676974296569824
1780853148092710000,11.3657099609375,0.16091732680797577,-9.84257698059082,-1.2266206741333008
1780853148141230300,11.414230224609375,0.12263216078281403,-9.90149974822998,-1.186241865158081
1780853148189750300,11.462750244140626,0.06699903309345245,-9.964611053466797,-1.124626636505127
1780853148238270500,11.5112705078125,0.10618150234222412,-9.931111335754395,-0.9915258884429932
1780853148286790700,11.559790771484375,0.1417747437953949,-9.902098655700684,-0.9732806086540222
1780853148335310800,11.608310791015626,0.08135596662759781,-9.910174369812012,-1.0917253494262695
1780853148383830800,11.656830810546875,0.15164513885974884,-9.827322959899902,-1.0893324613571167
1780853148432351000,11.70535107421875,0.09242277592420578,-9.874580383300781,-1.2448660135269165
1780853148480871200,11.75387109375,0.04007977992296219,-9.89850902557373,-1.0839486122131348
1780853148529391400,11.802391357421875,0.0933200865983963,-9.92542839050293,-1.1024930477142334
1780853148577911600,11.85091162109375,-0.008075776509940624,-9.94845962524414,-1.1874382495880127
1780853148626431700,11.899431640625,0.06520441919565201,-9.888638496398926,-1.2649059295654297
1780853148674951700,11.94795166015625,0.14057832956314087,-9.839286804199219,-1.1446665525436401
1780853148723471600,11.9964716796875,0.1417747437953949,-9.882357597351074,-1.1874382495880127
1780853148771992000,12.044991943359374,0.06999006122350693,-9.919147491455078,-1.1102696657180786
1780853148820512000,12.093511962890625,0.08135596662759781,-9.871889114379883,-1.0001999139785767
1780853148917552000,12.19055224609375,-0.006580262444913387,-9.963713645935059,-1.1231311559677124
1780853148966072600,12.239072509765625,-0.10229317098855972,-9.96700382232666,-1.2329018115997314
1780853149014592500,12.287592529296875,0.0008973084622994065,-9.935896873474121,-1.2562319040298462
1780853149063112700,12.33611279296875,0.24556341767311096,-9.907781600952148,-1.1204391717910767
1780853149111633000,12.3846328125,0.09631111472845078,-9.978668212890625,-1.2116655111312866
1780853149160153000,12.433153076171875,0.15972091257572174,-9.912567138671875,-0.9445667266845703
1780853149208673000,12.481673095703124,0.2186441719532013,-9.889535903930664,-0.9960124492645264
1780853149257193000,12.53019287109375,-0.07417750358581543,-9.843174934387207,-0.9906286001205444
1780853149305713400,12.57871337890625,-0.02871387079358101,-9.907182693481445,-1.0184451341629028
1780853149354233300,12.6272333984375,-0.1585244983434677,-9.862616539001465,-0.8703892230987549
1780853149402753500,12.67575341796875,-0.10438688844442368,-9.870991706848145,-1.2915260791778564
1780853149451273500,12.7242734375,-0.33439695835113525,-9.816853523254395,-1.355234980583191
1780853149499793700,12.772793701171874,-0.29850462079048157,-9.783653259277344,-1.414756417274475
1780853149548313900,12.82131396484375,-0.2144567221403122,-9.709177017211914,-1.5801602602005005
1780853149596834000,12.869833984375,-0.30239295959472656,-9.788140296936035,-1.66929292678833
1780853149645354000,12.91835400390625,-0.47527438402175903,-9.824331283569336,-1.7309080362319946
1780853149693874200,12.966874267578126,-0.373878538608551,-9.848857879638672,-1.612762451171875
1780853149742394000,13.01539404296875,-0.24406790733337402,-9.773782730102539,-1.4030914306640625
1780853149790914300,13.063914306640624,-0.3248256742954254,-9.827920913696289,-1.2586246728897095
1780853149839434500,13.1124345703125,-0.41545382142066956,-9.834501266479492,-1.1754741668701172
1780853149887954400,13.160954345703125,-0.4058825373649597,-10.03549861907959,-1.1988041400909424
1780853149936474600,13.209474609375,-0.4100699722766876,-9.860223770141602,-1.0630114078521729
1780853149984994600,13.25799462890625,-0.3284149169921875,-9.88415241241455,-0.9720842242240906
1780853150082035000,13.355034912109375,-0.3119642436504364,-9.847063064575195,-0.9672985672950745
1780853150130555100,13.40355517578125,-0.21954147517681122,-9.713364601135254,-1.0016953945159912
1780853150179075000,13.452074951171875,-0.16450655460357666,-9.777970314025879,-0.8309076428413391
1780853150227595300,13.50059521484375,-0.372682124376297,-9.88086223602295,-1.0854442119598389
1780853150276115200,13.549115234375,-0.5733801126480103,-9.788140296936035,-1.072582721710205
1780853150324635400,13.597635498046875,-0.2871387302875519,-9.888937950134277,-1.1156535148620605
1780853150373155300,13.6461552734375,0.0852443054318428,-10.295717239379883,-1.7338991165161133
1780853150421675500,13.694675537109376,0.6598208546638489,-9.952646255493164,-2.4113669395446777
1780853150470195700,13.74319580078125,1.561017632484436,-9.442676544189453,-1.944467544555664
1780853150518715600,13.791715576171875,-0.23300109803676605,-10.183255195617676,-1.3384851217269897
1780853150567235800,13.84023583984375,-0.7028916478157043,-10.130613327026367,-0.7522436380386353
1780853150615755800,13.888755859375,0.4459623098373413,-9.635896682739258,-1.0887342691421509
1780853150664276000,13.93727587890625,0.6020939946174622,-9.510871887207031,-1.454237937927246
1780853150712796000,13.9857958984375,0.5925226807594299,-9.68076229095459,-1.275374412536621
1780853150761316000,14.034316162109375,0.5273182988166809,-9.837491989135742,-1.0079765319824219
1780853150809836000,14.0828359375,0.7387840151786804,-9.904789924621582,-1.2849457263946533
1780853150858356200,14.131356201171876,1.3950155973434448,-9.607182502746582,-1.277169108390808
1780853150906876400,14.17987646484375,1.119242787361145,-9.934102058410645,-0.8877372145652771
1780853150955396400,14.228396240234375,1.0510473251342773,-10.984551429748535,-1.3887344598770142
1780853151003916500,14.27691650390625,1.4611172676086426,-11.873784065246582,-0.8192426562309265
1780853151052436500,14.3254365234375,0.22881366312503815,-12.570096015930176,1.4970096349716187
1780853151100956700,14.373956787109375,-1.683051586151123,-10.26042366027832,-0.489631325006485
1780853151149476600,14.4224765625,-0.37507495284080505,-7.187440872192383,-3.5141592025756836
1780853151197996800,14.470996826171875,-0.5048855543136597,-7.774878978729248,-3.3388848304748535
1780853151246516700,14.519516845703125,-0.01615155301988125,-10.465309143066406,-0.9675976634025574
1780853151295037000,14.568036865234374,-1.0968101024627686,-11.598908424377441,0.7576274871826172
1780853151343556900,14.616556884765625,-0.1899302899837494,-10.003793716430664,-0.06311069428920746
1780853151392077000,14.6650771484375,2.0967109203338623,-8.502297401428223,-1.8529419898986816
1780853151440597000,14.713596923828124,1.2532408237457275,-8.543871879577637,-2.077568292617798
1780853151489117000,14.762116943359375,0.7695915699005127,-8.514261245727539,-1.119242787361145
1780853151537637000,14.81063720703125,2.746062994003296,-6.844968318939209,-0.11186445504426956
1780853151634677200,14.90767724609375,3.6807594299316406,-11.545369148254395,0.5383850932121277
1780853151683197200,14.956197265625,1.7754744291305542,-14.743974685668945,1.0785647630691528
1780853151731717400,15.00471728515625,0.3116651475429535,-15.470196723937988,-1.800000786781311
1780853151780237300,15.0532373046875,0.97926265001297,-7.9657063484191895,-2.9862427711486816
1780853151828757500,15.101757568359375,-1.2795618772506714,-9.21715259552002,-1.5017952919006348
1780853151877277400,15.15027734375,-0.9924231767654419,-11.292327880859375,-1.9453648328781128
1780853151925797600,15.198797607421875,-0.2512463629245758,-9.19023323059082,-2.656930446624756
1780853151974317600,15.247317626953125,2.5740790367126465,-7.827520847320557,-1.261914849281311
1780853152022837500,15.29583740234375,3.9631125926971436,-7.414460182189941,-0.2925225794315338
1780853152071357700,15.344357666015625,-1.8696918487548828,-9.24018383026123,0.37148571014404297
1780853152119877600,15.392877685546875,0.4091726839542389,-8.88544750213623,0.008973085321485996
1780853152168397800,15.441397705078124,2.799602508544922,-7.581060409545898,-0.7280163168907166
1780853152216917800,15.489917724609375,4.283750534057617,-9.503693580627441,-1.9836499691009521
1780853152265438000,15.53843798828125,3.3795628547668457,-13.535599708557129,-1.5798611640930176
1780853152313958000,15.5869580078125,1.597508192062378,-13.41027545928955,0.7339983582496643
1780853152362478000,15.63547802734375,0.1498505175113678,-10.074381828308105,0.5638088583946228
1780853152410998000,15.683998046875,-0.1339980661869049,-8.879764556884766,-2.8313074111938477
1780853152459518000,15.73251806640625,-1.1380863189697266,-15.362519264221191,-0.742672324180603
1780853152508038100,15.7810380859375,-0.41575294733047485,-10.633105278015137,3.1594231128692627
1780853152556558000,15.82955810546875,-0.32123643159866333,-7.319644451141357,-0.7743772268295288
1780853152605078300,15.878078369140624,1.013061285018921,-5.787639617919922,-4.611567497253418
1780853152653598200,15.92659814453125,1.379163146018982,-6.298507213592529,-2.2307088375091553
1780853152702118400,15.975118408203125,4.062414646148682,-6.022734642028809,1.709372639656067
1780853152750638300,16.023638427734376,2.8283164501190186,-12.780962944030762,3.07417893409729
1780853152799158300,16.072158203125,3.137887716293335,-14.37458324432373,0.6418746709823608
1780853152847678200,16.12067822265625,4.035794258117676,-12.523435592651367,0.3284149169921875
1780853152896198400,16.169198486328124,-1.6480566263198853,-10.576275825500488,-5.705087184906006
1780853152944718300,16.21771826171875,-0.26979073882102966,-10.231709480285645,-0.618245542049408
1780853152993238300,16.26623828125,0.04366901144385338,-12.803396224975586,-4.246662139892578
1780853153041758500,16.314758544921876,-0.20189441740512848,-9.260822296142578,-3.7429728507995605
1780853153090278400,16.3632783203125,3.775275945663452,-6.469295024871826,-0.9077770709991455
1780853153138798600,16.411798583984375,0.3415754437446594,-7.005287170410156,0.7226324677467346
1780853153187318500,16.460318603515624,-0.7208378314971924,-8.912666320800781,1.1614162921905518
1780853153235838500,16.50883837890625,2.157428741455078,-8.368597984313965,0.19292132556438446
1780853153284358400,16.5573583984375,4.511966228485107,-8.361419677734375,-0.380458801984787
1780853153332878600,16.605878662109376,7.136892795562744,-10.909775733947754,0.005682953633368015
1780853153381398500,16.6543984375,0.3364906907081604,-15.215959548950195,-0.43130627274513245
1780853153429918700,16.702918701171875,0.8910273313522339,-9.32183837890625,0.5057829022407532
1780853153478438700,16.751438720703124,-0.5162515044212341,-9.480961799621582,-3.2294132709503174
1780853153526958600,16.79995849609375,0.49680981040000916,-15.716657638549805,-3.5748770236968994
1780853153575478500,16.848478515625,-0.7289136052131653,-12.196815490722656,3.6595232486724854
1780853153623998500,16.89699853515625,-0.8141579031944275,-7.098607540130615,0.7130611538887024
1780853153672518700,16.9455185546875,1.3399807214736938,-5.013561725616455,-3.3164522647857666
1780853153721038600,16.99403857421875,1.226022481918335,-5.497808933258057,-3.259622573852539
1780853153769558800,17.042558837890624,4.661218643188477,-4.796113967895508,-0.26949164271354675
1780853153818078700,17.09107861328125,1.5592230558395386,-13.35434341430664,1.5858432054519653
1780853153866598700,17.1395986328125,2.5357937812805176,-13.730913162231445,0.7758727669715881
1780853153915118600,17.18811865234375,3.224926710128784,-16.010974884033203,1.6002001762390137
1780853153963638500,17.236638427734373,-2.582453727722168,-10.250253677368164,-3.142374277114868
1780853154012158700,17.28515869140625,-0.9020941257476807,-12.686147689819336,-3.0586254596710205
1780853154060678700,17.3336787109375,0.23210379481315613,-10.789237022399902,-5.796014785766602
1780853154109198600,17.382198486328125,3.6768710613250732,-6.265905380249023,-2.775076150894165
1780853154157718500,17.430718505859375,3.1507492065429688,-6.3116679191589355,1.2810574769973755
1780853154206238700,17.47923876953125,-2.3330020904541016,-7.654041290283203,0.7483552694320679
1780853154254758700,17.527758544921873,0.046360939741134644,-9.758528709411621,0.6789634227752686
1780853154303278800,17.57627880859375,4.834399223327637,-8.33719253540039,-1.1279168128967285
1780853154351798500,17.624798583984376,5.107779026031494,-8.497511863708496,-1.4195420742034912
1780853154400318700,17.673318603515625,2.3554348945617676,-13.469797134399414,-2.5022943019866943
1780853154448838700,17.721838623046875,2.9751758575439453,-12.834502220153809,-0.3963112533092499
1780853154497358600,17.770358642578124,1.3214362859725952,-7.905287742614746,1.9013967514038086
1780853154545878500,17.81887841796875,-0.6810571551322937,-11.596217155456543,-0.9230313301086426
1780853154594398500,17.8673984375,0.376570463180542,-17.200206756591797,-1.2131611108779907
1780853154642918700,17.915918701171876,-1.4222339391708374,-10.058828353881836,3.664308786392212
1780853154691438600,17.9644384765625,-0.10199406743049622,-5.925526142120361,-0.13878370821475983
1780853154739958500,18.01295849609375,2.3344976902008057,-4.421338081359863,-4.030111312866211
1780853154788478500,18.061478515625,1.594218134880066,-6.114260196685791,-3.6323046684265137
1780853154836998700,18.10999853515625,3.8036906719207764,-7.118049144744873,0.9643075466156006
1780853154885518600,18.1585185546875,2.66560435295105,-13.95553970336914,2.4113669395446777
1780853154934038500,18.20703857421875,4.058825492858887,-13.960624694824219,1.3465609550476074
1780853154982558500,18.255558349609377,1.2059825658798218,-14.193326950073242,-1.7027924060821533
1780853155031078400,18.304078369140626,-2.5770699977874756,-10.627422332763672,-1.9160526990890503
1780853155079598600,18.3525986328125,-1.563111424446106,-13.551153182983398,-4.203291893005371
1780853155128118300,18.4011181640625,0.3406781256198883,-10.15573787689209,-5.546562671661377
1780853155176638500,18.449638427734374,4.42821741104126,-5.781059741973877,-2.2642083168029785
1780853155225158400,18.498158447265624,2.513062000274658,-6.061916828155518,0.851844847202301
1780853155273678300,18.54667822265625,-2.462214469909668,-7.691429138183594,1.2005987167358398
1780853155322198300,18.5951982421875,1.9435701370239258,-9.562616348266602,1.2352946996688843
1780853155370718500,18.643718505859376,4.133302211761475,-7.994420528411865,0.3248256742954254
1780853155419238100,18.692238037109377,7.799106121063232,-8.223533630371094,-0.6762714982032776
1780853155467758000,18.740758056640626,0.7857431173324585,-17.044973373413086,-1.1455638408660889
1780853155516278300,18.7892783203125,1.7521443367004395,-11.352447509765625,1.555932879447937
1780853155564798000,18.8377978515625,-1.4467604160308838,-8.81934642791748,-1.155135154724121
1780853155613318100,18.886318115234374,0.5679962635040283,-13.308879852294922,-4.204189300537109
1780853155661838000,18.934838134765624,-0.8676972985267639,-14.510973930358887,3.3771700859069824
1780853155710358000,18.98335791015625,-1.272084355354309,-7.372286796569824,1.4126626253128052
1780853155758878000,19.0318779296875,1.5200406312942505,-5.224130153656006,-1.908874273300171
1780853155807398100,19.080398193359375,1.7482560873031616,-5.101497650146484,-3.4193434715270996
1780853155855917800,19.128917724609376,4.094717979431152,-4.9531426429748535,-0.8225327730178833
1780853155904437800,19.177437744140626,1.5634105205535889,-9.867103576660156,2.020439624786377
1780853155952958000,19.2259580078125,1.822433590888977,-16.103696823120117,1.0369895696640015
1780853156001478000,19.274477783203125,4.6061835289001465,-16.098012924194336,3.082852840423584
1780853156049997800,19.322997802734374,-1.9166508913040161,-10.30199909210205,-5.938088417053223
1780853156098517800,19.371517822265623,-0.8988040089607239,-13.024133682250977,-3.3433713912963867
1780853156147037700,19.42003759765625,-1.1644073724746704,-13.22124195098877,-5.31685209274292
1780853156195557600,19.4685576171875,0.10438688844442368,-7.21525764465332,-3.2967114448547363
1780853156244077800,19.517077880859375,6.533303260803223,-4.931607246398926,-0.20428723096847534
1780853156292597500,19.565597412109376,0.20009979605674744,-6.215057849884033,1.3657035827636719
1780853156341117400,19.614117431640626,-1.7491533756256104,-9.347262382507324,2.4532413482666016
1780853156389637400,19.662637451171875,3.448655605316162,-9.624530792236328,1.7045869827270508
1780853156438157300,19.7111572265625,3.6538400650024414,-7.912466049194336,-0.6095715761184692
1780853156486677500,19.759677490234374,5.743372440338135,-9.036195755004883,-2.3515465259552
1780853156535197200,19.808197265625,2.1200408935546875,-14.195719718933105,-1.1012966632843018
1780853156583717400,19.85671728515625,2.790928602218628,-9.38315486907959,1.6193426847457886
1780853156632237000,19.905237060546874,-1.0666006803512573,-8.839086532592773,1.6606189012527466
1780853156680757200,19.95375732421875,-1.9591234922409058,-18.495023727416992,-3.0732815265655518
1780853156729277200,20.002277099609376,-0.2718844711780548,-14.318052291870117,1.1979068517684937
1780853156777797000,20.050797119140626,0.6197410821914673,-7.226324558258057,1.9172492027282715
1780853156826317000,20.099317138671875,1.5499508380889893,-5.451747417449951,-2.224726915359497
1780853156874837000,20.1478369140625,0.9251250624656677,-5.505885124206543,-3.552743434906006
1780853156923357000,20.19635693359375,3.0714869499206543,-5.752943992614746,-2.1361923217773438
1780853156971876600,20.244876708984375,3.216850996017456,-6.4686970710754395,2.7212376594543457
1780853157020396800,20.293396728515624,1.724626898765564,-14.530116081237793,-0.06939185410737991
1780853157068916700,20.341916748046874,3.8318064212799072,-19.343578338623047,1.893320918083191
1780853157117436700,20.390436767578127,-1.6621143817901611,-9.831509590148926,-2.812164783477783
1780853157165956600,20.43895654296875,0.13310076296329498,-10.61695384979248,-2.586043119430542
1780853157214476500,20.4874765625,-1.2346965074539185,-16.006189346313477,-5.765805244445801
1780853157262996500,20.53599658203125,-0.27367907762527466,-8.121838569641113,-2.0931215286254883
1780853157311516400,20.584516357421876,5.151747226715088,-5.682953834533691,0.48873403668403625
1780853157360036400,20.633036376953125,2.1000008583068848,-6.159125328063965,0.9993025660514832
1780853157408556000,20.68155615234375,-2.7080769538879395,-8.112565994262695,0.6062814593315125
1780853157457076200,20.730076171875,1.9845472574234009,-8.320442199707031,0.8739784955978394
1780853157505596000,20.778595947265625,3.1977083683013916,-7.888537883758545,-0.25363919138908386
1780853157554116000,20.8271162109375,6.359225273132324,-10.28734302520752,-2.398505687713623
1780853157602635800,20.8756357421875,3.1193435192108154,-14.217554092407227,-0.6245267391204834
1780853157651155700,20.92415576171875,1.8789639472961426,-11.023734092712402,3.1758737564086914
1780853157699675600,20.972675537109374,-1.6600207090377808,-10.045967102050781,-0.16899310052394867
1780853157748195600,21.021195556640624,-0.8703892230987549,-14.332409858703613,-5.371288776397705
1780853157796715500,21.069715576171873,-0.5886343717575073,-14.659029960632324,2.3386850357055664
1780853157845235500,21.1182353515625,-1.31365966796875,-8.29262638092041,2.9688947200775146
1780853157893755400,21.16675537109375,1.9348962306976318,-5.453841209411621,-0.9780662655830383
1780853157942275300,21.215275390625,1.975873351097107,-4.600500583648682,-3.8916268348693848
1780853157990795300,21.263795166015626,2.7906293869018555,-5.664708614349365,-2.621636390686035
1780853158087835100,21.360835205078125,1.4745769500732422,-16.40519142150879,0.7193422913551331
1780853158136355000,21.40935498046875,5.612664699554443,-15.654743194580078,3.4872398376464844
1780853158184875000,21.457875,-0.8216354846954346,-12.323036193847656,-3.0891339778900146
1780853158233395000,21.50639501953125,-1.8544375896453857,-10.852348327636719,-3.5039896965026855
1780853158281914600,21.55491455078125,-0.44327038526535034,-13.934303283691406,-5.164309501647949
1780853158330434800,21.603434814453124,-0.6068796515464783,-8.638090133666992,-3.4648072719573975
1780853158378954500,21.65195458984375,3.9610188007354736,-5.883950710296631,-0.5105685591697693
1780853158427474700,21.700474609375,3.040679454803467,-5.951847076416016,1.1467602252960205
1780853158475994400,21.748994384765624,-2.137687921524048,-8.467302322387695,1.472184181213379
1780853158524514300,21.797514404296876,1.6013965606689453,-8.885149002075195,0.784247636795044
1780853158573034200,21.8460341796875,3.5668013095855713,-7.992027759552002,0.2512463629245758
1780853158621554200,21.89455419921875,7.876275062561035,-10.13898754119873,-2.1535403728485107
1780853158670074000,21.94307421875,2.207977056503296,-15.05264949798584,-0.3236292600631714
1780853158718593800,21.99159375,2.0931215286254883,-9.11575698852539,2.979961395263672
1780853158767114000,22.040114013671875,-2.1143579483032227,-11.565110206604004,-1.0328021049499512
1780853158815633700,22.088633544921876,-0.31824541091918945,-17.434703826904297,-4.020839214324951
1780853158864153900,22.13715380859375,-1.2442678213119507,-13.367204666137695,4.043272018432617
1780853158912673500,22.185673583984375,-0.15702898800373077,-6.74147891998291,1.8990038633346558
1780853158961193500,22.234193359375,2.405683994293213,-5.20379114151001,-2.1837496757507324
1780853159009713400,22.28271337890625,1.8846468925476074,-4.257728576660156,-3.4031920433044434
1780853159058233300,22.3312333984375,3.407379388809204,-4.448855400085449,-2.2366909980773926
1780853159106753300,22.379753173828124,1.4470595121383667,-9.745368003845215,2.3162522315979004
1780853159155273000,22.42827294921875,2.6479573249816895,-16.284055709838867,1.3752747774124146
1780853159203793000,22.47679296875,4.295116424560547,-16.381263732910156,2.8537402153015137
1780853159252312800,22.525312744140624,-0.7585247755050659,-9.647262573242188,-4.735994338989258
1780853159300832800,22.573832763671874,0.35413774847984314,-11.433505058288574,-1.9007984399795532
1780853159349352400,22.6223525390625,-1.1910275220870972,-14.237295150756836,-4.798506736755371
1780853159397872400,22.670872314453124,-0.13878370821475983,-7.8418779373168945,-3.164807081222534
1780853159446392300,22.719392333984374,3.463909864425659,-6.246164321899414,0.18963119387626648
1780853159494912300,22.767912353515626,3.178266763687134,-6.062814235687256,1.6109678745269775
1780853159543432200,22.81643212890625,-2.7008986473083496,-8.22413158416748,0.8670991063117981
1780853159591952000,22.864951904296873,1.2041879892349243,-8.423632621765137,0.009571290574967861
1780853159640472000,22.91347216796875,4.239184379577637,-7.979166030883789,-0.353240430355072
1780853159688991700,22.96199169921875,7.29810905456543,-10.221540451049805,-1.6863417625427246
1780853159737511700,23.01051171875,3.0861430168151855,-14.253446578979492,0.5407779216766357
1780853159786031600,23.059031494140626,0.3978067636489868,-9.795618057250977,2.7535407543182373
1780853159834551600,23.107551513671876,-1.7587246894836426,-13.594223976135254,-2.223829507827759
1780853159883071200,23.1560712890625,-1.0184451341629028,-17.748462677001953,-2.7789642810821533
1780853159931591200,23.204591064453126,-0.3119642436504364,-10.68245792388916,3.2575290203094482
1780853159980111000,23.253111083984376,-0.8237292170524597,-6.206084728240967,0.7513462901115417
1780853160028630800,23.301630859375,1.4673985242843628,-4.798506736755371,-1.1341979503631592
1780853160077151000,23.35015087890625,1.6504493951797485,-5.300102233886719,-2.820539712905884
1780853160125670700,23.398670654296875,3.9346976280212402,-4.741976261138916,-0.7651050686836243
1780853160174190600,23.447190673828125,-0.31016963720321655,-11.859725952148438,2.1415762901306152
1780853160222710500,23.49571044921875,6.691827774047852,-16.709678649902344,1.8098711967468262
1780853160271230500,23.54423046875,0.8718847632408142,-14.679966926574707,-0.5126622319221497
1780853160319750100,23.592750244140625,-2.09431791305542,-9.59372329711914,-3.46809720993042
1780853160368270000,23.64127001953125,0.09870393574237823,-14.234902381896973,-3.50129771232605
1780853160416790000,23.6897900390625,-1.6366907358169556,-12.353245735168457,-3.9840497970581055
1780853160465309700,23.738309814453125,0.28564319014549255,-6.925426959991455,-1.31365966796875
1780853160513830000,23.786829833984374,3.791128396987915,-4.567300319671631,-0.2554338276386261
1780853160562349600,23.835349609375,1.3058829307556152,-6.501298904418945,0.9445667266845703
1780853160610869500,23.883869384765624,-2.300100803375244,-8.828020095825195,-0.4097708761692047
1780853160659389200,23.93238916015625,3.218944549560547,-8.552546501159668,-0.07238288223743439
1780853160707909000,23.9809091796875,6.1534423828125,-8.466703414916992,0.6068796515464783
1780853160756429000,24.029428955078124,5.281557559967041,-14.636896133422852,0.7728816866874695
1780853160804948700,24.07794873046875,2.1541385650634766,-11.032407760620117,1.332802176475525
1780853160853469000,24.126468994140627,-0.09032905846834183,-7.010073184967041,0.8644071817398071
1780853160901988600,24.174988525390624,-2.066800594329834,-19.140188217163086,-3.2940194606781006
1780853160950508500,24.223508544921874,-1.521835207939148,-17.253746032714844,1.2714861631393433
1780853160999028200,24.2720283203125,-0.011066804639995098,-6.848856449127197,2.410170555114746
1780853161047548200,24.320548095703124,0.9385846853256226,-5.19242525100708,0.17318053543567657
1780853161096068000,24.369068115234374,2.298007011413574,-3.5096726417541504,-2.4661028385162354
1780853161144588000,24.417588134765627,3.446262836456299,-4.505086898803711,-3.4642090797424316
1780853161193107700,24.466107666015624,1.4638092517852783,-8.21695327758789,1.6214364767074585
1780853161241627600,24.514627685546873,2.5046870708465576,-16.174882888793945,0.33828529715538025
1780853161290147600,24.563147705078126,7.175177574157715,-13.826327323913574,4.4961137771606445
1780853161338667300,24.611667236328124,-3.85483717918396,-13.805689811706543,-3.4591243267059326
1780853161387187200,24.660187255859373,-1.6648063659667969,-13.28674602508545,-4.712066173553467
1780853161435707100,24.70870703125,0.6562315821647644,-13.010375022888184,-7.182356357574463
1780853161484227000,24.75722705078125,1.0151549577713013,-7.918747425079346,-2.2381865978240967
1780853161532746800,24.805746826171877,4.963312149047852,-5.31984281539917,1.8215361833572388
1780853161581266700,24.8542666015625,0.5368895530700684,-5.233103275299072,2.0282163619995117
1780853161629786400,24.902786376953124,-2.2938196659088135,-8.25703239440918,0.5159524083137512
1780853161678306300,24.951306396484377,3.4091739654541016,-8.862117767333984,0.25692933797836304
1780853161726826200,24.999826171875,5.557928562164307,-8.261519432067871,0.47198426723480225
1780853161775346000,25.048345947265624,4.923531532287598,-15.143277168273926,-1.5290136337280273
1780853161823865900,25.096865966796877,2.3297119140625,-12.32363510131836,2.8002007007598877
1780853161872385500,25.145385498046874,-1.674975872039795,-9.516854286193848,0.6523432731628418
1780853161920905500,25.193905517578123,-0.9469595551490784,-14.947364807128906,-5.788238048553467
1780853161969425400,25.24242529296875,-2.495713949203491,-16.58525276184082,1.817647933959961
1780853162017945000,25.290945068359374,-0.05024927482008934,-7.407281398773193,4.750650405883789
1780853162066465000,25.339465087890623,2.0730817317962646,-5.1550374031066895,-1.664507269859314
1780853162114984700,25.387984619140624,2.6709883213043213,-4.488038063049316,-4.889134883880615
1780853162163505000,25.4365048828125,2.8824539184570312,-5.222634315490723,-0.9194421172142029
1780853162212024600,25.485024658203123,0.47228336334228516,-9.010472297668457,2.0084755420684814
1780853162260544500,25.53354443359375,2.6398816108703613,-14.053047180175781,0.5614160299301147
1780853162309064200,25.582064208984374,6.523432731628418,-13.072587966918945,1.9950158596038818
1780853162357584100,25.630584228515627,-2.1032910346984863,-14.162519454956055,-3.351447105407715
1780853162406103800,25.679103759765624,-2.703291416168213,-11.571091651916504,-0.9897312521934509
1780853162454623700,25.727623779296874,0.8838488459587097,-12.158828735351562,-5.531607627868652
1780853162503143700,25.776143798828127,0.1133599728345871,-9.105587005615234,-4.069293975830078
1780853162551663400,25.824663330078124,2.4822545051574707,-6.7076802253723145,1.0402796268463135
1780853162600183300,25.873183349609373,2.255833625793457,-5.882455348968506,1.2696914672851562
1780853162648703000,25.921702880859375,-1.933998942375183,-8.044071197509766,-0.862313449382782
1780853162697223000,25.970222900390624,1.2140583992004395,-8.861519813537598,-0.3200400173664093
1780853162745742600,26.01874267578125,3.6936209201812744,-7.992027759552002,0.5838487148284912
1780853162794262500,26.067262451171874,6.320342063903809,-10.566106796264648,-1.4889339208602905
1780853162842782500,26.115782470703124,2.4661028385162354,-14.284552574157715,-0.5781657695770264
1780853162891302100,26.16430224609375,1.0360921621322632,-10.564311981201172,2.8172495365142822
1780853162939822000,26.212822021484374,-1.1300104856491089,-13.31276798248291,-1.2424731254577637
1780853162988341800,26.261341796875,-1.3055838346481323,-17.71077537536621,-1.0567302703857422
1780853163036861700,26.30986181640625,-0.8479565382003784,-11.18734359741211,3.160918712615967
1780853163085381400,26.35838134765625,1.1228320598602295,-4.95493745803833,-0.13220344483852386
1780853163133901300,26.4069013671875,1.4638092517852783,-3.6299118995666504,-2.799004316329956
1780853163182421000,26.4554208984375,1.0351948738098145,-4.504787921905518,-2.7326035499572754
1780853163230940700,26.503940673828126,3.582653760910034,-6.175875186920166,-0.9077770709991455
1780853163279460900,26.5524609375,1.1030912399291992,-13.314263343811035,3.2772696018218994
1780853163327980500,26.60098046875,4.2622151374816895,-12.754343032836914,1.9301105737686157
1780853163376500500,26.64950048828125,4.552045822143555,-12.898211479187012,0.26500511169433594
1780853163425020200,26.698020263671875,-4.941776752471924,-14.742778778076172,-3.6538400650024414
1780853163473540000,26.7465400390625,0.42023947834968567,-10.634302139282227,-1.1733803749084473
1780853163522059800,26.795059814453126,2.1741783618927,-11.098808288574219,-6.602396011352539
1780853163570579700,26.843579833984375,1.623231053352356,-8.743971824645996,-1.6453646421432495
1780853163619099400,26.892099365234376,2.3003997802734375,-6.962216377258301,1.5547364950180054
1780853163667619000,26.940619140625,-1.6971094608306885,-6.144768714904785,-0.2063809484243393
1780853163716139000,26.989138916015627,-0.10199406743049622,-8.825627326965332,-0.43549370765686035
1780853163764658700,27.03765869140625,4.103092670440674,-8.228917121887207,0.587138831615448
1780853163813178600,27.0861787109375,4.672285079956055,-8.755337715148926,0.481854647397995
1780853163861698600,27.134698486328126,4.501796722412109,-14.243874549865723,-0.8213363885879517
1780853163910218500,27.183218505859376,2.2546372413635254,-10.871490478515625,1.822433590888977
1780853163958738200,27.23173828125,-0.6885347366333008,-10.88435173034668,0.30628129839897156
1780853164007257900,27.2802578125,-1.3519448041915894,-16.962121963500977,-3.7980077266693115
1780853164055777800,27.32877783203125,-0.87248295545578,-14.315361022949219,1.9525432586669922
1780853164104297500,27.37729736328125,0.6269195079803467,-6.872186660766602,3.3251261711120605
1780853164152817400,27.4258173828125,1.0256235599517822,-4.767100811004639,-1.0815558433532715
1780853164201337000,27.474337158203124,1.5846468210220337,-4.762315273284912,-4.122833251953125
1780853164249857000,27.52285693359375,1.8729819059371948,-5.543571949005127,-3.0275187492370605
1780853164298376700,27.571376708984374,1.5855441093444824,-10.423135757446289,2.3865413665771484
1780853164346896600,27.619896728515624,2.7595226764678955,-12.858131408691406,-0.08195417374372482
1780853164395416300,27.668416259765625,6.254838466644287,-13.023236274719238,0.5383850932121277
1780853164443936000,27.71693603515625,-3.145066261291504,-15.355340957641602,-2.760420083999634
1780853164492456000,27.7654560546875,-2.0338993072509766,-10.285847663879395,0.4899304509162903
1780853164540975600,27.8139755859375,2.0584256649017334,-11.876476287841797,-5.667998790740967
1780853164589495600,27.86249560546875,0.2886342406272888,-8.657830238342285,-3.3445677757263184
1780853164638015200,27.91101513671875,2.6225335597991943,-6.542575359344482,0.6930212378501892
1780853164686535200,27.95953515625,2.3503501415252686,-6.059225082397461,0.7680960893630981
1780853164735054800,28.008054931640626,-2.513062000274658,-8.55583667755127,-0.47676992416381836
1780853164783574500,28.056574462890627,1.1470593214035034,-9.347262382507324,-0.838983416557312
1780853164832094500,28.105094482421876,4.299902439117432,-8.035995483398438,-0.7704889178276062
1780853164880614100,28.1536142578125,6.6744794845581055,-11.321341514587402,-0.7235297560691833
1780853164929134000,28.202134033203127,2.428116798400879,-13.285848617553711,0.32542386651039124
1780853164977653800,28.25065380859375,1.1907284259796143,-9.658329963684082,3.0906295776367188
1780853165026173700,28.299173583984373,-1.7443677186965942,-15.688840866088867,-1.2337992191314697
1780853165074693400,28.347693359375,-1.8912272453308105,-17.571393966674805,-0.4456632137298584
1780853165123213000,28.396213134765624,0.12442677468061447,-8.389236450195312,2.840280532836914
1780853165220252700,28.493252685546874,1.5514464378356934,-4.317549228668213,-3.3843486309051514
1780853165268772600,28.541772705078124,0.9499505758285522,-5.020740032196045,-3.702594041824341
1780853165317292300,28.590292236328125,3.486342668533325,-7.100401878356934,0.3317050337791443
1780853165365812200,28.638812255859374,2.5235304832458496,-15.127425193786621,1.5607185363769531
1780853165414332000,28.687331787109375,5.133502006530762,-12.61167049407959,3.1121649742126465
1780853165462851800,28.735851806640625,0.5934200286865234,-14.656637191772461,-3.0382864475250244
1780853165511371500,28.78437158203125,-2.507079839706421,-9.985847473144531,-1.5568302869796753
1780853165559891200,28.83289111328125,2.000998020172119,-10.106684684753418,-3.3517463207244873
1780853165608411100,28.8814111328125,0.7112665176391602,-11.276775360107422,-5.874379634857178
1780853165656930800,28.929930908203126,-0.07028916478157043,-8.87826919555664,0.14656038582324982
1780853165705450500,28.978450439453123,2.8920252323150635,-6.28205680847168,1.3046865463256836
1780853165753970200,29.02697021484375,-1.1419745683670044,-7.1228346824646,-0.877567708492279
1780853165802490000,29.075489990234374,-0.5733801126480103,-9.588638305664062,-0.6269195079803467
1780853165851009800,29.124009765625,3.2216365337371826,-8.200202941894531,-1.0351948738098145
1780853165899529500,29.172529541015624,4.231108665466309,-9.426225662231445,-1.1662019491195679
1780853165948049400,29.22104931640625,2.6458635330200195,-14.483755111694336,0.7067800164222717
1780853165996569000,29.269569091796875,2.871387243270874,-10.239486694335938,2.0976080894470215
1780853166045089000,29.318089111328124,-0.3358924686908722,-9.80817985534668,1.0920244455337524
1780853166093608700,29.366608642578125,-1.4841482639312744,-14.996716499328613,-2.5698914527893066
1780853166142128600,29.415128662109375,-0.5353940725326538,-15.32214069366455,0.7052844762802124
1780853166190648300,29.4636484375,-0.015254244208335876,-7.57806921005249,1.8320047855377197
1780853166239168300,29.512168212890625,2.0027925968170166,-6.026922225952148,-1.114158034324646
1780853166287688000,29.56068798828125,1.4916257858276367,-5.352146148681641,-1.7156537771224976
1780853166336207600,29.60920751953125,1.470090389251709,-5.929414749145508,-0.6933203339576721
1780853166384727300,29.657727294921877,3.6017963886260986,-7.226324558258057,0.1947159469127655
1780853166433247000,29.7062470703125,2.4532413482666016,-12.4480619430542,1.1303095817565918
1780853166481767000,29.754766845703124,5.675177097320557,-13.711471557617188,3.775275945663452
1780853166530286600,29.80328662109375,-2.1670000553131104,-15.0813627243042,-2.6623141765594482
1780853166578806500,29.851806640625,1.201795220375061,-9.832706451416016,0.2997010350227356
1780853166627326200,29.900326171875,1.475474238395691,-12.064013481140137,-6.81087064743042
1780853166675846000,29.948845947265625,-0.22103698551654816,-9.770493507385254,-1.3504493236541748
1780853166724365800,29.99736572265625,1.516152262687683,-6.6693949699401855,-0.664606511592865
1780853166772885200,30.04588525390625,2.0395822525024414,-5.827420234680176,0.5177469849586487
1780853166821405200,30.0944052734375,-1.3369896411895752,-8.35274600982666,1.1694921255111694
1780853166869924900,30.1429248046875,1.55623197555542,-9.233304023742676,-0.4698905348777771
1780853166918444800,30.19144482421875,3.6472599506378174,-8.483154296875,0.6254240274429321
1780853166966964500,30.239964599609376,5.035097122192383,-10.526924133300781,0.2877369225025177
1780853167015484200,30.288484130859374,3.697509288787842,-13.820046424865723,0.9762716293334961
1780853167064004000,30.337004150390626,2.880061149597168,-8.91954517364502,2.383251428604126
1780853167112523800,30.385523681640624,-0.5473581552505493,-13.703695297241211,0.9580263495445251
1780853167161043500,30.43404345703125,-0.367597371339798,-18.261125564575195,0.393320232629776
1780853167209563100,30.482563232421874,0.6308078765869141,-9.379864692687988,1.7593228816986084
1780853167258083000,30.5310830078125,2.23639178276062,-5.796313762664795,0.8001000881195068
1780853167306602800,30.579602783203125,1.9061822891235352,-4.6459641456604,-0.4220340847969055
1780853167355122400,30.628122314453126,1.6160526275634766,-4.452145576477051,-1.848754644393921
1780853167403642400,30.676642333984375,2.4822545051574707,-6.067300796508789,1.3130614757537842
1780853167452162000,30.725162109375,2.9201409816741943,-11.549257278442383,0.498604416847229
1780853167500681700,30.773681640625,5.760122299194336,-13.449158668518066,4.721039295196533
1780853167549201400,30.822201416015623,-1.4195420742034912,-17.312969207763672,0.9517452120780945
1780853167597721300,30.870721435546876,1.3025928735733032,-11.02463150024414,1.0465607643127441
1780853167646241000,30.919240966796874,1.8203397989273071,-11.06590747833252,-7.340282440185547
1780853167694761000,30.967760986328123,0.2554338276386261,-10.16171932220459,-0.6326025128364563
1780853167743280400,31.0162802734375,1.1078768968582153,-7.2732834815979,-0.4426721930503845
1780853167791800000,31.064800048828126,1.2245270013809204,-5.380560874938965,0.49202415347099304
1780853167840320000,31.113320068359375,-0.4875376224517822,-7.955237865447998,0.1866401731967926
1780853167937359600,31.210359619140625,2.71435809135437,-8.753543853759766,1.212263822555542
1780853167985879000,31.258879150390626,2.430509567260742,-11.062617301940918,0.025423740968108177
1780853168034399000,31.30739892578125,4.094717979431152,-13.540983200073242,1.1802598237991333
1780853168082918700,31.355918701171873,0.973878800868988,-10.493424415588379,3.0891339778900146
1780853168131438300,31.404438232421874,-1.1021939516067505,-13.511372566223145,-0.7663014531135559
1780853168179958300,31.452958251953124,-0.5255236625671387,-15.915261268615723,0.6945167779922485
1780853168228477700,31.501477783203125,0.914058268070221,-10.794022560119629,2.386242389678955
1780853168276997600,31.54999755859375,0.8847461938858032,-6.969694137573242,1.5209379196166992
1780853168325517300,31.598517333984375,1.3438689708709717,-4.902893543243408,-0.6858428120613098
1780853168374037200,31.647037353515625,1.6190435886383057,-4.3447675704956055,-1.118943691253662
1780853168422557000,31.695556884765626,2.7020950317382812,-5.124827861785889,0.053240302950143814
1780853168471076600,31.74407666015625,2.90099835395813,-8.595915794372559,1.8098711967468262
1780853168519596300,31.79259619140625,5.405984401702881,-13.183854103088379,4.83051061630249
1780853168568116000,31.841115966796874,2.834597587585449,-14.407783508300781,5.115854740142822
1780853168616636000,31.889635986328123,-2.7981069087982178,-15.492928504943848,-2.6024937629699707
1780853168665155300,31.9381552734375,3.1441688537597656,-10.200004577636719,-3.1163523197174072
1780853168713675300,31.98667529296875,1.0785647630691528,-11.7326078414917,-3.1800613403320312
1780853168762195000,32.03519482421875,-0.8383852243423462,-10.09442138671875,0.4145565330982208
1780853168810714600,32.08371459960937,1.6396816968917847,-5.7786664962768555,-0.529412031173706
1780853168859234600,32.132234619140625,0.7316055297851562,-5.648557186126709,1.4324034452438354
1780853168907754200,32.18075415039063,0.3334996700286865,-8.222336769104004,1.1207382678985596
1780853168956274000,32.22927392578125,2.743072032928467,-8.831908226013184,1.8553348779678345
1780853169004793600,32.27779370117187,3.521636724472046,-9.92961597442627,1.3645070791244507
1780853169053313300,32.326313232421874,3.840480327606201,-14.199009895324707,1.2553346157073975
1780853169101833000,32.3748330078125,2.9455647468566895,-9.579964637756348,2.467897415161133
1780853169150352600,32.4233525390625,-1.4901303052902222,-12.181262016296387,0.9451649188995361
1780853169198872600,32.47187255859375,-0.21236300468444824,-17.004295349121094,-0.3487538993358612
1780853169247392300,32.520392333984375,-0.12442677468061447,-12.917353630065918,3.0251259803771973
1780853169295912000,32.56891186523438,1.179661512374878,-6.667002201080322,1.70039963722229
1780853169344431600,32.617431640625,1.1335997581481934,-4.734498500823975,-0.7651050686836243
1780853169392951600,32.66595166015625,1.5705889463424683,-4.649254322052002,-0.9538389444351196
1780853169441471000,32.714470947265625,2.669492721557617,-5.3470611572265625,-0.09272187948226929
1780853169489991000,32.76299096679688,2.9072794914245605,-8.50708293914795,2.9102704524993896
1780853169538510600,32.81151049804687,4.855635166168213,-12.5144624710083,2.048854351043701
1780853169587030300,32.8600302734375,5.044070243835449,-13.750953674316406,4.722833633422852
1780853169635550000,32.908550048828126,-3.855435371398926,-14.933606147766113,-1.6588243246078491
1780853169684069600,32.95706958007813,3.352344512939453,-10.540982246398926,-0.1381855010986328
1780853169732589600,33.00558959960937,0.3891327679157257,-11.663515090942383,-4.614259243011475
1780853169781109000,33.05410888671875,0.03738785535097122,-9.140582084655762,0.4384847581386566
1780853169829629000,33.10262890625,1.3710874319076538,-5.650052547454834,0.2727817893028259
1780853169878148600,33.15114868164063,2.0656042098999023,-5.040780067443848,0.9891330599784851
1780853169926668300,33.19966821289062,-1.4922239780426025,-9.141180992126465,0.041575293987989426
1780853169975188000,33.24818798828125,1.8562321662902832,-9.419047355651855,-2.05603289604187
1780853170023707600,33.296707763671876,5.335097312927246,-10.208678245544434,0.8368897438049316
1780853170120747000,33.3937470703125,-0.3819543123245239,-12.725030899047852,2.5465614795684814
1780853170169267000,33.442266845703124,-1.5568302869796753,-11.841181755065918,-2.1780667304992676
1780853170217786600,33.49078662109375,-0.48484569787979126,-13.142279624938965,-3.1962127685546875
1780853170266306300,33.53930639648438,-1.3462618589401245,-12.985848426818848,2.8085756301879883
1780853170314826000,33.58782592773437,-0.5231308341026306,-6.649653911590576,1.5209379196166992
1780853170363345700,33.636345703125,1.9301105737686157,-3.9783668518066406,-2.5250260829925537
1780853170411866000,33.6848662109375,1.3824533224105835,-4.441677093505859,-1.9660029411315918
1780853170460385800,33.7333857421875,4.500301361083984,-5.246861934661865,-0.4944169819355011
1780853170508905500,33.781905517578124,1.399801254272461,-12.888640403747559,3.3888349533081055
1780853170557425200,33.830425048828126,4.653142929077148,-16.1850528717041,2.517249345779419
1780853170605944800,33.87894482421875,0.5210371017456055,-15.489338874816895,-2.7239294052124023
1780853170654464500,33.92746459960937,-0.6906284093856812,-9.09272575378418,-3.7965121269226074
1780853170702984200,33.97598413085937,0.5207380056381226,-13.600804328918457,-4.689034938812256
1780853170751504000,34.02450390625,0.011066804639995098,-10.91755199432373,-2.808276414871216
1780853170800023600,34.0730234375,0.6340979933738708,-6.850052833557129,-0.12293126434087753
1780853170848543200,34.12154321289062,4.883152961730957,-4.6271209716796875,0.9777671694755554
1780853170897063200,34.170063232421874,-0.3684946894645691,-6.901498794555664,0.771087110042572
1780853170945582600,34.21858251953125,-1.6037893295288086,-8.890233039855957,-0.36999019980430603
1780853170994102500,34.2671025390625,3.9131622314453125,-8.85643482208252,-0.4145565330982208
1780853171042622200,34.31562231445312,7.715357303619385,-10.343574523925781,0.19142581522464752
1780853171091142000,34.364141845703124,3.3098719120025635,-13.459627151489258,-0.5608177781105042
1780853171139661600,34.41266162109375,0.8081758618354797,-9.783354759216309,2.2220349311828613
1780853171188181200,34.46118115234375,-2.2962124347686768,-14.390435218811035,-1.800000786781311
1780853171236701000,34.50970092773437,-0.6140581369400024,-17.21247100830078,-0.8877372145652771
1780853171285220600,34.558220703125,-1.2729816436767578,-11.334800720214844,1.9094724655151367
1780853171333740300,34.606740234375,-0.23629122972488403,-6.387341022491455,0.4181457459926605
1780853171382260000,34.65526000976563,3.2120652198791504,-4.3295135498046875,-2.90099835395813
1780853171430779600,34.70377954101563,0.7758727669715881,-4.7967119216918945,-2.7038896083831787
1780853171479299300,34.75229931640625,1.965105652809143,-6.057131290435791,-0.8632107973098755
1780853171527819000,34.800819091796875,3.1671998500823975,-8.277371406555176,2.2821545600891113
1780853171576338700,34.849338623046876,2.949453115463257,-16.440187454223633,3.188735246658325
1780853171624858400,34.8978583984375,3.043670415878296,-15.472589492797852,0.4124628007411957
1780853171673378000,34.9463779296875,-1.1835498809814453,-10.063613891601562,-4.242474555969238
1780853171721897700,34.994897705078124,0.9529415965080261,-13.759627342224121,-3.6161532402038574
1780853171770417400,35.04341748046875,-0.46420758962631226,-12.884751319885254,-4.877170562744141
1780853171818937000,35.09193701171875,-0.37896329164505005,-8.368597984313965,-1.7593228816986084
1780853171867456800,35.14045678710937,3.088535785675049,-5.801697731018066,0.6116653084754944
1780853171915976400,35.1889765625,3.901198148727417,-4.810471057891846,1.1015957593917847
1780853171964496100,35.23749609375,-1.698904037475586,-8.117351531982422,0.5940182209014893
1780853172013015800,35.28601586914063,0.9245268702507019,-8.86361312866211,0.6972087025642395
1780853172061535500,35.33453540039063,3.5150563716888428,-9.33141040802002,0.11306086927652359
1780853172110055200,35.38305517578125,8.368298530578613,-11.807981491088867,-1.0872387886047363
1780853172158574800,35.431574951171875,1.6112669706344604,-13.944473266601562,1.3510475158691406
1780853172207094500,35.480094482421876,-2.1358933448791504,-11.601900100708008,1.2999008893966675
1780853172255614200,35.5286142578125,0.24945175647735596,-12.203993797302246,-3.6783666610717773
1780853172304134000,35.5771337890625,-1.532004714012146,-16.79432487487793,-0.015254244208335876
1780853172352653600,35.625653564453124,-2.1397817134857178,-8.564809799194336,1.958226203918457
1780853172401173200,35.67417333984375,0.37896329164505005,-5.415555953979492,-1.4781662225723267
1780853172449693000,35.72269287109375,2.8528428077697754,-4.305285930633545,-2.7693932056427
1780853172498212600,35.77121264648437,1.472184181213379,-5.580062389373779,-1.5098711252212524
1780853172546732300,35.81973217773437,4.338785648345947,-6.321837425231934,1.5128620862960815
1780853172595252000,35.868251953125,1.4159528017044067,-14.456537246704102,4.485046863555908
1780853172643771400,35.916771484375,5.466104030609131,-15.244672775268555,1.0322039127349854
1780853172692291300,35.96529125976563,-0.6834499835968018,-13.997115135192871,-3.7561333179473877
1780853172740810800,36.01381079101562,0.6287141442298889,-9.189335823059082,-2.039283037185669
1780853172789330400,36.06233032226562,-0.2877369225025177,-14.27169132232666,-4.992923736572266
1780853172837850000,36.11085009765625,-1.1455638408660889,-10.890334129333496,-2.6081767082214355
1780853172886369800,36.15936987304688,0.24406790733337402,-7.565506935119629,-1.2490534782409668
1780853172934889500,36.20788940429688,4.011268138885498,-5.870192050933838,0.3717848062515259
1780853172983409200,36.2564091796875,1.6348960399627686,-6.5578293800354,0.7776673436164856
1780853173031928800,36.3049287109375,-1.8343976736068726,-8.856734275817871,0.33110684156417847
1780853173080448500,36.353448486328126,2.724527597427368,-7.5652079582214355,-1.054337501525879
1780853173128968200,36.40196826171875,3.822235107421875,-8.209176063537598,0.8087740540504456
1780853173177488000,36.45048779296875,6.930212497711182,-12.859626770019531,0.5273182988166809
1780853173226007600,36.499007568359374,2.0180468559265137,-11.689835548400879,1.9677975177764893
1780853173274527200,36.54752734375,-1.8409779071807861,-11.397014617919922,-0.11096715182065964
1780853173323046700,36.59604663085938,-0.6858428120613098,-14.76222038269043,-4.504787921905518
1780853173371566600,36.64456665039062,-1.5930216312408447,-17.052749633789062,2.557927370071411
1780853173420086000,36.6930859375,-0.8988040089607239,-8.28724193572998,2.510669231414795
1780853173468605700,36.741605712890625,1.5619150400161743,-5.406283855438232,-2.0970098972320557
1780853173517125400,36.79012548828125,2.2187447547912598,-3.707977771759033,-3.239881753921509
1780853173565645000,36.83864501953125,1.2035897970199585,-5.1182475090026855,-2.12542462348938
1780853173614164700,36.88716479492187,3.9855451583862305,-6.4085774421691895,1.5936198234558105
1780853173662684400,36.935684326171874,0.7881359457969666,-15.732809066772461,3.264707326889038
1780853173711204000,36.9842041015625,5.762515068054199,-15.786946296691895,2.8833513259887695
1780853173759723800,37.03272387695313,-2.1598215103149414,-13.246068000793457,-5.747560024261475
1780853173808243500,37.08124340820312,1.1180464029312134,-10.515857696533203,-2.896811008453369
1780853173856763000,37.12976293945312,-0.21714866161346436,-13.647165298461914,-4.920540809631348
1780853173905282600,37.178282470703124,-0.5757729411125183,-9.019445419311523,-2.4987051486968994
1780853173953802200,37.22680224609375,2.4631118774414062,-6.543771743774414,-0.08315058797597885
1780853174002322000,37.27532202148438,4.612464904785156,-5.246861934661865,1.449153184890747
1780853174050841600,37.32384155273437,-2.0156540870666504,-7.694719314575195,0.5377869009971619
1780853174099361300,37.372361328125,0.2961117923259735,-9.20578670501709,0.6119644045829773
1780853174147881000,37.420880859375,3.720839262008667,-8.482556343078613,0.12203395366668701
1780853174196400600,37.46940063476563,7.688138961791992,-10.31934642791748,-0.6397809386253357
1780853174244920000,37.51792016601563,2.80767822265625,-14.98295783996582,-1.2705888748168945
1780853174293439700,37.56643969726562,0.742672324180603,-10.172487258911133,3.004786968231201
1780853174341959400,37.61495947265625,-1.8741782903671265,-11.598908424377441,-1.8194425106048584
1780853174390479000,37.66347900390625,-0.6445665955543518,-17.7867488861084,-3.08345103263855
1780853174438998800,37.71199877929688,-1.3887344598770142,-12.37238883972168,4.063013076782227
1780853174536038000,37.80903784179687,3.47019100189209,-4.411766529083252,-2.997309446334839
1780853174584557600,37.8575576171875,1.9366908073425293,-3.7908291816711426,-3.4857444763183594
1780853174633077200,37.9060771484375,4.412963390350342,-4.461717128753662,-1.0336993932724
1780853174681597000,37.95459692382813,0.2186441719532013,-12.204293251037598,1.7410775423049927
1780853174730116600,38.00311669921875,4.607080936431885,-16.1246337890625,3.747758388519287
1780853174778636000,38.05163598632812,3.1498517990112305,-14.732608795166016,1.1156535148620605
1780853174827155700,38.10015576171875,-1.7988044023513794,-10.735697746276855,-4.526323318481445
1780853174875675400,38.14867529296875,0.49591249227523804,-13.096816062927246,-3.8937206268310547
1780853174924195000,38.19719506835938,0.10289137065410614,-11.300403594970703,-5.0551371574401855
1780853174972714800,38.24571484375,-0.28235307335853577,-8.148458480834961,-1.9797616004943848
1780853175021234200,38.29423413085937,4.7611188888549805,-5.725127220153809,0.2431706041097641
1780853175069754000,38.342754150390626,1.332203984260559,-5.794518947601318,1.0896315574645996
1780853175118273500,38.3912734375,-1.623231053352356,-9.231510162353516,1.170688509941101
1780853175166793200,38.43979321289063,2.4951157569885254,-9.355338096618652,0.34307095408439636
1780853175215313000,38.48831298828125,4.051646709442139,-8.028517723083496,0.046061836183071136
1780853175263832300,38.53683227539062,8.309675216674805,-10.906485557556152,-1.3465609550476074
1780853175312352300,38.585352294921876,1.7673985958099365,-14.968003273010254,1.459621787071228
1780853175360871700,38.63387158203125,-0.7363911867141724,-9.463613510131836,3.3828530311584473
1780853175409391400,38.68239135742188,-1.1596217155456543,-11.930015563964844,-2.4089741706848145
1780853175457911000,38.7309111328125,-0.01136590726673603,-16.543376922607422,-3.1163523197174072
1780853175506430700,38.7794306640625,-1.1312068700790405,-10.848160743713379,3.256033420562744
1780853175554950100,38.8279501953125,-0.3484548032283783,-6.552445888519287,0.916451096534729
1780853175603469800,38.8764697265625,1.989033818244934,-4.935794830322266,-2.305185556411743
1780853175651989500,38.92498950195313,1.693221092224121,-4.4497528076171875,-3.19441819190979
1780853175700509000,38.97350903320312,3.4337005615234375,-5.43080997467041,-0.2799602448940277
1780853175749028600,39.02202856445312,2.2597219944000244,-12.024532318115234,2.418246269226074
1780853175797548300,39.07054833984375,3.853940010070801,-17.180465698242188,2.6865415573120117
1780853175846068000,39.11906787109375,1.7994025945663452,-15.683157920837402,-1.272383451461792
1780853175894587600,39.16758764648438,-0.3397808074951172,-8.423632621765137,-4.097409725189209
1780853175943107000,39.21610717773437,-0.15613168478012085,-14.301900863647461,-4.791926383972168
1780853175991626800,39.26462670898437,-0.30149564146995544,-10.42642593383789,-3.841078519821167
1780853176040146400,39.313146484375,-0.03738785535097122,-7.45274543762207,-1.48055899143219
1780853176088666000,39.361666015625,5.61745023727417,-5.4514479637146,0.5231308341026306
1780853176137185500,39.410185546875,-0.28893333673477173,-6.7540411949157715,0.8081758618354797
1780853176185705200,39.45870532226562,-1.0079765319824219,-8.776275634765625,0.6885347366333008
1780853176234225000,39.50722485351562,3.564408540725708,-8.586344718933105,0.6684948205947876
1780853176282744300,39.555744384765624,4.106083869934082,-9.869794845581055,-0.8437690734863281
1780853176331264000,39.604263916015626,7.117151737213135,-14.545071601867676,-1.9459630250930786
1780853176379783700,39.65278369140625,1.0896315574645996,-13.62174129486084,3.628117322921753
1780853176428303400,39.70130346679687,-1.1635099649429321,-9.93978500366211,0.6652047038078308
1780853176476822800,39.74982275390625,0.7824530005455017,-10.27178955078125,-3.5805599689483643
1780853176525342500,39.798342529296875,-1.1312068700790405,-15.736099243164062,-0.053240302950143814
1780853176573862100,39.846862060546876,-1.8975083827972412,-8.69791030883789,0.37088751792907715
1780853176670901200,39.9439013671875,2.5836503505706787,-5.069792747497559,-1.5131611824035645
1780853176719421000,39.9924208984375,1.0369895696640015,-5.679065227508545,-1.090229868888855
1780853176767940600,40.040940673828125,4.109074592590332,-5.540879726409912,2.212463617324829
1780853176816460000,40.0894599609375,1.8320047855377197,-13.288241386413574,4.389932155609131
1780853176864979700,40.13797973632813,3.2264223098754883,-19.014266967773438,1.1359925270080566
1780853176913499400,40.18649951171875,1.8687944412231445,-12.521042823791504,-0.9254241585731506
1780853176962018800,40.23501879882812,0.13639089465141296,-8.558527946472168,-4.011268138885498
1780853177010538500,40.28353857421875,0.5760720372200012,-14.159229278564453,-5.208576679229736
1780853177059058200,40.33205810546875,-0.6589235067367554,-9.380762100219727,-3.375375509262085
1780853177107577900,40.38057788085938,0.9825528264045715,-7.599006652832031,-0.862313449382782
1780853177156097300,40.42909716796875,4.4243292808532715,-6.113063812255859,1.5777673721313477
1780853177204616700,40.47761669921875,1.6061822175979614,-6.9960150718688965,1.134796142578125
1780853177253136600,40.52613671875,-1.202094316482544,-8.622835159301758,0.07507480680942535
1780853177301656000,40.574656005859374,1.425524115562439,-8.375776290893555,-0.4181457459926605
1780853177350175700,40.62317578125,3.7456648349761963,-10.9002046585083,-1.6142579317092896
1780853177398695200,40.67169506835938,6.583552360534668,-13.4132661819458,0.2679961323738098
1780853177447214800,40.72021484375,0.6134598851203918,-13.329816818237305,2.707777976989746
1780853177495734500,40.76873461914062,-1.7985053062438965,-9.997811317443848,-0.0891326442360878
1780853177544254000,40.81725390625,0.4498506486415863,-9.320941925048828,-4.139583110809326
1780853177592773600,40.865773681640626,-1.057627558708191,-16.16172218322754,-0.014955141581594944
1780853177641293000,40.91429296875,-1.8502501249313354,-9.138788223266602,1.693221092224121
1780853177689812700,40.96281274414063,0.2431706041097641,-6.558726787567139,-0.22552353143692017
1780853177738332400,41.01133251953125,3.05234432220459,-4.82542610168457,-2.3967108726501465
1780853177786851800,41.05985180664062,2.264507532119751,-5.361717224121094,-2.0715861320495605
1780853177835371500,41.10837158203125,4.258327007293701,-6.766005039215088,1.9836499691009521
1780853177883891200,41.15689111328125,1.8990038633346558,-14.29143238067627,3.5437703132629395
1780853177932411000,41.20541088867188,5.222933769226074,-15.86022663116455,1.425225019454956
1780853177980930300,41.25393041992187,-1.1395817995071411,-12.709776878356934,-4.563711166381836
1780853178029450000,41.30244995117187,1.1063814163208008,-9.753743171691895,-1.5332010984420776
1780853178077969400,41.350969482421874,-1.1102696657180786,-13.560724258422852,-4.932205677032471
1780853178126489000,41.399489013671875,-0.035892341285943985,-9.986145973205566,-2.6617159843444824
1780853178175008800,41.4480087890625,0.6717849373817444,-7.456932544708252,-0.23210379481315613
1780853178223528200,41.49652807617188,3.446561813354492,-6.7677998542785645,1.9821544885635376
1780853178272047900,41.5450478515625,0.9810572862625122,-7.459026336669922,0.5662016868591309
1780853178320567300,41.5935673828125,-1.5409778356552124,-8.1553373336792,-0.5527420043945312
1780853178369087000,41.6420869140625,2.909074068069458,-7.184150695800781,-0.2386840581893921
1780853178417606700,41.690606689453126,3.923630952835083,-9.767501831054688,-1.6301103830337524
1780853178466126000,41.7391259765625,6.751947402954102,-14.078471183776855,-0.22432711720466614
1780853178514645800,41.78764575195312,1.7916259765625,-11.311470985412598,3.1722846031188965
1780853178563165200,41.83616528320312,-1.923829436302185,-11.25045394897461,-0.20398813486099243
1780853178611684900,41.884684814453124,0.31824541091918945,-13.802399635314941,-4.442873477935791
1780853178660204500,41.93320458984375,-2.184048891067505,-16.0017032623291,2.0141584873199463
1780853178708724200,41.98172412109375,-1.0402796268463135,-8.555238723754883,1.9420746564865112
1780853178757243600,42.03024365234375,1.231406331062317,-5.458925724029541,-1.5481562614440918
1780853178805763000,42.07876318359375,2.393420934677124,-4.303192615509033,-2.7248268127441406
1780853178854282800,42.12728271484375,1.3926228284835815,-5.335994720458984,-2.5459632873535156
1780853178902802200,42.17580224609375,2.791825771331787,-6.423233509063721,1.9468603134155273
1780853178951321900,42.22432177734375,3.5084762573242188,-14.566606521606445,3.768695592880249
1780853178999841500,42.27284155273438,3.8183467388153076,-17.8079833984375,1.947757601737976
1780853179048361000,42.32136083984375,-0.27337998151779175,-12.178569793701172,-2.7741787433624268
1780853179096880600,42.36988061523437,1.2538390159606934,-7.996214866638184,-2.5429723262786865
1780853179145400000,42.41840014648437,-0.8727820515632629,-14.969498634338379,-3.7663028240203857
1780853179193919700,42.466919677734374,-0.906281590461731,-10.361519813537598,-2.991626501083374
1780853179242439200,42.515439208984375,0.8297112584114075,-7.558328628540039,-1.643869161605835
1780853179290958800,42.563958740234376,3.8572301864624023,-5.5498528480529785,0.6418746709823608
1780853179339478500,42.612478515625,1.319043517112732,-6.511767864227295,1.6600207090377808
1780853179387998000,42.660998046875,-1.3399807214736938,-8.3629150390625,0.8428717851638794
1780853179485037000,42.758037109375,5.648557186126709,-10.036395072937012,-1.1446665525436401
1780853179533556700,42.806556640625,5.813063621520996,-13.468301773071289,0.2799602448940277
1780853179582076200,42.855076171875,1.4243277311325073,-11.60519027709961,1.8370895385742188
1780853179630595600,42.903595703125,-0.6164509057998657,-8.588438987731934,1.2634103298187256
1780853179679115500,42.95211547851562,-0.8644071817398071,-15.413665771484375,-3.8913278579711914
1780853179727635000,43.000635009765624,-1.8251254558563232,-17.425132751464844,0.8120641708374023
1780853179776154600,43.049154541015625,-0.6574280261993408,-9.091230392456055,3.1417760848999023
1780853179824674000,43.097674072265626,1.5337992906570435,-5.470890045166016,-0.6622136831283569
1780853179873193700,43.14619384765625,1.9157536029815674,-3.7812578678131104,-3.197409152984619
1780853179921713200,43.19471313476563,1.9124635457992554,-4.925326347351074,-2.675175666809082
1780853179970232600,43.24323266601562,3.1250264644622803,-5.906383514404297,0.661914587020874
1780853180018752300,43.29175219726562,1.545763373374939,-14.688940048217773,3.356531858444214
1780853180067271700,43.340271728515624,5.909374713897705,-14.516357421875,3.392125129699707
1780853180164311000,43.43731103515625,1.2481560707092285,-13.414163589477539,-2.073979139328003
1780853180212830700,43.48583081054687,-0.9254241585731506,-13.346267700195312,-6.9134626388549805
1780853180261350100,43.53435009765625,-0.2670988142490387,-9.910174369812012,-4.423431873321533
1780853180309869600,43.58286962890625,1.5544373989105225,-7.969893932342529,0.3604189157485962
1780853180358389200,43.63138916015625,4.461717128753662,-5.927918910980225,2.3443679809570312
1780853180406908700,43.67990869140625,-0.9969097375869751,-6.960721015930176,1.41834557056427
1780853180455428400,43.72842846679688,0.7154539823532104,-7.756932735443115,-0.06550352275371552
1780853180503947800,43.77694775390625,2.77657151222229,-6.758826732635498,0.6107679605484009
1780853180552467200,43.82546728515625,7.34267520904541,-8.753543853759766,0.4944169819355011
1780853180600987000,43.87398681640625,3.3003005981445312,-13.064811706542969,-1.0247262716293335
1780853180649506300,43.92250634765625,1.399801254272461,-9.73789119720459,1.205384373664856
1780853180698026000,43.97102587890625,-1.1413763761520386,-12.180962562561035,-3.2093734741210938
1780853180746545400,44.01954541015625,-0.737587571144104,-19.721643447875977,-2.5357937812805176
1780853180795065000,44.06806518554688,-1.316949725151062,-15.555740356445312,8.181060791015625
1780853180843584800,44.11658471679687,0.489631325006485,-7.566105365753174,1.6710875034332275
1780853180892104200,44.16510424804687,3.9361932277679443,-4.519443988800049,-4.374678134918213
1780853180989143300,44.262143310546875,0.8679963946342468,-3.5150563716888428,-1.9980069398880005
1780853181037663000,44.3106630859375,4.300799369812012,-5.90877628326416,1.3142578601837158
1780853181086182400,44.35918237304688,1.8394824266433716,-15.382559776306152,1.561017632484436
1780853181134702000,44.4077021484375,5.059324264526367,-15.721741676330566,5.146064281463623
1780853181183221500,44.45622143554687,-1.6381862163543701,-14.722140312194824,-5.494818210601807
1780853181231741000,44.504740966796874,2.1541385650634766,-10.710273742675781,-5.763711452484131
1780853181280260600,44.553260498046875,0.9649057388305664,-15.321243286132812,-5.092525005340576
1780853181328780000,44.601780029296876,-1.2164511680603027,-11.097911834716797,-0.23778675496578217
1780853181377299700,44.6502998046875,3.4447672367095947,-6.278168201446533,1.5571293830871582
1780853181425819100,44.69881909179688,3.028416156768799,-5.302495002746582,1.098903775215149
1780853181474338600,44.74733862304687,-1.6710875034332275,-7.256533622741699,-0.19202402234077454
1780853181522858200,44.79585815429687,2.675773859024048,-7.522436141967773,0.13579268753528595
1780853181571377700,44.844377685546874,6.292525291442871,-7.655537128448486,-1.0761719942092896
1780853181619897300,44.8928974609375,5.883053779602051,-14.474184036254883,-1.1204391717910767
1780853181668416800,44.941416748046876,3.19441819190979,-10.09860897064209,1.55623197555542
1780853181716936400,44.9899365234375,-1.937588095664978,-12.622138977050781,0.5473581552505493
1780853181765456000,45.03845581054688,-0.5030909776687622,-19.68186378479004,-2.5196423530578613
1780853181813975300,45.08697534179687,-1.1048858165740967,-15.268601417541504,0.33918261528015137
1780853181862495000,45.13549487304687,0.6930212378501892,-7.7007012367248535,0.8141579031944275
1780853181911014400,45.184014404296875,1.3869398832321167,-5.181956768035889,-1.8490537405014038
1780853181959534000,45.2325341796875,1.3767703771591187,-2.996711254119873,-2.5076780319213867
1780853182008053500,45.28105346679688,2.3656044006347656,-3.027817964553833,-2.0330018997192383
1780853182056573000,45.32957299804688,2.6688945293426514,-6.723831653594971,2.5746772289276123
1780853182105092600,45.37809252929687,4.660620212554932,-19.485353469848633,4.444368839263916
1780853182153612000,45.42661206054687,4.687539577484131,-15.202499389648438,2.3865413665771484
1780853182202131700,45.475131591796874,1.4874383211135864,-9.834501266479492,-4.4189453125
1780853182250651100,45.523651123046875,0.6239284873008728,-9.661320686340332,-2.134995937347412
1780853182299170800,45.5721708984375,-0.4345964193344116,-13.931910514831543,-3.7438700199127197
1780853182347690200,45.62069018554688,0.2273181527853012,-10.256535530090332,-0.9442676305770874
1780853182396209700,45.66920971679688,0.47288158535957336,-7.361219882965088,-0.36699917912483215
1780853182444729300,45.71772924804687,1.932503342628479,-5.20588493347168,0.5614160299301147
1780853182493248800,45.76624877929687,2.4655046463012695,-5.882455348968506,0.3478565812110901
1780853182541768400,45.8147685546875,-1.5595221519470215,-7.443173885345459,-0.046360939741134644
1780853182590288000,45.863287841796875,1.5056836605072021,-9.094221115112305,-0.6741777658462524
1780853182638807600,45.9118076171875,5.505885124206543,-11.856435775756836,-1.3199408054351807
1780853182687327000,45.96032690429688,6.418447494506836,-13.39262866973877,0.8225327730178833
1780853182735846400,46.00884643554687,2.2190439701080322,-11.264810562133789,3.479762315750122
1780853182784366000,46.05736596679687,-2.331207513809204,-11.205588340759277,-0.4426721930503845
1780853182832885500,46.105885498046874,-0.6158527135848999,-13.966008186340332,-5.429314613342285
1780853182881405200,46.1544052734375,-1.1757732629776,-14.864812850952148,1.0336993932724
1780853182929924600,46.202924560546876,-1.5583257675170898,-8.254341125488281,3.458526134490967
1780853182978444000,46.25144409179688,1.2089736461639404,-4.802993297576904,0.032602209597826004
1780853183026963700,46.29996362304688,3.1663026809692383,-3.8045880794525146,-4.184448719024658
1780853183075483100,46.34848315429687,2.5938198566436768,-4.642076015472412,-3.063411235809326
1780853183124002800,46.3970029296875,1.4261223077774048,-8.387741088867188,2.8052854537963867
1780853183172522200,46.445522216796874,3.681058645248413,-16.51107406616211,2.7891337871551514
1780853183221041700,46.494041748046875,4.914857864379883,-15.162718772888184,2.0691933631896973
1780853183318080500,46.59108056640625,0.986740231513977,-12.704093933105469,-1.4419747591018677
1780853183366600200,46.63960009765625,-0.986740231513977,-13.634902000427246,-5.897709846496582
1780853183415119600,46.68811962890625,0.05832505226135254,-9.512367248535156,-3.1202406883239746
1780853183463639300,46.736639404296874,1.4715858697891235,-6.693323135375977,0.4411766827106476
1780853183512158700,46.78515869140625,3.753441333770752,-4.599603176116943,1.7234305143356323
1780853183560678100,46.83367822265625,-0.760917603969574,-7.040581703186035,1.0585249662399292
1780853183609197800,46.88219775390625,0.0687936544418335,-8.546564102172852,0.22552353143692017
1780853183657717200,46.93071728515625,3.630510091781616,-8.883054733276367,-0.062213387340307236
1780853183706237000,46.97923681640625,6.608078956604004,-9.9981107711792,0.3397808074951172
1780853183754756400,47.02775634765625,2.2654049396514893,-14.716756820678711,0.01615155301988125
1780853183803276000,47.076276123046874,0.8333004713058472,-9.712467193603516,2.7804598808288574
1780853183851795200,47.12479516601562,-1.8367904424667358,-12.299108505249023,-2.020439624786377
1780853183900314600,47.173314697265624,-0.4226323068141937,-16.357933044433594,-4.751547336578369
1780853183948834300,47.221834228515625,-1.8406788110733032,-12.912568092346191,2.9327032566070557
1780853183997353700,47.27035375976563,-1.017547845840454,-7.066603660583496,1.4347963333129883
1780853184045873400,47.31887329101563,2.431705951690674,-4.517649173736572,-2.026122570037842
1780853184094392800,47.36739282226562,1.4087743759155273,-4.351646900177002,-2.5597219467163086
1780853184142912300,47.41591235351562,3.593421459197998,-4.530211448669434,-0.7124629616737366
1780853184191432000,47.464431884765624,1.1730812788009644,-9.893723487854004,2.867199659347534
1780853184239951400,47.512951416015625,4.440480709075928,-15.801602363586426,4.003790378570557
1780853184288471000,47.561470947265626,3.1435706615448,-15.196218490600586,1.6764713525772095
1780853184336990500,47.60999047851563,-1.1264212131500244,-11.439188003540039,-5.678766250610352
1780853184385510000,47.65851000976563,1.8343976736068726,-11.006983757019043,-3.6951162815093994
1780853184434029300,47.707029296875,-0.1899302899837494,-13.73779296875,-4.742574691772461
1780853184482548700,47.755548828125,-1.3743774890899658,-9.61765193939209,-1.0423734188079834
1780853184531068400,47.804068359375,1.6277176141738892,-6.2500529289245605,0.41485562920570374
1780853184579587800,47.852587890625,3.8748772144317627,-4.803890705108643,0.7244270443916321
1780853184628107500,47.901107421875,-1.3989039659500122,-7.821538925170898,0.05922235921025276
1780853184676627000,47.949626953125,1.1374880075454712,-8.593523025512695,0.6197410821914673
1780853184725146400,47.998146484375,3.3484561443328857,-7.266404151916504,1.4051851034164429
1780853184773665800,48.04666577148438,7.0462646484375,-9.450752258300781,-0.06071787327528
1780853184822185200,48.09518530273437,4.265505313873291,-10.71984577178955,-1.500898003578186
1780853184870705000,48.14370483398437,0.8715856671333313,-11.455339431762695,0.4983053207397461
1780853184919224300,48.192224365234374,-4.217648983001709,-23.913869857788086,-2.3330020904541016
1780853184967744000,48.240743896484375,-1.1371889114379883,-17.45564079284668,3.414557933807373
1780853185016263400,48.289263427734376,1.8179470300674438,-8.306085586547852,2.2402801513671875
1780853185064782800,48.33778295898438,2.217548370361328,-5.212165832519531,-1.6501502990722656
1780853185113302300,48.38630224609375,0.8246265053749084,-3.3194432258605957,-3.47019100189209
1780853185161821700,48.43482177734375,2.0252251625061035,-2.913560628890991,-2.705684185028076
1780853185210341400,48.48334130859375,3.6059837341308594,-5.059324264526367,0.7776673436164856
1780853185258860800,48.53186083984375,1.908575177192688,-13.750654220581055,3.8174493312835693
1780853185307380200,48.58038012695312,4.797609329223633,-15.681662559509277,2.5914268493652344
1780853185355900000,48.62889990234375,-0.6116653084754944,-15.335599899291992,-1.5332010984420776
1780853185404419300,48.67741943359375,0.3367897868156433,-10.511670112609863,-3.751347780227661
1780853185452938800,48.72593872070313,2.4661028385162354,-14.10568904876709,-6.460621356964111
1780853185501458200,48.77445825195313,-1.28255295753479,-11.7056884765625,-3.044567823410034
1780853185549977900,48.82297778320312,0.1657029688358307,-8.772686004638672,0.01136590726673603
1780853185598497300,48.87149731445312,3.161816120147705,-5.041677474975586,0.8368897438049316
1780853185647016700,48.9200166015625,1.5481562614440918,-5.2731828689575195,0.8847461938858032
1780853185695536400,48.968536376953125,-1.0298110246658325,-8.546265602111816,0.3810569941997528
1780853185744055600,49.0170556640625,2.375474691390991,-7.581359386444092,0.550349235534668
1780853185792575200,49.0655751953125,5.880062580108643,-7.94716215133667,1.0193424224853516
1780853185841094700,49.1140947265625,6.1944193840026855,-12.820743560791016,0.5341976284980774
1780853185889614000,49.16261401367188,2.7535407543182373,-10.898709297180176,2.0099709033966064
1780853185938133800,49.2111337890625,-3.861417531967163,-14.10808277130127,-0.16091732680797577
1780853185986653000,49.25965283203125,-2.0802602767944336,-19.02952003479004,-6.459125518798828
1780853186035172600,49.308172607421874,1.0917253494262695,-14.110475540161133,4.508676052093506
1780853186083692000,49.356692138671875,-1.3704891204833984,-7.699504852294922,3.9329030513763428
1780853186132211700,49.405211669921876,2.3192434310913086,-4.385445594787598,-2.429612398147583
1780853186180731100,49.45373120117188,2.7080769538879395,-3.50129771232605,-3.5590245723724365
1780853186229250600,49.50225048828125,3.640380620956421,-2.7631118297576904,-1.529910922050476
1780853186277770000,49.55077001953125,1.3668999671936035,-11.562119483947754,2.987139940261841
1780853186326289400,49.59928930664063,7.29182767868042,-17.803497314453125,3.9194436073303223
1780853186374809000,49.64780908203125,3.4127633571624756,-13.170095443725586,3.029911756515503
1780853186423328500,49.69632861328125,-1.2218350172042847,-12.370294570922852,-8.191229820251465
1780853186471848000,49.744847900390624,1.1156535148620605,-9.628120422363281,-2.4756741523742676
1780853186520367400,49.793367431640625,-1.342971682548523,-15.932310104370117,-1.673181176185608
1780853186568886800,49.84188671875,-0.4579264223575592,-10.014860153198242,-0.5288137793540955
1780853186617406500,49.89040649414063,2.257328987121582,-5.707779407501221,-0.5575276613235474
1780853186665926000,49.93892578125,3.445066452026367,-4.405186653137207,0.42023947834968567
1780853186714445300,49.9874453125,0.02153540402650833,-6.560222148895264,1.2999008893966675
1780853186762964700,50.03596484375,0.6613163352012634,-8.316554069519043,0.264706015586853
1780853186811484200,50.08448413085937,2.9168508052825928,-8.56002426147461,-1.9866410493850708
1780853186860003800,50.13300390625,5.9662041664123535,-10.626524925231934,-0.7666005492210388
1780853186908523000,50.18152294921875,3.0526435375213623,-16.917255401611328,1.8664016723632812
1780853186957042700,50.230042724609376,2.761915445327759,-10.764411926269531,4.720141887664795
1780853187005562000,50.27856201171875,-1.4605190753936768,-9.67657470703125,-0.5928218364715576
1780853187054081500,50.32708154296875,0.42412781715393066,-13.396516799926758,-6.86680269241333
1780853187102601200,50.37560131835937,-2.2381865978240967,-15.301502227783203,1.4973087310791016
1780853187151120400,50.42412036132812,-2.178964138031006,-8.970093727111816,4.945964336395264
1780853187199640000,50.47264013671875,1.566401481628418,-5.090431213378906,-1.0079765319824219
1780853187248159500,50.521159423828124,3.5733814239501953,-3.1657042503356934,-4.5577287673950195
1780853187296679200,50.56967919921875,3.452843189239502,-3.853940010070801,-1.8655043840408325
1780853187345198300,50.6181982421875,0.7202396392822266,-9.437891006469727,1.3313066959381104
1780853187393717800,50.6667177734375,4.368396759033203,-17.091033935546875,2.9617161750793457
1780853187442237400,50.71523754882813,5.8235321044921875,-14.475081443786621,4.293621063232422
1780853187490756900,50.7637568359375,-1.0211371183395386,-11.554940223693848,-6.348756790161133
1780853187539276300,50.8122763671875,0.5264210104942322,-10.447063446044922,-1.563111424446106
1780853187587795700,50.86079565429687,-1.5346965789794922,-12.461221694946289,-3.817150354385376
1780853187636315100,50.90931518554687,-0.3125624656677246,-10.495817184448242,-3.184248685836792
1780853187684834600,50.95783447265625,0.5910272002220154,-6.844369888305664,-0.727418065071106
1780853187733354000,51.00635400390625,3.826721668243408,-4.820042133331299,0.7543373107910156
1780853187781873700,51.05487377929688,1.960319995880127,-7.261618614196777,2.6733810901641846
1780853187830393000,51.10339306640625,-0.9499505758285522,-8.950054168701172,1.0878369808197021
1780853187878912500,51.15191259765625,1.4778671264648438,-8.395517349243164,-2.0880367755889893
1780853187927432000,51.20043188476563,8.454739570617676,-8.991629600524902,-2.414358139038086
1780853187975951400,51.24895141601562,2.1517457962036133,-15.811173439025879,0.07178468257188797
1780853188024471000,51.29747094726562,2.0967109203338623,-14.595320701599121,4.240081787109375
1780853188072990200,51.345990234375,-2.2483558654785156,-9.120841979980469,1.0737791061401367
1780853188121510000,51.394510009765625,0.8838488459587097,-10.969595909118652,-4.788636207580566
1780853188170029300,51.443029296875,-1.2317054271697998,-16.191633224487305,-0.5048855543136597
1780853188218548700,51.491548828125,-2.3515465259552,-8.513663291931152,2.6799614429473877
1780853188267068200,51.54006811523438,0.9212366938591003,-5.539982795715332,-1.1835498809814453
1780853188315587600,51.58858764648438,2.978466033935547,-3.6640095710754395,-2.877070188522339
1780853188364107000,51.63710693359375,3.406482219696045,-4.064508438110352,-1.8143577575683594
1780853188412626400,51.68562646484375,1.7267206907272339,-7.160820960998535,2.4631118774414062
1780853188461145900,51.73414575195312,3.0667014122009277,-16.21077537536621,3.996612071990967
1780853188509665500,51.78266552734375,3.557229995727539,-18.964614868164062,3.0963125228881836
1780853188558184700,51.831184814453124,0.5303093194961548,-9.9502534866333,-4.238286972045898
1780853188606704400,51.879704345703125,1.7778671979904175,-10.199706077575684,-2.7580273151397705
1780853188655223800,51.928223876953126,-1.0552347898483276,-15.358631134033203,-4.382753849029541
1780853188703743200,51.9767431640625,-0.24466611444950104,-8.466404914855957,-2.674278497695923
1780853188752262700,52.0252626953125,1.4294124841690063,-6.703193664550781,-0.42831525206565857
1780853188800782000,52.07378198242188,4.625326156616211,-4.969892501831055,1.6600207090377808
1780853188849301500,52.12230151367187,-1.898106575012207,-6.554539203643799,0.9891330599784851
1780853188897821000,52.17082104492187,0.7992027401924133,-8.420342445373535,0.6245267391204834
1780853188946340600,52.219340576171874,2.228316068649292,-9.030512809753418,-0.5527420043945312
1780853188994859800,52.26785986328125,7.655537128448486,-10.74138069152832,-1.4889339208602905
1780853189043379200,52.316379150390624,3.4295129776000977,-14.745171546936035,1.194915771484375
1780853189091899000,52.36489892578125,1.4949159622192383,-10.85862922668457,3.8347973823547363
1780853189140418000,52.41341796875,-3.0957143306732178,-11.076375961303711,-0.992124080657959
1780853189188937700,52.46193774414063,-0.5135595798492432,-14.849259376525879,-6.3442702293396
1780853189237457200,52.51045703125,-1.358525037765503,-13.837693214416504,2.2618155479431152
1780853189285976600,52.5589765625,-1.511366605758667,-7.932805061340332,3.710669755935669
1780853189334496000,52.60749609375,1.984248161315918,-5.08654260635376,-0.8201399445533752
1780853189383015400,52.65601538085937,2.5995028018951416,-4.665405750274658,-4.002593994140625
1780853189431534800,52.704534912109374,2.9665019512176514,-4.741976261138916,-2.0673987865448
1780853189480054300,52.75305419921875,2.2357935905456543,-6.836294174194336,1.8903298377990723
1780853189528574000,52.801573974609376,2.2459630966186523,-16.544872283935547,3.1163523197174072
1780853189577093000,52.850093017578125,5.679065227508545,-15.145669937133789,2.9150562286376953
1780853189625612500,52.898612548828126,-3.5069806575775146,-11.741580963134766,-6.007480144500732
1780853189674132200,52.94713232421875,1.724626898765564,-13.532010078430176,-0.992124080657959
1780853189722651400,52.9956513671875,-1.0974082946777344,-13.464412689208984,-5.5360941886901855
1780853189771171000,53.04417114257812,0.12442677468061447,-8.649456024169922,-3.8117663860321045
1780853189819690200,53.09269018554688,2.3554348945617676,-6.572485446929932,-0.4097708761692047
1780853189868209700,53.14120971679687,4.72582483291626,-5.4643096923828125,1.5897315740585327
1780853189916729300,53.18972924804687,-1.2556337118148804,-7.462316513061523,1.7940187454223633
1780853189965248500,53.23824853515625,1.4515460729599,-8.10987377166748,1.389631748199463
1780853190013768200,53.286768310546876,2.4756741523742676,-8.027321815490723,1.0399805307388306
1780853190062287600,53.33528759765625,7.919345855712891,-10.686346054077148,-2.8552355766296387
1780853190110807000,53.38380712890625,1.5658032894134521,-16.298412322998047,0.027816563844680786
1780853190159326500,53.43232641601563,1.8131613731384277,-10.531709671020508,4.516153812408447
1780853190207846000,53.48084594726563,-2.5067808628082275,-11.601301193237305,-0.35473597049713135
1780853190256365300,53.529365234375,-0.1860419660806656,-14.633008003234863,-4.0420756340026855
1780853190304884700,53.577884765625,-2.0180468559265137,-13.369297981262207,2.108076810836792
1780853190353404200,53.62640405273437,-0.8916255235671997,-7.451249599456787,0.06849455088376999
1780853190401923600,53.67492358398437,2.2546372413635254,-4.106681823730469,-2.2531416416168213
1780853190450443000,53.723443115234375,1.8323038816452026,-4.742574691772461,-1.212263822555542
1780853190498962400,53.77196240234375,3.184248685836792,-4.945964336395264,-0.3595215976238251
1780853190547481900,53.82048193359375,2.5357937812805176,-9.067302703857422,3.4136605262756348
1780853190596001300,53.869001220703126,2.669492721557617,-16.98904037475586,3.358625650405884
1780853190644520700,53.91752075195313,3.462414264678955,-15.674484252929688,2.573779821395874
1780853190693040000,53.9660400390625,-0.5048855543136597,-9.81954574584961,-5.009673118591309
1780853190741559600,54.0145595703125,0.6326025128364563,-14.899508476257324,-3.7408790588378906
1780853190790079000,54.06307885742188,-0.5105685591697693,-12.52582836151123,-5.214858055114746
1780853190838598400,54.11159838867187,0.04307080805301666,-8.924330711364746,-2.0548365116119385
1780853190887117800,54.16011791992187,3.2925238609313965,-6.285048007965088,0.6406782865524292
1780853190935637200,54.20863720703125,3.5647075176239014,-4.899603366851807,1.3286148309707642
1780853190984156700,54.25715673828125,-1.2161520719528198,-7.028318405151367,1.225723385810852
1780853191032676000,54.305676025390625,1.5490535497665405,-8.548059463500977,1.8687944412231445
1780853191081195500,54.354195556640626,3.294318675994873,-9.179466247558594,0.30209386348724365
1780853191129715000,54.40271484375,6.187839508056641,-11.48794174194336,-1.6582261323928833
1780853191178234400,54.451234375,1.8655043840408325,-14.571393013000488,0.544965386390686
1780853191226753800,54.49975390625,1.20687997341156,-9.819247245788574,3.7821552753448486
1780853191275273200,54.54827319335938,-1.7117655277252197,-10.558928489685059,-0.8392825126647949
1780853191323792600,54.59679272460937,0.6215356588363647,-14.751152992248535,-2.9470601081848145
1780853191372312000,54.64531201171875,-1.9818553924560547,-13.679168701171875,3.092424154281616
1780853191420831500,54.69383154296875,-0.6897311210632324,-7.890930652618408,1.5083755254745483
1780853191469351000,54.742350830078124,2.1589243412017822,-4.701896667480469,-3.0628130435943604
1780853191517870300,54.790870361328125,1.425524115562439,-4.928317546844482,-2.633899450302124
1780853191566389800,54.8393896484375,2.2845473289489746,-5.25045108795166,-1.1676974296569824
1780853191614909200,54.8879091796875,3.3062827587127686,-7.841279983520508,2.5052852630615234
1780853191663428600,54.9364287109375,3.3293135166168213,-16.231412887573242,1.3519448041915894
1780853191711948000,54.98494799804688,4.312763690948486,-15.691533088684082,3.630510091781616
1780853191760467500,55.03346752929688,-3.2599217891693115,-11.255837440490723,-5.628517150878906
1780853191808987000,55.08198681640625,2.294118642807007,-11.55553913116455,-2.264507532119751
1780853191857506300,55.13050634765625,-2.1708884239196777,-14.685649871826172,-4.696213722229004
1780853191906025700,55.17902563476562,-1.0369895696640015,-8.48435115814209,-3.3882367610931396
1780853191954545000,55.227544921875,2.3234307765960693,-5.948556900024414,-1.2523435354232788
1780853192003064600,55.276064697265625,6.228517532348633,-5.95962381362915,1.124626636505127
1780853192051583700,55.324583740234374,-1.4539388418197632,-8.00638484954834,2.5920250415802
1780853192100103200,55.373103271484375,-0.4995017349720001,-7.008577346801758,1.4374881982803345
1780853192148622800,55.421622802734376,2.8689942359924316,-9.156734466552734,-0.16271193325519562
1780853192197142000,55.47014208984375,7.712067604064941,-11.748759269714355,-1.8200407028198242
1780853192245661700,55.51866162109375,2.090728759765625,-14.648262023925781,2.8313074111938477
1780853192294180900,55.56718090820313,0.589531660079956,-10.438389778137207,3.66520619392395
1780853192342700300,55.6157001953125,-1.2451651096343994,-11.137093544006348,-3.686741590499878
1780853192391219700,55.6642197265625,0.5416752099990845,-15.506986618041992,-3.1250264644622803
1780853192439739100,55.7127392578125,-2.5914268493652344,-13.55623722076416,4.035196304321289
1780853192488258600,55.76125854492187,-0.8877372145652771,-7.800601959228516,0.8805587291717529
1780853192536778000,55.809778076171874,2.953341245651245,-4.543970108032227,-2.6306095123291016
1780853192585297400,55.85829736328125,2.2085752487182617,-3.735196113586426,-2.822932481765747
1780853192633816800,55.90681689453125,3.139383316040039,-3.9305102825164795,-1.2305090427398682
1780853192682336000,55.9553359375,1.8424733877182007,-10.584053039550781,2.195115566253662
1780853192730855700,56.003855712890626,3.0708887577056885,-17.084156036376953,2.487638235092163
1780853192779374800,56.052374755859375,4.986044406890869,-13.455439567565918,4.452145576477051
1780853192827894500,56.10089453125,-1.8137595653533936,-10.004989624023438,-6.624828815460205
1780853192876413700,56.14941357421875,1.7748762369155884,-12.02483081817627,-2.3799612522125244
1780853192924933000,56.19793310546875,-0.4911268353462219,-13.237992286682129,-3.978665828704834
1780853192973452500,56.24645263671875,-0.9077770709991455,-10.093523979187012,-2.6623141765594482
1780853193021972000,56.29497192382812,1.6980067491531372,-6.603592395782471,0.6834499835968018
1780853193070491400,56.34349145507812,4.611567497253418,-5.253142833709717,1.456630825996399
1780853193119010800,56.3920107421875,-1.4276177883148193,-7.814360618591309,0.986740231513977
1780853193167530200,56.4405302734375,0.8255237936973572,-8.483154296875,0.6188437342643738
1780853193216049700,56.489049560546874,2.9805595874786377,-8.373383522033691,0.010468599386513233
1780853193264568800,56.53756884765625,8.436494827270508,-10.96451187133789,-2.2866411209106445
1780853193313088500,56.58608862304688,2.0252251625061035,-15.533307075500488,0.33888351917266846
1780853193361607700,56.634607666015626,1.332203984260559,-9.28564739227295,3.690330743789673
1780853193410127000,56.68312719726563,-2.239083766937256,-11.063814163208008,-0.19680966436862946
1780853193458646500,56.731646484375,-0.34307095408439636,-16.52543067932129,-3.7357943058013916
1780853193507166000,56.780166015625,-0.9002995491027832,-12.69153118133545,2.620140790939331
1780853193555685400,56.82868530273438,-1.2170493602752686,-7.314858913421631,1.3680963516235352
1780853193604204800,56.87720483398437,2.425424814224243,-5.065605640411377,-1.8744773864746094
1780853193652724200,56.92572412109375,1.9639091491699219,-4.5598225593566895,-2.4987051486968994
1780853193701243600,56.97424365234375,3.266202926635742,-4.526622295379639,-1.0920244455337524
1780853193749763000,57.02276318359375,1.181157112121582,-9.465408325195312,2.35872483253479
1780853193798282500,57.071282470703125,4.098905086517334,-17.573488235473633,2.1337995529174805
1780853193846801700,57.1198017578125,4.105485439300537,-15.937694549560547,3.2685956954956055
1780853193895321300,57.1683212890625,-2.5037899017333984,-9.733105659484863,-6.877570629119873
1780853193943840500,57.216840576171876,2.4879374504089355,-11.509476661682129,-2.3395824432373047
1780853193992360000,57.26535986328125,-1.4868401288986206,-13.197912216186523,-4.518247127532959
1780853194040879400,57.31387939453125,-0.6756733059883118,-8.003992080688477,-1.3298112154006958
1780853194089398800,57.36239868164063,3.216850996017456,-5.629713535308838,0.6556333899497986
1780853194137918200,57.41091821289063,3.5207393169403076,-6.396912097930908,1.9016958475112915
1780853194186437400,57.45943725585938,-2.197209358215332,-8.373085021972656,0.5566303730010986
1780853194234956800,57.50795678710937,1.7721842527389526,-8.10987377166748,0.07657032459974289
1780853194283476200,57.55647631835937,4.253541469573975,-9.468399047851562,-0.5724828243255615
1780853194331995600,57.60499560546875,6.661618232727051,-13.113265991210938,-1.6582261323928833
1780853194380515000,57.65351513671875,2.51425838470459,-13.323236465454102,2.108973979949951
1780853194429034500,57.702034423828124,0.47796630859375,-8.94676399230957,3.5820555686950684
1780853194477554000,57.750553955078125,-1.4796617031097412,-12.803096771240234,-2.6234309673309326
1780853194526073300,57.7990732421875,-1.2323036193847656,-16.908283233642578,-4.185046672821045
1780853194574592500,57.847592529296875,-2.092822551727295,-11.228021621704102,3.5979080200195312
1780853194623112000,57.89611181640625,-0.1178465187549591,-6.51954460144043,1.6926229000091553
1780853194671631400,57.94463134765625,2.7364916801452637,-4.302295207977295,-2.4900310039520264
1780853194720150800,57.99315087890625,2.281257390975952,-4.747958183288574,-2.569293260574341
1780853194768670200,58.04167016601563,3.7965121269226074,-4.706682205200195,-0.7519445419311523
1780853194817189600,58.09018969726562,0.3604189157485962,-12.04786205291748,4.76321268081665
1780853194865709000,58.138708984375,4.454538345336914,-15.725630760192871,1.9818553924560547
1780853194914228200,58.18722827148437,2.755634307861328,-16.366008758544922,2.107478618621826
1780853194962748000,58.23574780273437,-0.16809579730033875,-9.441479682922363,-5.057828903198242
1780853195011267000,58.28426708984375,0.7585247755050659,-11.138589859008789,-2.823530673980713
1780853195059786500,58.33278637695312,-1.389631748199463,-14.100305557250977,-3.399303674697876
1780853195108306000,58.381305908203124,-1.2041879892349243,-7.969594955444336,-3.0158538818359375
1780853195156825000,58.4298251953125,1.72941255569458,-6.429514408111572,-0.5617151260375977
1780853195205344800,58.4783447265625,4.7626142501831055,-5.558526992797852,1.5140584707260132
1780853195253864000,58.526864013671876,0.07567301392555237,-7.27956485748291,1.8702900409698486
1780853195302383400,58.57538330078125,-1.765903115272522,-8.401798248291016,-0.35024940967559814
1780853195350902800,58.62390283203125,2.5250260829925537,-9.509675025939941,-1.1922239065170288
1780853195399422000,58.672421875,8.248059272766113,-10.188638687133789,-0.9158528447151184
1780853195447941600,58.72094165039063,2.3084757328033447,-15.089737892150879,1.8942182064056396
1780853195496460800,58.76946069335938,1.6462619304656982,-10.576275825500488,3.4830524921417236
1780853195544980200,58.81798022460937,-2.8791637420654297,-11.164910316467285,-1.8735800981521606
1780853195593499600,58.86649975585937,-0.8392825126647949,-15.731911659240723,-5.68684196472168
1780853195642018800,58.91501879882812,-1.1428718566894531,-13.867304801940918,4.922933578491211
1780853195690538500,58.96353857421875,-1.8574285507202148,-7.037291526794434,2.7212376594543457
1780853195739057700,59.0120576171875,2.4580271244049072,-4.493122577667236,-2.3539392948150635
1780853195787577300,59.060577392578125,2.7311079502105713,-4.201796531677246,-3.671487331390381
1780853195836096500,59.109096435546874,3.1585259437561035,-5.076672554016113,-1.093519926071167
1780853195884616000,59.157615966796875,1.1207382678985596,-9.910174369812012,3.13220477104187
1780853195933135400,59.20613525390625,4.2831525802612305,-16.554445266723633,2.3976082801818848
1780853195981654500,59.254654541015626,3.2751760482788086,-15.407384872436523,1.7644076347351074
1780853196030174000,59.30317407226563,-1.6660027503967285,-10.05703353881836,-5.447559833526611
1780853196078693400,59.351693359375,0.7671987414360046,-12.715459823608398,-3.334996461868286
1780853196127212800,59.400212890625,-1.2116655111312866,-13.73061466217041,-4.195216178894043
1780853196175732200,59.44873217773438,-0.2665006220340729,-8.088638305664062,-2.1816561222076416
1780853196224251400,59.49725146484375,2.557030200958252,-5.629713535308838,-0.15613168478012085
1780853196272770800,59.54577075195313,3.2931220531463623,-6.206982135772705,1.1563315391540527
1780853196321290200,59.59429028320312,-1.7306089401245117,-8.217850685119629,1.135095238685608
1780853196369809700,59.6428095703125,1.8831514120101929,-8.213663101196289,1.0441679954528809
1780853196418328800,59.69132885742187,3.551547050476074,-8.181060791015625,-0.28235307335853577
1780853196466848300,59.73984814453125,7.766504287719727,-11.46939754486084,-1.5188441276550293
1780853196515367700,59.78836767578125,2.492722988128662,-15.07418441772461,1.1922239065170288
1780853196563887000,59.83688720703125,0.5210371017456055,-9.890433311462402,3.960719585418701
1780853196612406500,59.885406494140625,-2.0042879581451416,-12.287742614746094,-2.4756741523742676
1780853196660925700,59.93392578125,-0.8527421951293945,-16.182659149169922,-3.776472330093384
1780853196709445000,59.982445068359375,-1.1395817995071411,-11.804691314697266,4.060021877288818
1780853196757964500,60.030964599609376,-1.072881817817688,-7.057331085205078,1.7868403196334839
1780853196806483700,60.079483642578126,3.0092735290527344,-4.499104976654053,-2.289931297302246
1780853196855003100,60.12800317382813,1.9986051321029663,-4.645366191864014,-2.872284412384033
1780853196903522600,60.1765224609375,3.064607620239258,-4.752744197845459,-1.750050663948059
1780853196952042000,60.2250419921875,2.226222276687622,-10.172487258911133,3.3005998134613037
1780853197049080600,60.32208056640625,5.038686275482178,-14.20858097076416,4.091128349304199
1780853197097600300,60.37060034179687,-3.408874988555908,-10.72702407836914,-6.785147666931152
1780853197146119400,60.41911938476562,2.2259232997894287,-11.806785583496094,-2.4574289321899414
1780853197194638600,60.467638671875,-1.4901303052902222,-13.314562797546387,-5.292923450469971
1780853197243158300,60.516158203125,-0.46899324655532837,-9.691530227661133,-2.6057839393615723
1780853197291677400,60.564677490234374,2.2468605041503906,-7.2197442054748535,0.544965386390686
1780853197340196900,60.61319677734375,4.540979385375977,-5.645565986633301,1.8631114959716797
1780853197388716300,60.66171630859375,-1.2451651096343994,-7.890033721923828,0.716949462890625
1780853197437235500,60.7102353515625,1.1596217155456543,-8.921937942504883,-0.4618147611618042
1780853197485755000,60.7587548828125,3.037987470626831,-6.896114826202393,0.24466611444950104
1780853197534274300,60.8072744140625,9.056235313415527,-9.5895357131958,-1.1312068700790405
1780853197582793700,60.855793701171876,1.9579271078109741,-14.881562232971191,0.5605186820030212
1780853197631313000,60.90431298828125,1.6085749864578247,-9.508179664611816,4.074378967285156
1780853197679832300,60.95283227539063,-1.7437695264816284,-12.201003074645996,-0.698704183101654
1780853197728351700,61.00135180664063,-0.7929216027259827,-18.820148468017578,-3.1839497089385986
1780853197776871000,61.04987084960938,-0.9158528447151184,-12.07478141784668,2.3018953800201416
1780853197825390600,61.098390625,-0.2072782665491104,-7.012465953826904,0.48484569787979126
1780853197873909800,61.14690966796875,1.6510475873947144,-4.832006454467773,-1.9319051504135132
1780853197922429000,61.19542895507813,1.7497515678405762,-4.730610370635986,-2.3201406002044678
1780853197970948600,61.24394848632812,4.118047714233398,-4.24785852432251,-1.1327024698257446
1780853198019467800,61.2924677734375,0.4911268353462219,-10.362417221069336,2.33389949798584
1780853198067987200,61.3409873046875,5.277669429779053,-15.883556365966797,2.447857618331909
1780853198165025800,61.43802587890625,-0.5096712112426758,-8.706583976745605,-5.651248931884766
1780853198213545200,61.486545166015624,0.7618148922920227,-13.29601764678955,-4.25294303894043
1780853198262064400,61.535064453125,-1.2744771242141724,-13.695619583129883,-3.33858585357666
1780853198310584000,61.583583984375,0.06281159073114395,-8.232207298278809,-1.0226325988769531
1780853198359103200,61.632103271484375,2.723032236099243,-5.62163782119751,0.22552353143692017
1780853198407622700,61.68062255859375,3.894618034362793,-5.656034469604492,1.2385848760604858
1780853198456142000,61.72914208984375,-1.927717685699463,-8.535796165466309,0.9158528447151184
1780853198504661200,61.7776611328125,1.1754741668701172,-8.233104705810547,-0.13100704550743103
1780853198553180700,61.8261806640625,3.180659532546997,-8.015357971191406,0.13968102633953094
1780853198601699800,61.87469995117188,8.38145923614502,-10.558629035949707,-1.3935201168060303
1780853198650219500,61.92321948242188,1.4063814878463745,-16.23918914794922,0.506381094455719
1780853198698738700,61.97173876953125,0.6323033571243286,-10.598709106445312,4.540979385375977
1780853198795777500,62.06877758789062,-0.10199406743049622,-16.028621673583984,-4.056432723999023
1780853198844296700,62.11729663085937,-0.8862416744232178,-11.826825141906738,3.8174493312835693
1780853198892816100,62.16581616210937,-1.7165511846542358,-7.055835723876953,1.1371889114379883
1780853198941335300,62.21433520507812,2.74546480178833,-4.813760757446289,-2.469393014907837
1780853198989854700,62.26285473632812,2.286940336227417,-4.849354267120361,-2.9847471714019775
1780853199038374100,62.3113740234375,3.3005998134613037,-4.720141887664795,-0.7887341380119324
1780853199086893300,62.35989331054687,1.1365907192230225,-9.495617866516113,2.8522446155548096
1780853199135413000,62.4084130859375,3.8198423385620117,-15.9203462600708,2.3344976902008057
1780853199183932200,62.45693212890625,4.478466510772705,-14.59920883178711,5.02343225479126
1780853199232451300,62.505451416015624,-3.1839497089385986,-11.286944389343262,-6.413362979888916
1780853199280970800,62.553970703125,3.239283561706543,-12.049656867980957,-1.0160523653030396
1780853199329490200,62.602490234375,-1.7961125373840332,-14.161322593688965,-5.016851902008057
1780853199378009600,62.651009521484376,-0.7618148922920227,-8.588737487792969,-3.3092737197875977
1780853199426528800,62.69952880859375,2.6072793006896973,-6.273083686828613,-1.2203395366668701
1780853199475048000,62.7480478515625,4.3779683113098145,-5.609374523162842,0.3119642436504364
1780853199523567600,62.79656762695313,-1.2403794527053833,-8.862117767333984,1.8454644680023193
1780853199572086800,62.845086669921876,1.3010972738265991,-8.794520378112793,1.4189438819885254
1780853199620606200,62.89360620117188,2.8944180011749268,-7.462316513061523,1.6639090776443481
1780853199669125400,62.94212548828125,7.0546393394470215,-10.400702476501465,-1.4997016191482544
1780853199717645000,62.99064501953125,1.4676976203918457,-16.22483253479004,-0.6014958024024963
1780853199766164200,63.03916430664062,2.1684954166412354,-8.994620323181152,3.8470606803894043
1780853199814683400,63.08768334960938,-1.8047864437103271,-9.847362518310547,0.14057832956314087
1780853199863202800,63.13620288085937,-0.589531660079956,-16.357933044433594,-5.100600719451904
