time,seconds_elapsed,z,y,x
1780853136998454000,0.2714541015625,0,0,0
1780853137046974200,0.31997412109375,0.048499077558517456,0.013987541198730469,0.017816781997680664
1780853137144014800,0.417014892578125,0.026616424322128296,-0.004189491271972656,0.05325615406036377
1780853137241055500,0.514055419921875,0.01937699317932129,0.02590179443359375,0.028322696685791016
1780853137338096000,0.61109619140625,0.0379825085401535,0.012486457824707031,0.03789854049682617
1780853137435136800,0.70813671875,0.021539747714996338,-0.01839923858642578,0.031211495399475098
1780853137532177400,0.805177490234375,0.0503184050321579,-0.0017251968383789062,-0.020967721939086914
1780853137629218000,0.902218017578125,0.10080288350582123,-0.0028753280639648438,-0.001133561134338379
1780853137726258700,0.9992587890625,0.08859521150588989,0.010762214660644531,-0.01974475383758545
1780853137823299300,1.09629931640625,-0.0044206976890563965,0.059012413024902344,-0.06611096858978271
1780853137920340000,1.193340087890625,-0.06664161384105682,-0.02591228485107422,-0.06905496120452881
1780853138017380600,1.290380615234375,-0.012643858790397644,-0.046004295349121094,0.011479973793029785
1780853138114421200,1.387421142578125,0.05012887343764305,-0.015656471252441406,-0.006087183952331543
1780853138211462000,1.4844619140625,0.1422552764415741,0.011931419372558594,0.11770284175872803
1780853138308502500,1.58150244140625,0.07150472700595856,-0.052140235900878906,0.07815444469451904
1780853138405543200,1.678543212890625,0.22902488708496094,0.035305023193359375,0.06301474571228027
1780853138502583800,1.775583740234375,0.2065245658159256,0.08858203887939453,-0.07216358184814453
1780853138599624400,1.87262451171875,-0.14585259556770325,0.05372047424316406,0.005653738975524902
1780853138696665000,1.9696650390625,-0.22745057940483093,-0.08948707580566406,-0.0031772851943969727
1780853138793706000,2.0667060546875,0.1618451625108719,0.09787368774414062,0.009824752807617188
1780853138890746600,2.16374658203125,-0.042294941842556,0.02845287322998047,0.11211621761322021
1780853138939266600,2.2122666015625,-0.036228545010089874,-0.05002593994140625,-0.0014469623565673828
1780853138987786800,2.260786865234375,0.10152795165777206,-0.027283668518066406,-0.03684735298156738
1780853139036307200,2.30930712890625,0.07985898852348328,-0.09883975982666016,-0.05164515972137451
1780853139084828000,2.357827880859375,0.044788017868995667,-0.009896278381347656,0.015083789825439453
1780853139133348000,2.40634814453125,0.09128695726394653,-0.032601356506347656,0.023921966552734375
1780853139181868500,2.45486865234375,0.10474663972854614,0.014510154724121094,-0.028773903846740723
1780853139230388700,2.503388671875,0.10664274543523788,0.06878280639648438,-0.02993929386138916
1780853139278909200,2.5519091796875,0.04199255257844925,-0.0038137435913085938,-0.014954805374145508
1780853139327429400,2.600429443359375,-0.10566909611225128,0.0015401840209960938,-0.006318569183349609
1780853139375949600,2.648949462890625,-0.0668223574757576,-0.005948066711425781,-0.021945595741271973
1780853139424470000,2.697469970703125,-0.028282634913921356,0.007049560546875,-0.09432363510131836
1780853139472990200,2.745990234375,-0.04540448635816574,-0.021552085876464844,-0.0642855167388916
1780853139521510700,2.7945107421875,-0.08554397523403168,-0.005490303039550781,0.0022842884063720703
1780853139570030800,2.84303076171875,-0.04630497097969055,-0.01895427703857422,-0.01360011100769043
1780853139618551300,2.89155126953125,0.04303897172212601,-0.0019941329956054688,0.02284693717956543
1780853139667071500,2.940071533203125,-0.024906635284423828,-0.005419731140136719,-0.01459801197052002
1780853139715592000,2.988592041015625,-0.022637605667114258,0.04490852355957031,0.025467395782470703
1780853139764112000,3.03711181640625,0.03576047718524933,0.0046176910400390625,-0.037351012229919434
1780853139812632300,3.08563232421875,-0.03316597640514374,-0.0011272430419921875,-0.09075844287872314
1780853139861152500,3.134152587890625,0.05623669922351837,-0.0076770782470703125,-0.04546856880187988
1780853139909673000,3.1826728515625,0.09828203916549683,0.011838912963867188,-0.02629375457763672
1780853139958193200,3.231193115234375,0.06310632824897766,-0.005234718322753906,-0.025088191032409668
1780853140006713600,3.279713623046875,0.0828397125005722,0.000507354736328125,0.024845480918884277
1780853140055233800,3.32823388671875,0.07504639029502869,0.03826904296875,-0.04198324680328369
1780853140103754200,3.376754150390625,0.02521871030330658,-0.01981830596923828,-0.04746365547180176
1780853140152274400,3.4252744140625,0.06154472380876541,0.00021839141845703125,-0.0130157470703125
1780853140200794600,3.473794677734375,0.08411473035812378,-0.007403373718261719,0.00973355770111084
1780853140249315000,3.522315185546875,0.02341323345899582,-0.02320098876953125,0.01818382740020752
1780853140297835300,3.570835205078125,0.05041861906647682,-0.024166107177734375,0.03613698482513428
1780853140346355700,3.619355712890625,0.016842186450958252,0.03757286071777344,-0.014301061630249023
1780853140394876000,3.6678759765625,0.08786831051111221,0.027406692504882812,0.004701852798461914
1780853140443396400,3.716396240234375,-0.04605257511138916,-0.048801422119140625,-0.013911962509155273
1780853140491916500,3.76491650390625,0.020324885845184326,-0.0017747879028320312,0.017286300659179688
1780853140588957200,3.861957275390625,0.02811911329627037,-0.018106460571289062,0.02347111701965332
1780853140637477400,3.910477294921875,0.04113687947392464,-0.0023717880249023438,0.0019556283950805664
1780853140685997600,3.95899755859375,0.02033052407205105,-0.006220817565917969,-0.030215978622436523
1780853140734518000,4.00751806640625,0.07149191945791245,0.034523963928222656,-0.0354539155960083
1780853140783038200,4.0560380859375,0.08557482063770294,0.030437469482421875,-0.018066883087158203
1780853140831558700,4.10455859375,0.036982789635658264,0.018425941467285156,0.0207827091217041
1780853140880078800,4.153078857421875,0.001993986312299967,-0.04094505310058594,-0.0020073652267456055
1780853140928599300,4.201599365234375,0.054942455142736435,-0.011880874633789062,0.04556560516357422
1780853140977119500,4.250119384765625,0.054231252521276474,0.008197784423828125,-0.007241964340209961
1780853141025639700,4.2986396484375,0.009257301688194275,-0.03888893127441406,0.013197660446166992
1780853141074160000,4.34716015625,0.023662041872739792,-0.014483451843261719,-0.010568499565124512
1780853141122680000,4.39568017578125,0.13418743014335632,0.009852409362792969,0.029073476791381836
1780853141171200500,4.444200439453125,0.08044461905956268,0.0023975372314453125,0.025873422622680664
1780853141219720700,4.492720703125,0.06118647754192352,0.03023052215576172,0.0461200475692749
1780853141268241200,4.5412412109375,0.09865067899227142,-0.0071468353271484375,0.017261862754821777
1780853141316761300,4.58976123046875,0.05720841512084007,0.00815582275390625,0.0003273487091064453
1780853141365281800,4.63828173828125,0.07130196690559387,-0.01880168914794922,0.005381941795349121
1780853141413802000,4.686802001953125,0.0692441463470459,-0.011866569519042969,0.01870250701904297
1780853141462322200,4.735322265625,0.07063043117523193,0.00095367431640625,-0.007978677749633789
1780853141510842400,4.78384228515625,0.05829411745071411,-0.01658153533935547,-0.0026334524154663086
1780853141559362800,4.83236279296875,0.06193157657980919,0.016870498657226562,-0.013197064399719238
1780853141607883000,4.880883056640625,0.07831405103206635,0.036037445068359375,-0.007730960845947266
1780853141656403500,4.929403564453125,0.05973045900464058,0.03614616394042969,-0.018947124481201172
1780853141704923600,4.977923583984375,-0.012619145214557648,0.01586437225341797,-0.018885493278503418
1780853141753443800,5.02644384765625,0.008488193154335022,-0.012421607971191406,-0.022933602333068848
1780853141801964000,5.074964111328125,-0.012519687414169312,-0.047783851623535156,-0.08569157123565674
1780853141850484200,5.123484130859375,-0.007676370441913605,0.01850128173828125,-0.004369020462036133
1780853141899004700,5.172004638671875,0.11227099597454071,0.023298263549804688,0.005564093589782715
1780853141947524900,5.22052490234375,-0.005744997411966324,0.010258674621582031,0.014717936515808105
1780853141996045300,5.26904541015625,0.01853642612695694,-0.002582550048828125,-0.01860785484313965
1780853142044565200,5.317565185546875,0.02733180671930313,-0.00048065185546875,-0.03233981132507324
1780853142093085700,5.366085693359375,-0.0020879432559013367,-0.020147323608398438,-0.032927632331848145
1780853142141606000,5.41460595703125,0.008184950798749924,-0.0020570755004882812,-0.0034928321838378906
1780853142190126300,5.463126220703125,0.03725973889231682,0.0012578964233398438,-0.0072869062423706055
1780853142238646500,5.511646484375,0.03374151512980461,0.010523796081542969,-0.018529415130615234
1780853142287166700,5.560166748046875,0.04945109412074089,0.007138252258300781,0.01125025749206543
1780853142335687000,5.60868701171875,0.022432107478380203,-0.008768081665039062,-0.011050581932067871
1780853142384207400,5.657207275390625,0.008197888731956482,-0.007053375244140625,0.0004875659942626953
1780853142432727600,5.7057275390625,0.04503929987549782,-0.000732421875,-0.022174596786499023
1780853142481247700,5.754247802734375,0.034244999289512634,-0.005001068115234375,-0.00593411922454834
1780853142529768000,5.802767822265625,0.009614124894142151,0.0038776397705078125,0.0036252737045288086
1780853142578288000,5.8512880859375,0.05288243293762207,-0.015746116638183594,0.0010002851486206055
1780853142626808600,5.89980859375,0.047719068825244904,-0.0024785995483398438,0.011172771453857422
1780853142675328800,5.948328857421875,0.12748724222183228,0.02155017852783203,0.01950693130493164
1780853142723849200,5.99684912109375,0.03657370060682297,-0.0030803680419921875,0.007421731948852539
1780853142772369200,6.045369140625,0.07364736497402191,0.009708404541015625,0.010524272918701172
1780853142820889600,6.0938896484375,0.027883201837539673,-0.009435653686523438,-0.03511643409729004
1780853142869409800,6.142409912109375,-0.00016590207815170288,-0.013484001159667969,-0.025676369667053223
1780853142917930000,6.190929931640625,0.05239693075418472,0.000255584716796875,0.001084446907043457
1780853142966450200,6.2394501953125,0.04770546406507492,0.023261070251464844,-0.05032932758331299
1780853143014970600,6.287970703125,0.06026314198970795,0.0061168670654296875,0.00217592716217041
1780853143063490800,6.33649072265625,0.05769956111907959,-0.01276397705078125,0.010864496231079102
1780853143112011000,6.385010986328125,-0.007912173867225647,-0.009504318237304688,-0.03372550010681152
1780853143160531200,6.43353125,0.05972477048635483,-0.004389762878417969,0.004531741142272949
1780853143209051400,6.482051513671875,0.07037335634231567,-0.004917144775390625,0.008026599884033203
1780853143257571800,6.53057177734375,0.027163065969944,0.014386177062988281,0.009525656700134277
1780853143306092000,6.579092041015625,0.049514852464199066,-0.004883766174316406,0.016249656677246094
1780853143354612200,6.6276123046875,0.022811241447925568,-0.017425537109375,0.005971789360046387
1780853143403132400,6.67613232421875,0.026108771562576294,-0.007029533386230469,-0.023959755897521973
1780853143451652900,6.72465283203125,0.12557488679885864,0.021300315856933594,0.04099321365356445
1780853143500172800,6.7731728515625,0.026020172983407974,-0.0012798309326171875,0.011974096298217773
1780853143548693200,6.821693359375,-0.001547686755657196,0.017017364501953125,0.002360105514526367
1780853143597213400,6.87021337890625,0.0685940682888031,0.014245986938476562,0.008138656616210938
1780853143645733600,6.918733642578125,0.017580047249794006,-0.0068645477294921875,-0.03589677810668945
1780853143694253800,6.96725390625,-0.00873100757598877,-0.009578704833984375,-0.012819170951843262
1780853143742774300,7.015774169921875,0.04409550502896309,0.012661933898925781,0.004590153694152832
1780853143791294500,7.06429443359375,0.01623569428920746,0.013307571411132812,-0.016739487648010254
1780853143839814700,7.112814697265625,0.02141495980322361,0.004302024841308594,-0.014838218688964844
1780853143888334800,7.1613349609375,0.02510765567421913,-0.00128936767578125,-0.00020396709442138672
1780853143936855000,7.20985498046875,0.020438527688384056,0.000095367431640625,-0.01071012020111084
1780853143985375200,7.258375244140625,0.03658115491271019,-0.003864288330078125,0.0017112493515014648
1780853144033895400,7.3068955078125,0.046816591173410416,-0.0031948089599609375,-0.011155128479003906
1780853144082415900,7.355415771484375,0.03271523863077164,-0.012105941772460938,-0.0003349781036376953
1780853144130935800,7.403935791015625,0.032558538019657135,0.011707305908203125,-0.0015027523040771484
1780853144179456300,7.452456298828125,0.04223894327878952,-0.034132957458496094,-0.014275431632995605
1780853144227976400,7.5009765625,0.014640763401985168,0.032723426818847656,0.002656221389770508
1780853144276496600,7.54949658203125,0.1415938138961792,0.012920379638671875,0.006949305534362793
1780853144325016800,7.598016845703125,0.00813911110162735,0.002777099609375,-0.003964781761169434
1780853144373537000,7.646537109375,0.03437762334942818,0.009180068969726562,0.007292985916137695
1780853144422057200,7.69505712890625,0.06457716971635818,-0.012257575988769531,-0.006864190101623535
1780853144470577700,7.74357763671875,-0.015204759314656258,-0.02542877197265625,-0.027598261833190918
1780853144519097900,7.792097900390625,0.05098159983754158,0.0043125152587890625,-0.0001232624053955078
1780853144567618000,7.8406181640625,0.06371134519577026,0.011004447937011719,-0.010899186134338379
1780853144616138200,7.88913818359375,0.028102323412895203,-0.0007648468017578125,-0.008698463439941406
1780853144664658400,7.937658447265625,0.0435619130730629,-0.0011167526245117188,-0.014701485633850098
1780853144713178600,7.9861787109375,0.04159323126077652,-0.014158248901367188,-0.015816211700439453
1780853144761698800,8.03469873046875,0.027460163459181786,0.004555702209472656,-0.0051108598709106445
1780853144810219000,8.083218994140625,0.05426241084933281,-0.013812065124511719,0.0006459951400756836
1780853144858739200,8.1317392578125,0.04242704063653946,0.008406639099121094,0.004497647285461426
1780853144907259600,8.180259765625,0.046174123883247375,0.0006656646728515625,-0.008373260498046875
1780853144955779600,8.228779541015625,0.056718312203884125,-0.001995086669921875,0.003087282180786133
1780853145004299800,8.2772998046875,0.038990601897239685,0.008606910705566406,-0.021799325942993164
1780853145052820000,8.325820068359375,0.03795645758509636,-0.02827167510986328,0.00576472282409668
1780853145101340400,8.37434033203125,0.03202338516712189,0.025325775146484375,0.004677414894104004
1780853145149860600,8.422860595703124,0.1147579625248909,0.01573657989501953,0.0053369998931884766
1780853145198380800,8.471380859375,0.001790037378668785,0.007875442504882812,0.0024901628494262695
1780853145246901000,8.51990087890625,0.011440283618867397,-0.006290435791015625,-0.005039691925048828
1780853145295421000,8.5684208984375,0.055561553686857224,0.010896682739257812,-0.016838669776916504
1780853145343941400,8.61694140625,-0.014264710247516632,-0.0308990478515625,-0.028272151947021484
1780853145392461600,8.665461669921875,0.04586566984653473,0.009882926940917969,0.011444687843322754
1780853145440981800,8.713981689453124,0.059884123504161835,0.009954452514648438,-0.012472271919250488
1780853145489502000,8.762501953125,0.021760733798146248,-0.005709648132324219,-0.0002770423889160156
1780853145538022100,8.811022216796875,0.03780778497457504,0.0048313140869140625,-0.013244271278381348
1780853145635062500,8.9080625,0.041887834668159485,-0.005404472351074219,0.004306197166442871
1780853145683582700,8.956582763671875,0.037616003304719925,-0.011964797973632812,0.0033611059188842773
1780853145732103000,9.00510302734375,0.07330039888620377,0.01770305633544922,0.02242457866668701
1780853145780623000,9.053623046875,0.06622756272554398,0.016214370727539062,-0.008276939392089844
1780853145829143300,9.102143310546875,0.009124187752604485,-0.015394210815429688,-0.00899958610534668
1780853145877663500,9.15066357421875,0.028779221698641777,-0.0053863525390625,-0.003472447395324707
1780853145926183700,9.19918359375,0.039908573031425476,-0.0036773681640625,-0.015898942947387695
1780853145974703900,9.247703857421875,0.01754491776227951,-0.013159751892089844,-0.00695490837097168
1780853146071744300,9.344744140625,0.11734391748905182,0.026404380798339844,0.0006049871444702148
1780853146120264400,9.393264404296875,-0.03459298983216286,0.008997917175292969,-0.0019865036010742188
1780853146168784600,9.44178466796875,0.018285783007740974,-0.008680343627929688,-0.00550532341003418
1780853146217304800,9.490304931640624,0.024967052042484283,-0.011010169982910156,-0.007389426231384277
1780853146265825000,9.538824951171875,0.0022791093215346336,-0.01925182342529297,-0.005487799644470215
1780853146314345200,9.58734521484375,0.059580784291028976,0.012769699096679688,-0.0031805038452148438
1780853146362865400,9.635865478515624,0.04268689081072807,0.00563812255859375,-0.03162407875061035
1780853146411385600,9.684385498046876,0.02644476853311062,0.00038433074951171875,-0.015315413475036621
1780853146459905800,9.73290576171875,0.04918275028467178,0.00213623046875,-0.007278323173522949
1780853146508426000,9.781426025390624,0.04632871598005295,0.0019941329956054688,-0.014002442359924316
1780853146556946000,9.82994580078125,0.04079847037792206,0.0018253326416015625,0.0012131929397583008
1780853146605466400,9.87846630859375,0.05943800508975983,-0.0017986297607421875,0.013083577156066895
1780853146653986300,9.926986328125,0.05744808539748192,0.00493621826171875,-0.0029649734497070312
1780853146702506800,9.9755068359375,0.038517650216817856,-0.013063430786132812,-0.010719776153564453
1780853146751026700,10.024026611328125,0.04714211821556091,0.0025262832641601562,-0.014856100082397461
1780853146799547100,10.072547119140625,0.03978433832526207,0.018060684204101562,-0.011037945747375488
1780853146848067000,10.121067138671876,0.03376251086592674,-0.02388286590576172,0.011155128479003906
1780853146896587300,10.169587158203125,0.025533538311719894,0.0039424896240234375,-0.018833637237548828
1780853146993627600,10.266627685546876,0.02694188617169857,0.002490997314453125,0.0082932710647583
1780853147042147800,10.31514794921875,0.008440190926194191,0.010675430297851562,0.00011014938354492188
1780853147090668000,10.36366796875,0.06008896231651306,0.0067901611328125,0.004292726516723633
1780853147139188200,10.412188232421874,-0.0200587697327137,-0.037743568420410156,-0.042135000228881836
1780853147187708200,10.460708251953125,0.02135688066482544,-0.011778831481933594,0.0007605552673339844
1780853147236228400,10.509228271484375,0.08028435707092285,0.0015888214111328125,0.0016003847122192383
1780853147284748500,10.55774853515625,0.048474594950675964,0.005125999450683594,-0.009078264236450195
1780853147381789000,10.654788818359375,0.0628325343132019,-0.006745338439941406,-0.027077794075012207
1780853147430309000,10.70330908203125,0.023675544187426567,-0.004207611083984375,0.009337067604064941
1780853147478829000,10.7518291015625,0.04244469851255417,0.01998424530029297,0.08535027503967285
1780853147527349500,10.800349609375,-0.022284366190433502,0.0021142959594726562,0.09336984157562256
1780853147575869400,10.848869384765624,-0.019316693767905235,-0.038201332092285156,0.07983481884002686
1780853147624389600,10.8973896484375,0.023007385432720184,0.02147674560546875,-0.04071164131164551
1780853147672909800,10.945909912109375,0.041332803666591644,0.059700965881347656,-0.07755756378173828
1780853147721430000,10.994429931640624,0.00819673016667366,0.013302803039550781,-0.030851125717163086
1780853147769950200,11.0429501953125,-0.03721566125750542,-0.060385704040527344,-0.008144259452819824
1780853147818470100,11.09147021484375,0.0158609077334404,-0.025974273681640625,-0.0869436264038086
1780853147866990600,11.139990478515625,0.17214760184288025,-0.0018215179443359375,-0.05773186683654785
1780853147915510500,11.188510498046876,0.13196587562561035,0.0324249267578125,-0.07011950016021729
1780853147964030700,11.23703076171875,0.1608000099658966,0.019586563110351562,0.051399946212768555
1780853148012551000,11.285551025390625,0.22332465648651123,0.01649188995361328,0.04660964012145996
1780853148061071000,11.334071044921876,0.08651968836784363,0.004923820495605469,0.004196882247924805
1780853148109591000,11.382591064453125,0.06678874790668488,0.07564067840576172,-0.0308687686920166
1780853148158111200,11.431111328125,0.03074789047241211,-0.005527496337890625,-0.07419276237487793
1780853148206631400,11.47963134765625,-0.032388895750045776,-0.02597808837890625,-0.034895896911621094
1780853148255151600,11.528151611328125,-0.02444525808095932,-0.08571338653564453,0.06689321994781494
1780853148352191700,11.625191650390626,0.0326671227812767,0.013261795043945312,0.07696413993835449
1780853148400712000,11.6737119140625,0.015547513961791992,-0.0184783935546875,0.026426315307617188
1780853148449232100,11.722232177734375,0.05806700140237808,0.07809162139892578,-0.05032670497894287
1780853148497752300,11.77075244140625,-0.07028941065073013,-0.013332366943359375,-0.10328114032745361
1780853148546272300,11.819272216796875,-0.00020891427993774414,-0.013982772827148438,0.057323455810546875
1780853148594792700,11.867792724609375,-0.051785342395305634,-0.03538990020751953,-0.04531574249267578
1780853148643312600,11.916312744140624,-0.04216073825955391,-0.03643989562988281,-0.10876750946044922
1780853148691832800,11.964832763671875,0.015109412372112274,0.029521942138671875,-0.09592962265014648
1780853148740352800,12.013352783203125,0.12427635490894318,0.04080963134765625,-0.02450704574584961
1780853148788873000,12.061873046875,0.005304969847202301,-0.005795478820800781,-0.04563164710998535
1780853148885913000,12.1589130859375,-0.04246806353330612,0.028519630432128906,0.11392760276794434
1780853148934433300,12.207433349609374,-0.08985040336847305,-0.016912460327148438,0.03580176830291748
1780853148982953500,12.255953369140625,-0.06937263906002045,-0.08524036407470703,-0.03725302219390869
1780853149031473700,12.3044736328125,-0.09335879981517792,-0.04721832275390625,-0.13715803623199463
1780853149079993600,12.35299365234375,0.1833387166261673,-0.011590003967285156,-0.023148179054260254
1780853149128514000,12.40151416015625,0.26298484206199646,-0.0506134033203125,0.05980074405670166
1780853149177034000,12.450033935546875,0.19167852401733398,-0.037006378173828125,0.046704649925231934
1780853149225554200,12.49855419921875,0.3612302541732788,-0.032652854919433594,0.36515092849731445
1780853149274074000,12.54707421875,0.23020052909851074,0.054207801818847656,0.15221714973449707
1780853149322594300,12.59559423828125,0.12030135095119476,-0.012660026550292969,0.27882009744644165
1780853149371114500,12.644114501953124,0.13159893453121185,0.012639045715332031,0.23714327812194824
1780853149419634400,12.692634521484376,0.1067548394203186,0.0007085800170898438,0.2687254548072815
1780853149468154600,12.741154541015625,0.07871855795383453,0.03677177429199219,-0.1865910291671753
1780853149516674800,12.7896748046875,-0.08421102166175842,0.062206268310546875,-0.04818558692932129
1780853149565195000,12.838195068359376,0.06754329800605774,0.10460567474365234,-0.22908556461334229
1780853149613715000,12.88671484375,0.06097564101219177,0.11583805084228516,-0.2906010150909424
1780853149662235100,12.935235107421875,-0.09852868318557739,0.04763984680175781,-0.37381482124328613
1780853149710755000,12.983755126953126,-0.15999948978424072,-0.014921188354492188,-0.3516472578048706
1780853149759275300,13.032275146484375,-0.008381754159927368,0.04860496520996094,-0.1447455883026123
1780853149807795500,13.08079541015625,0.012929379940032959,0.040653228759765625,-0.0035877227783203125
1780853149856315600,13.129315673828126,-0.12974071502685547,0.017874717712402344,0.12042677402496338
1780853149904835600,13.177835693359375,-0.15434762835502625,-0.06352424621582031,0.11406373977661133
1780853149953355500,13.22635546875,-0.11721327900886536,-0.14743614196777344,0.15852081775665283
1780853150001875700,13.274875732421876,-0.07181921601295471,0.04149150848388672,0.2943871021270752
1780853150050396000,13.32339599609375,0.03670090436935425,-0.10209846496582031,0.29931342601776123
1780853150098916000,13.371916015625,0.009923189878463745,0.011384963989257812,0.28814607858657837
1780853150147436000,13.42043603515625,0.10432103276252747,0.023903846740722656,0.23773586750030518
1780853150195956200,13.468956298828125,0.15527242422103882,0.16654682159423828,0.3033266067504883
1780853150244476200,13.51747607421875,0.12262916564941406,-0.02631664276123047,0.267048180103302
1780853150292996400,13.565996337890626,-0.13695365190505981,0.006176948547363281,0.014864802360534668
1780853150341516300,13.614516357421875,-0.03061351180076599,0.0632486343383789,0.012761116027832031
1780853150390036500,13.663036376953125,0.46839532256126404,-0.17880535125732422,-0.2872171401977539
1780853150438556700,13.711556640625,0.8971359729766846,-0.3856382369995117,-1.0464560985565186
1780853150487076600,13.76007666015625,1.7635843753814697,0.2659950256347656,-1.1710740327835083
1780853150535596800,13.8085966796875,1.1692109107971191,0.15101909637451172,-0.5181726217269897
1780853150584116700,13.85711669921875,-0.41829970479011536,-0.3973684310913086,0.3439671993255615
1780853150632637000,13.905636962890625,0.17044773697853088,-0.05871868133544922,0.5059877634048462
1780853150681156900,13.954156982421875,1.10463547706604,0.3282318115234375,0.096435546875
1780853150729677000,14.002677001953124,1.0842020511627197,0.31217288970947266,-0.06156492233276367
1780853150778197000,14.051197021484375,1.0459766387939453,0.0815277099609375,0.23401308059692383
1780853150826717200,14.09971728515625,1.1586021184921265,-0.0402374267578125,0.25920569896698
1780853150875237400,14.1482373046875,1.6804983615875244,0.07663917541503906,-0.11702263355255127
1780853150923757600,14.196757568359375,1.9137471914291382,0.20863723754882812,0.1780463457107544
1780853150972277500,14.245277587890625,1.8022830486297607,-0.4507617950439453,0.19855058193206787
1780853151020797400,14.29379736328125,2.1918630599975586,-1.5807161331176758,-0.2668471336364746
1780853151069317600,14.342317626953125,2.326545238494873,-2.4465904235839844,1.7140690088272095
1780853151117837600,14.390837646484375,-0.40895402431488037,-2.0122804641723633,2.6829187870025635
1780853151166357800,14.439357666015624,-0.7010242938995361,0.9551057815551758,-0.68952476978302
1780853151214877700,14.487877685546875,-0.33553898334503174,3.0736265182495117,-2.4201369285583496
1780853151263398000,14.53639794921875,-0.7202448844909668,0.8044443130493164,-0.8979809284210205
1780853151311917800,14.584917724609374,-1.1445181369781494,-1.2915725708007812,1.2686246633529663
1780853151360438000,14.63343798828125,-2.0035951137542725,-1.285283088684082,1.9030207395553589
1780853151408958000,14.6819580078125,-0.06298142671585083,0.7298440933227539,-0.2745945453643799
1780853151457478100,14.73047802734375,1.0637832880020142,1.4383716583251953,-1.2600727081298828
1780853151505998000,14.778998046875,-0.6101017594337463,1.1992206573486328,-0.9797190427780151
1780853151603038200,14.8760380859375,1.4263103008270264,2.7397704124450684,1.7136783599853516
1780853151651558100,14.92455810546875,3.4077301025390625,0.2689533233642578,1.192548394203186
1780853151700078300,14.973078369140625,1.0268641710281372,-2.9412174224853516,1.3877214193344116
1780853151748598300,15.021598388671874,0.5510083436965942,-6.162439346313477,1.2995750904083252
1780853151797118500,15.070118408203125,-0.8579015135765076,-2.6398353576660156,-3.340893030166626
1780853151845638400,15.118638427734375,-0.3194209337234497,2.922121047973633,-1.4690674543380737
1780853151894158600,15.16715869140625,-2.366917133331299,-1.034773826599121,-1.406652569770813
1780853151942678500,15.215678466796875,-1.2066400051116943,-0.32169246673583984,-2.121060848236084
1780853151991198700,15.26419873046875,-0.3826332688331604,1.2479705810546875,-1.7420083284378052
1780853152039718700,15.31271875,3.2418594360351562,2.6247949600219727,-0.10426205396652222
1780853152088238600,15.361238525390625,-0.5746411085128784,1.515411376953125,0.5245581269264221
1780853152136758800,15.4097587890625,-2.172650098800659,0.6426858901977539,1.2908618450164795
1780853152185278700,15.45827880859375,1.600366234779358,1.515089988708496,-0.07068082690238953
1780853152233799000,15.506798828125,2.6741600036621094,1.9101996421813965,-0.8617724180221558
1780853152282318800,15.55531884765625,4.937590599060059,-0.6805820465087891,-1.4676830768585205
1780853152330839000,15.603839111328124,1.1562857627868652,-4.649785041809082,-0.14655983448028564
1780853152379359000,15.65235888671875,0.8008520603179932,-2.2576379776000977,2.3488473892211914
1780853152427879200,15.700879150390625,-2.066195011138916,0.7291650772094727,0.23007506132125854
1780853152476399000,15.749399169921874,-2.2001254558563232,-1.4967069625854492,-1.52212393283844
1780853152524919300,15.797919189453125,-2.683608293533325,-4.808072090148926,2.583526372909546
1780853152573439200,15.846439208984375,-2.653170108795166,1.014113426208496,2.6531500816345215
1780853152621959200,15.894959228515624,-1.1168612241744995,3.3544464111328125,-2.117734432220459
1780853152670479400,15.943479248046875,-0.414013147354126,4.013040065765381,-3.4011874198913574
1780853152718999300,15.991999267578125,0.0399632453918457,2.970608711242676,0.5968599319458008
1780853152767519500,16.04051953125,3.1772265434265137,2.4173707962036133,4.2052507400512695
1780853152816039200,16.0890390625,1.074436068534851,-4.959833145141602,3.0205883979797363
1780853152864559400,16.137559326171875,2.90684175491333,-3.685089111328125,1.4881157875061035
1780853152913079300,16.186079345703124,0.5480183362960815,-1.8761978149414062,-2.6989026069641113
1780853152961599500,16.234599609375,-2.4182510375976562,-0.16544532775878906,-3.2785890102386475
1780853153010119400,16.283119384765627,-1.4197239875793457,-1.1225624084472656,-1.669198989868164
1780853153058639400,16.331639404296876,-1.3230793476104736,-2.2814788818359375,-4.6758246421813965
1780853153107159600,16.38015966796875,-0.4767472743988037,2.180309772491455,-2.014531373977661
1780853153155679500,16.428679443359375,0.7576272487640381,3.412055492401123,0.5925209522247314
1780853153204199700,16.47719970703125,-2.4376745223999023,1.9497642517089844,1.873387336730957
1780853153252719400,16.52571923828125,-0.33414697647094727,0.7734413146972656,1.2717478275299072
1780853153301239600,16.574239501953127,3.0768537521362305,1.9938445091247559,-0.0664503276348114
1780853153349759500,16.622759521484376,5.315336227416992,1.1472768783569336,0.16667768359184265
1780853153398279700,16.67127978515625,3.318429470062256,-4.222637176513672,0.4816013276576996
1780853153446799600,16.719799560546875,0.5818412899971008,-2.8829259872436523,0.9402765035629272
1780853153495319800,16.76831982421875,-1.8433222770690918,1.5386667251586914,0.6851868629455566
1780853153543839700,16.81683984375,-1.4980725049972534,-1.7157201766967773,-3.441833972930908
1780853153592359400,16.865359375,-2.2676711082458496,-6.619743347167969,0.7807139754295349
1780853153640879600,16.913879638671876,-3.3397297859191895,0.3849220275878906,3.669757127761841
1780853153689399600,16.962399658203125,-1.1338107585906982,3.8566527366638184,-0.6457827091217041
1780853153737919700,17.010919677734375,-0.14864301681518555,4.8940510749816895,-2.9748849868774414
1780853153786439700,17.059439697265624,0.24998033046722412,3.7675719261169434,-1.1769822835922241
1780853153834960000,17.1079599609375,3.150092124938965,2.648111343383789,2.6926088333129883
1780853153883479600,17.1564794921875,-0.21049439907073975,-4.48914909362793,1.4295910596847534
1780853153931999700,17.204999755859376,2.8256304264068604,-4.699277877807617,3.2252655029296875
1780853153980519700,17.253519775390625,-1.4620000123977661,-4.569169998168945,-2.0271215438842773
1780853154029039600,17.30203955078125,-3.5114002227783203,0.06711196899414062,-2.0406289100646973
1780853154077559800,17.350559814453124,-1.0550801753997803,-3.310544013977051,-4.767881870269775
1780853154126079500,17.39907958984375,-0.48663175106048584,1.6740741729736328,-4.679037094116211
1780853154174599700,17.447599609375,3.328922986984253,3.664083957672119,-0.003483295440673828
1780853154223119600,17.49611962890625,-1.8730698823928833,3.122417449951172,2.022350788116455
1780853154271639800,17.544639892578125,-3.250387191772461,1.2960329055786133,1.241607904434204
1780853154320159700,17.59315966796875,2.283128499984741,0.40328311920166016,0.47166284918785095
1780853154368679700,17.6416796875,4.282052040100098,1.7639455795288086,-1.135394811630249
1780853154417199600,17.69019970703125,4.625779628753662,0.49274444580078125,-1.03815758228302
1780853154465719800,17.7387197265625,1.3599269390106201,-5.157929420471191,-1.7986187934875488
1780853154514239700,17.78723974609375,2.1829710006713867,-0.43436431884765625,2.1411337852478027
1780853154562759400,17.835759521484373,-1.946639895439148,1.5488061904907227,2.281569719314575
1780853154611279600,17.884279541015626,-1.7017879486083984,-4.77860164642334,-0.981965184211731
1780853154659799600,17.932799560546876,-2.619619846343994,-5.723171234130859,2.2816882133483887
1780853154708319700,17.98131982421875,-3.3104162216186523,2.1047587394714355,3.390662670135498
1780853154756839400,18.02983935546875,-0.04307138919830322,4.845900058746338,-1.5047471523284912
1780853154805359600,18.078359619140624,0.3009859323501587,5.067801475524902,-3.6715025901794434
1780853154853879600,18.126879638671873,0.9636613130569458,2.9996538162231445,-1.047206163406372
1780853154902399500,18.1753994140625,1.8099801540374756,-0.36614131927490234,3.601876735687256
1780853154950919400,18.22391943359375,1.4756287336349487,-3.952394485473633,2.0283524990081787
1780853154999439400,18.272439453125,3.749415397644043,-4.391090393066406,2.20841646194458
1780853155047959600,18.32095947265625,-3.444652557373047,-2.543119430541992,-3.9055051803588867
1780853155096479500,18.3694794921875,-3.0820932388305664,-1.4084835052490234,-1.8206007480621338
1780853155144999400,18.41799951171875,-1.1896241903305054,-3.6792354583740234,-5.882649898529053
1780853155193519400,18.466519287109374,-0.2241344451904297,2.7766671180725098,-4.574896335601807
1780853155242039600,18.51503955078125,3.8782525062561035,3.8203678131103516,0.21963101625442505
1780853155290559200,18.563559326171877,-2.7139511108398438,3.3158397674560547,1.5662293434143066
1780853155339079400,18.612079345703126,-1.8740261793136597,1.164027214050293,2.0645382404327393
1780853155387599400,18.660599365234376,3.1943013668060303,0.7216663360595703,0.5617826581001282
1780853155436119300,18.709119384765625,4.807461261749268,2.4147791862487793,0.5040580034255981
1780853155484639200,18.75763916015625,6.035337924957275,-1.1605587005615234,-0.3867221474647522
1780853155533159200,18.8061591796875,-0.10609972476959229,-6.804919242858887,0.4679643213748932
1780853155581679000,18.85467919921875,-0.6264144778251648,0.8315086364746094,2.212712526321411
1780853155630199000,18.903198974609374,-2.501452922821045,0.06859588623046875,-2.3058855533599854
1780853155678719200,18.95171923828125,-1.7301392555236816,-6.355751991271973,-0.228007972240448
1780853155727239000,19.000239013671877,-3.1579999923706055,-0.8714771270751953,3.6530160903930664
1780853155775759000,19.048759033203126,-1.9212803840637207,3.6891894340515137,0.3486318588256836
1780853155824279000,19.097279052734375,0.5249800682067871,4.938483715057373,-2.4054315090179443
1780853155872799000,19.145799072265625,0.6257672309875488,4.128277778625488,-1.7434661388397217
1780853155921319000,19.19431884765625,3.160356044769287,5.040297508239746,1.6246368885040283
1780853155969838800,19.2428388671875,-1.886056661605835,-4.550388336181641,3.0140953063964844
1780853156018358800,19.29135888671875,3.455770254135132,-6.272250175476074,2.9604129791259766
1780853156066878700,19.339878662109374,-0.02604985237121582,-4.851118087768555,-1.4729148149490356
1780853156115399000,19.38839892578125,-2.6194233894348145,0.6888914108276367,-5.138305187225342
1780853156163918600,19.436918701171876,-1.891317367553711,-4.734389305114746,-4.586452007293701
1780853156212438800,19.485438720703126,-1.7060003280639648,-0.5471487045288086,-4.489907264709473
1780853156260958700,19.533958740234375,1.5283476114273071,4.165387153625488,-1.8736244440078735
1780853156309478700,19.582478759765625,3.253793716430664,4.7496018409729,1.2768166065216064
1780853156357998600,19.63099853515625,-3.252492904663086,2.4990291595458984,2.2196927070617676
1780853156406518300,19.679518310546875,-0.24457411468029022,-0.1306915283203125,2.727229356765747
1780853156455038500,19.72803857421875,4.172739505767822,1.152029037475586,0.4823891818523407
1780853156503558400,19.776558349609374,4.042891979217529,2.081653594970703,-1.8077068328857422
1780853156552078300,19.825078369140623,4.562801361083984,-1.3973894119262695,-1.5520081520080566
1780853156600598300,19.873598388671876,2.32377290725708,-3.2176513671875,0.31311243772506714
1780853156649118200,19.9221181640625,0.27566587924957275,2.0209884643554688,3.414562702178955
1780853156697638100,19.97063818359375,-4.009016513824463,-2.7302207946777344,0.6783239245414734
1780853156746158000,20.019157958984376,-3.131993293762207,-9.40899658203125,-1.908348798751831
1780853156794678000,20.067677978515626,-1.190943956375122,-0.1852855682373047,3.3487470149993896
1780853156843198000,20.116197998046875,-0.4364449977874756,3.57078218460083,0.556986927986145
1780853156891718000,20.1647177734375,-0.3756009340286255,4.673541069030762,-3.112621784210205
1780853156940237800,20.21323779296875,0.35418832302093506,3.8202991485595703,-2.2108023166656494
1780853156988757800,20.2617578125,2.7731781005859375,4.94664192199707,-0.14432263374328613
1780853157037277700,20.310277587890624,-0.12157440185546875,-0.8050642013549805,3.9168200492858887
1780853157085798000,20.3587978515625,2.4114794731140137,-5.814194679260254,0.18635576963424683
1780853157134317600,20.407317626953127,-0.2502117156982422,-8.285118103027344,0.18321675062179565
1780853157182837500,20.45583740234375,-1.8567588329315186,3.1169886589050293,-2.650146007537842
1780853157231357400,20.504357421875,-1.1995818614959717,-5.146419525146484,-4.8852033615112305
1780853157279877400,20.55287744140625,-1.6553031206130981,-2.206732749938965,-4.4807868003845215
1780853157328397300,20.601397216796876,0.5995583534240723,3.2408857345581055,-0.8579485416412354
1780853157376917200,20.649917236328125,4.2644853591918945,4.215232849121094,1.5355260372161865
1780853157425437200,20.698437255859375,-2.8587985038757324,2.981228828430176,1.0692437887191772
1780853157473957000,20.74695703125,-1.8043696880340576,1.4451208114624023,0.7972248196601868
1780853157522477000,20.79547705078125,2.971538543701172,2.014674186706543,0.6694039106369019
1780853157570997000,20.8439970703125,4.256501197814941,1.3043651580810547,-1.5357396602630615
1780853157619517000,20.892516845703124,5.598727226257324,-2.1262149810791016,-1.6893587112426758
1780853157668036900,20.941036865234373,2.2736895084381104,-3.644582748413086,1.8581626415252686
1780853157716556500,20.989556640625,-0.7721895575523376,0.1283416748046875,3.4953603744506836
1780853157765076700,21.03807666015625,-3.4803802967071533,-1.8627567291259766,-1.9375474452972412
1780853157813596400,21.086596435546873,-2.3690409660339355,-6.057459831237793,-2.517249584197998
1780853157862116600,21.13511669921875,-2.1898839473724365,-1.468252182006836,4.643798828125
1780853157910636300,21.18363623046875,-1.8909556865692139,2.977494716644287,1.990660309791565
1780853157959156500,21.232156494140625,1.2500964403152466,5.077925205230713,-2.198413610458374
1780853158056196000,21.329196044921876,2.0505928993225098,4.1381988525390625,0.07223629951477051
1780853158104716000,21.377716064453125,-1.1366562843322754,-0.5434560775756836,2.896049737930298
1780853158153236000,21.426236083984374,2.7519969940185547,-7.143463134765625,1.976349949836731
1780853158201756000,21.474755859375,2.7545015811920166,-4.904382705688477,2.452622413635254
1780853158250275800,21.52327587890625,-3.829373598098755,-0.048417091369628906,-5.399318218231201
1780853158298795800,21.571795654296874,-1.6183743476867676,-3.1369104385375977,-3.7122414112091064
1780853158347315700,21.620315673828124,-1.0256913900375366,-2.1857681274414062,-5.184634685516357
1780853158395835600,21.668835693359377,-0.3334503173828125,3.01033878326416,-1.7506484985351562
1780853158444355600,21.71735546875,3.696049213409424,4.301537036895752,1.02597975730896
1780853158492875500,21.76587548828125,-1.2646291255950928,3.0437679290771484,1.6326100826263428
1780853158541395500,21.8143955078125,-2.024212598800659,0.7623786926269531,1.6911158561706543
1780853158589915100,21.8629150390625,3.392136335372925,1.6542634963989258,0.23278695344924927
1780853158638435000,21.91143505859375,4.378205299377441,1.5473756790161133,-0.9050266146659851
1780853158686955000,21.959955078125,6.404510974884033,-2.7706737518310547,-1.7082470655441284
1780853158735475000,22.008474853515626,0.980232834815979,-2.920297622680664,2.1808061599731445
1780853158783995000,22.056994873046875,-1.6677818298339844,0.7694635391235352,3.4230704307556152
1780853158832514800,22.105514892578125,-3.033245086669922,-3.904897689819336,-2.09165620803833
1780853158881034800,22.15403466796875,-3.677125930786133,-8.566117286682129,0.03868746757507324
1780853158929554400,22.202554443359375,-2.034623861312866,0.5514430999755859,4.845416069030762
1780853158978074400,22.251074462890625,-0.41741472482681274,3.8804569244384766,0.8506085276603699
1780853159026594300,22.29959423828125,1.1447542905807495,5.277989864349365,-2.4751110076904297
1780853159075114200,22.3481142578125,-0.00814962387084961,5.217796802520752,-2.274137496948242
1780853159123634200,22.39663427734375,2.745150089263916,5.119529724121094,1.1417068243026733
1780853159172154000,22.445154052734374,-1.2291502952575684,-4.096451759338379,2.8489632606506348
1780853159220673800,22.493673828125,3.129692554473877,-6.784425735473633,2.9672234058380127
1780853159269194000,22.542194091796876,0.47633397579193115,-5.046021461486816,-0.4483897387981415
1780853159317713700,22.590713623046874,-1.4904417991638184,2.2017669677734375,-3.927215337753296
1780853159366233600,22.639233642578127,-0.8801529407501221,-4.381641387939453,-2.9624218940734863
1780853159414753500,22.68775341796875,-1.72587251663208,-1.3050899505615234,-4.704148769378662
1780853159463273200,22.736273193359374,0.1483181118965149,2.9418272972106934,-1.248018741607666
1780853159511793400,22.78479345703125,3.637197494506836,4.0285234451293945,1.4839524030685425
1780853159560313000,22.83331298828125,-1.4800266027450562,3.261788845062256,1.7603397369384766
1780853159608833000,22.8818330078125,-2.3321022987365723,1.1982288360595703,0.8030670881271362
1780853159657353000,22.93035302734375,3.2148940563201904,1.9502224922180176,-0.20772667229175568
1780853159705872600,22.97887255859375,5.335914611816406,1.4587974548339844,-0.8534047603607178
1780853159754392600,23.027392578125,6.808245658874512,-2.912470817565918,-0.6248560547828674
1780853159802912500,23.07591259765625,0.8574486970901489,-2.255955696105957,3.244432210922241
1780853159851432400,23.124432373046876,-3.056349277496338,-0.6768331527709961,2.470705032348633
1780853159899952000,23.1729521484375,-2.862133264541626,-5.843010902404785,-2.833448886871338
1780853159948472300,23.221472412109375,-3.0898308753967285,-6.402006149291992,1.9320387840270996
1780853159996992000,23.269991943359376,-2.3945465087890625,1.763803482055664,3.011280059814453
1780853160045512000,23.318511962890625,-1.3723094463348389,4.362189292907715,0.8498127460479736
1780853160094032000,23.367031982421874,0.36696743965148926,5.09945011138916,-1.2526919841766357
1780853160142551600,23.415551513671875,0.6986023187637329,4.417527198791504,-1.4584650993347168
1780853160191071500,23.464071533203125,0.5321143865585327,2.7740635871887207,2.5877342224121094
1780853160239591400,23.51259130859375,0.8139094114303589,-4.687182426452637,2.196401357650757
1780853160288111400,23.561111328125,5.735897064208984,-6.109438896179199,2.7621521949768066
1780853160336631000,23.609631103515625,-4.0661797523498535,-2.3640289306640625,-4.159092903137207
1780853160385151200,23.658151123046874,-0.7170446515083313,-0.6852607727050781,-1.9655588865280151
1780853160433671000,23.7066708984375,-1.6132757663726807,-5.151235580444336,-4.639979839324951
1780853160482190800,23.75519091796875,-1.8157073259353638,0.5099878311157227,-2.403966188430786
1780853160530710800,23.803710693359374,0.9585579037666321,4.406069755554199,-0.3695032298564911
1780853160579230500,23.85223046875,4.010169506072998,5.035486221313477,0.7134209871292114
1780853160627750400,23.90075048828125,-2.416288137435913,2.3127479553222656,0.8665201663970947
1780853160676270300,23.949270263671874,-0.4274876117706299,0.9460210800170898,-0.4841372072696686
1780853160724790300,23.997790283203123,5.125107765197754,1.8167438507080078,0.636671781539917
1780853160773310000,24.04631005859375,7.905231475830078,0.011073112487792969,0.11132398247718811
1780853160821830000,24.094829833984374,2.4877583980560303,-5.85703182220459,1.7755460739135742
1780853160870349800,24.143349853515623,0.7344357967376709,2.4388980865478516,2.6393320560455322
1780853160918869800,24.191869873046876,-3.439072608947754,-1.1016292572021484,-0.09564709663391113
1780853160967389400,24.240389404296874,-4.0338897705078125,-12.137694358825684,-1.7892142534255981
1780853161015909400,24.288909423828127,-1.7826133966445923,-1.4959478378295898,3.8253159523010254
1780853161064429300,24.33742919921875,-1.8173999786376953,3.8238039016723633,1.9410691261291504
1780853161112949000,24.385948974609374,0.6604268550872803,5.783602714538574,-0.46299421787261963
1780853161161469000,24.434468994140627,1.0112708806991577,5.864034175872803,-2.4638235569000244
1780853161209988600,24.482988525390624,2.7744760513305664,5.226550579071045,-1.0885989665985107
1780853161258508800,24.5315087890625,-1.7424770593643188,-3.092500686645508,2.6059036254882812
1780853161307028500,24.580028564453126,4.388171672821045,-5.447723388671875,1.7760554552078247
1780853161355548200,24.628548095703124,1.8495006561279297,-3.5364809036254883,2.5498785972595215
1780853161404068000,24.677068115234373,-5.752299785614014,-3.9159374237060547,-5.352570533752441
1780853161452588000,24.725588134765626,-0.5908231735229492,-3.3984203338623047,-6.509761333465576
1780853161501108000,24.77410791015625,-0.2228451669216156,-1.1467504501342773,-5.642051696777344
1780853161549627600,24.822627685546873,1.5890308618545532,3.5440187454223633,-0.031078487634658813
1780853161598147600,24.871147705078126,2.929332971572876,5.074254989624023,2.8414978981018066
1780853161646667300,24.919667236328124,-2.8147687911987305,3.5064172744750977,1.6674855947494507
1780853161695187500,24.9681875,-0.5765116214752197,1.1184568405151367,0.10647556185722351
1780853161743707100,25.01670703125,4.770530700683594,1.4786720275878906,-0.030453801155090332
1780853161792226800,25.065226806640624,6.096992015838623,0.24537944793701172,-0.5379372835159302
1780853161840746800,25.113746826171877,2.7562971115112305,-6.6433258056640625,0.40731990337371826
1780853161889266700,25.1622666015625,0.08026421070098877,0.12867069244384766,4.046363830566406
1780853161937786600,25.21078662109375,-4.232545375823975,-1.3765411376953125,-1.6199746131896973
1780853161986306300,25.259306396484376,-2.9701740741729736,-7.415071487426758,-3.0906832218170166
1780853162034826200,25.307826171875,-2.7995188236236572,-2.795313835144043,6.1475701332092285
1780853162083346000,25.356345947265623,-1.2039330005645752,4.269588947296143,2.7053120136260986
1780853162131865900,25.404865966796876,2.158930540084839,4.949277877807617,-3.575190305709839
1780853162180385800,25.4533857421875,0.5784221887588501,5.3282294273376465,-2.61368727684021
1780853162228905500,25.501905517578123,0.867800235748291,3.6672163009643555,1.8939752578735352
1780853162277425400,25.55042529296875,-0.37942618131637573,-2.0874509811401367,2.1567258834838867
1780853162325945000,25.598945068359374,4.616567611694336,-3.405093193054199,1.814201831817627
1780853162374465000,25.647465087890627,2.3542697429656982,-3.9225854873657227,0.9244301915168762
1780853162422984700,25.695984619140624,-5.615273952484131,-3.3822946548461914,-3.400679588317871
1780853162471505000,25.7445048828125,-0.9655855894088745,-0.8851385116577148,-1.896992802619934
1780853162520024600,25.793024658203127,0.19006460905075073,-1.9266395568847656,-6.110559463500977
1780853162568544300,25.841544189453124,-0.5398887991905212,2.3704967498779297,-0.9999468326568604
1780853162617064200,25.890064208984374,2.3905107975006104,3.7498912811279297,2.2732691764831543
1780853162665583900,25.938583984375,-1.489447832107544,3.442774772644043,0.5238039493560791
1780853162714103800,25.987103759765624,-1.5954457521438599,1.0954933166503906,-0.4938278794288635
1780853162762623500,26.03562353515625,3.425673246383667,1.687363624572754,0.2260247766971588
1780853162811143400,26.084143310546875,4.275616645812988,1.4221973419189453,-0.01985803246498108
1780853162859663400,26.132663330078124,5.103635311126709,-3.299740791320801,-1.1456485986709595
1780853162908183300,26.181183349609373,1.5749664306640625,-2.327371597290039,1.9778907299041748
1780853162956703000,26.229702880859374,-2.1274306774139404,-1.1249618530273438,2.684898614883423
1780853163005222700,26.27822265625,-2.2280287742614746,-5.3711652755737305,-1.4089887142181396
1780853163053742600,26.32674267578125,-3.873945713043213,-6.952935218811035,2.185826301574707
1780853163102262300,26.37526220703125,-1.162410855293274,2.3788809776306152,2.3289217948913574
1780853163150782200,26.4237822265625,0.15273356437683105,5.835726261138916,-1.1059958934783936
1780853163199302000,26.472302001953125,-0.0030306577682495117,6.209294319152832,-2.6567888259887695
1780853163247821800,26.52082177734375,0.14490962028503418,4.630154132843018,-1.127345085144043
1780853163296341800,26.569341796875,1.9967944622039795,1.3877649307250977,2.1242170333862305
1780853163344861400,26.617861328125,-0.024695754051208496,-4.804137229919434,3.1583609580993652
1780853163393381400,26.66638134765625,4.841594219207764,-1.8060178756713867,2.440835952758789
1780853163441901000,26.714901123046875,-0.5210400223731995,-4.547527313232422,-2.2254762649536133
1780853163490421000,26.7634208984375,-5.17692756652832,-2.915431022644043,-1.7271407842636108
1780853163538940700,26.811940673828126,1.9655468463897705,-0.6283988952636719,-4.258743762969971
1780853163587460600,26.860460693359375,1.0220959186553955,-0.02893352508544922,-5.066592693328857
1780853163635980300,26.908980224609376,0.8003283739089966,1.6708087921142578,0.7093459963798523
1780853163684500200,26.957500244140626,-0.7455330491065979,3.8008804321289062,1.452106237411499
1780853163733020000,27.00602001953125,-2.6319334506988525,2.839872360229492,-0.46093234419822693
1780853163781539600,27.05453955078125,2.2314016819000244,0.8712358474731445,0.08573797345161438
1780853163830059500,27.1030595703125,4.1453776359558105,2.0717759132385254,0.6421334743499756
1780853163878579500,27.151579345703126,6.355733394622803,-0.6048088073730469,0.17412222921848297
1780853163927099400,27.200099365234376,1.9135098457336426,-4.35783576965332,0.07258212566375732
1780853163975619000,27.248619140625,0.4684394598007202,0.33310699462890625,3.0044500827789307
1780853164024139000,27.297138916015626,-3.0679097175598145,-3.586414337158203,-1.3849272727966309
1780853164072658700,27.34565869140625,-2.7077975273132324,-7.399200439453125,-1.234233021736145
1780853164121178400,27.394178466796873,-1.3396790027618408,-0.85400390625,4.220551490783691
1780853164169698300,27.4426982421875,-0.2559638023376465,4.492767333984375,2.150928258895874
1780853164218218000,27.491218017578124,0.12265098094940186,5.195250511169434,-2.2316458225250244
1780853164266738000,27.539738037109377,0.1234426498413086,4.922867774963379,-3.6311471462249756
1780853164315257600,27.588257568359374,1.6270391941070557,3.3481650352478027,-0.1500704288482666
1780853164363777500,27.636777587890624,-0.4431670308113098,-3.018050193786621,2.8143951892852783
1780853164412297200,27.685297119140625,3.9249613285064697,-2.1018409729003906,0.42621827125549316
1780853164460817200,27.733817138671874,2.615314483642578,-5.047986030578613,-0.03713098168373108
1780853164509336800,27.7823369140625,-6.021910190582275,-3.0882558822631836,-1.1850035190582275
1780853164557856500,27.8308564453125,0.5547128915786743,-0.2886838912963867,-1.742066740989685
1780853164606376400,27.87937646484375,0.9064844250679016,-1.275038719177246,-5.526548862457275
1780853164654896000,27.927896240234375,-0.34576931595802307,2.5261778831481934,-0.8442351222038269
1780853164703416000,27.976416015625,2.5632529258728027,3.91086483001709,1.458106517791748
1780853164751935700,28.024935791015626,-1.5479158163070679,3.066403388977051,0.3665040135383606
1780853164800455700,28.07345556640625,-2.27034330368042,0.5932197570800781,-0.5926328301429749
1780853164848975400,28.121975341796876,3.1455013751983643,1.4062376022338867,-0.936543881893158
1780853164897495000,28.1704951171875,5.928763389587402,1.21002197265625,-0.701359748840332
1780853164946015000,28.219014892578127,3.965020179748535,-3.7278566360473633,-0.3195520043373108
1780853164994534700,28.26753466796875,1.6007336378097534,-0.7729701995849609,2.971726655960083
1780853165043054600,28.3160546875,-2.8434412479400635,-1.632014274597168,2.587057590484619
1780853165091574300,28.36457421875,-3.26572322845459,-8.204935073852539,-1.1963220834732056
1780853165140094200,28.41309423828125,-2.577132225036621,-3.9585952758789062,2.8163981437683105
1780853165188614000,28.46161376953125,-0.974280834197998,3.4931092262268066,1.9708890914916992
1780853165237133800,28.5101337890625,0.7890785932540894,5.239476203918457,-1.3997492790222168
1780853165285653500,28.558653564453124,-0.23598837852478027,5.521529674530029,-3.1503591537475586
1780853165334173200,28.607173095703125,0.3941463232040405,4.34201192855835,-1.3777663707733154
1780853165382693000,28.655693115234374,2.0259900093078613,-0.9830808639526367,2.4094161987304688
1780853165431212800,28.704212890625,1.510170578956604,-4.69761848449707,2.7858963012695312
1780853165479732700,28.752732666015625,3.7388434410095215,-3.3831253051757812,2.9174888134002686
1780853165528252400,28.80125244140625,-3.577120780944824,-3.1456165313720703,-4.920910358428955
1780853165576772400,28.8497724609375,-0.5322142839431763,0.6511611938476562,0.9790037274360657
1780853165625292000,28.8982919921875,0.9304037094116211,-1.0898942947387695,-6.086747169494629
1780853165673811700,28.946811767578126,-1.2975547313690186,-0.3185558319091797,-2.5068440437316895
1780853165722331400,28.995331298828123,0.6663909554481506,2.4242610931396484,2.2109761238098145
1780853165770851000,29.04385107421875,1.0920026302337646,3.6710052490234375,1.677767276763916
1780853165819371000,29.09237109375,-2.220841884613037,1.6829729080200195,-0.46384769678115845
1780853165867890700,29.140890625,2.104548215866089,0.702509880065918,-0.11534684896469116
1780853165916410600,29.18941064453125,3.7946653366088867,1.6292896270751953,-1.227137565612793
1780853165964930300,29.237930419921874,4.915311336517334,-1.1428337097167969,-0.1553897261619568
1780853166013450000,29.286449951171875,2.0161991119384766,-3.914508819580078,2.466248035430908
1780853166061970000,29.334969970703124,0.6689513921737671,0.6877336502075195,2.572310447692871
1780853166110489600,29.383489501953125,-2.881134510040283,-1.4357757568359375,0.3625709116458893
1780853166159009500,29.432009521484375,-2.7407517433166504,-7.113495826721191,-1.3582849502563477
1780853166207529200,29.480529296875,-1.9476079940795898,-1.6212024688720703,2.4513392448425293
1780853166256049200,29.529049072265625,-1.1470474004745483,3.248518943786621,0.4351311922073364
1780853166304568800,29.57756884765625,0.7552132606506348,4.337278842926025,-1.673835039138794
1780853166353088500,29.626088623046876,-0.6468653082847595,4.165951728820801,-1.2741234302520752
1780853166401608200,29.674608154296877,0.7341533899307251,3.905238151550293,0.10714301466941833
1780853166450128000,29.7231279296875,1.3631304502487183,0.12827014923095703,0.9772965908050537
1780853166498647800,29.771647705078124,2.7782506942749023,-2.82061767578125,2.684774875640869
1780853166547167500,29.82016748046875,1.3708240985870361,-5.571366310119629,0.6562698483467102
1780853166595687400,29.8686875,-2.0493979454040527,-2.1289196014404297,-0.5544217824935913
1780853166644207000,29.91720703125,0.19919931888580322,-0.6631851196289062,-3.9845223426818848
1780853166692727000,29.96572705078125,0.2880048155784607,-1.6445770263671875,-4.535391330718994
1780853166741246700,30.014246826171874,-0.5205368995666504,1.7044601440429688,-0.4654092490673065
1780853166789766100,30.06276611328125,1.2766156196594238,4.078314304351807,-0.10715770721435547
1780853166838286000,30.1112861328125,-0.2528679370880127,3.119776725769043,1.2824784517288208
1780853166886805800,30.1598056640625,-1.260825514793396,1.0970487594604492,0.38167834281921387
1780853166935325700,30.20832568359375,3.172741413116455,0.9993867874145508,-0.5977337956428528
1780853166983845400,30.256845458984376,4.1364521980285645,1.0906190872192383,0.8282052278518677
1780853167032365300,30.305365234375,3.4545037746429443,-3.161728858947754,0.12252947688102722
1780853167080885000,30.353885009765627,3.8585824966430664,-1.1037721633911133,1.6365941762924194
1780853167129404700,30.40240478515625,-1.574048638343811,-0.09764289855957031,2.06720232963562
1780853167177924400,30.45092431640625,-2.9554920196533203,-6.992824554443359,-0.19235152006149292
1780853167226444000,30.499444091796875,-1.9719489812850952,-5.375693321228027,0.9102491140365601
1780853167274964000,30.5479638671875,-0.503581166267395,2.528252601623535,1.0371403694152832
1780853167323483600,30.596483642578125,0.3941892385482788,4.781473159790039,-0.9460721611976624
1780853167372003600,30.645003662109374,-0.4230382442474365,5.304907321929932,-1.907983422279358
1780853167420523300,30.693523193359376,0.5333219766616821,4.768163681030273,-1.6728036403656006
1780853167469043000,30.74204296875,-0.07088136672973633,1.8882451057434082,1.2261483669281006
1780853167517562600,30.790562744140626,2.154736042022705,-3.1846914291381836,-0.3218648433685303
1780853167566082300,30.839082275390624,3.854823112487793,-5.196002006530762,5.013944625854492
1780853167614602200,30.887602294921876,-4.451664447784424,-5.318414688110352,-1.2607017755508423
1780853167663122000,30.936121826171874,1.9576421976089478,-1.0811872482299805,-3.544102191925049
1780853167711641600,30.9846416015625,-0.26391077041625977,-0.3802299499511719,-5.545196533203125
1780853167760161300,31.033161376953124,0.08407634496688843,0.7540273666381836,-0.309999018907547
1780853167808681200,31.08168115234375,0.6830338835716248,3.9839224815368652,-0.2109580636024475
1780853167857201000,31.130200927734375,-0.03646083176136017,3.7368998527526855,0.707582414150238
1780853167905720600,31.178720458984376,1.0090442895889282,1.3246564865112305,0.6839660406112671
1780853167954240500,31.227240478515625,3.139218330383301,0.824131965637207,1.5809071063995361
1780853168002760000,31.275760009765627,3.4532408714294434,0.872889518737793,0.5423162579536438
1780853168051280000,31.32427978515625,2.7229409217834473,-3.180996894836426,0.4448516070842743
1780853168099799600,31.372799560546873,3.2534477710723877,-1.6625652313232422,1.4503647089004517
1780853168148319500,31.421319580078126,-2.2981910705566406,-1.6695032119750977,1.6039570569992065
1780853168196839200,31.469839111328124,-2.7359118461608887,-4.828887939453125,-1.6100417375564575
1780853168245358600,31.518358642578125,-2.374760389328003,-5.133138656616211,0.5986761450767517
1780853168293878500,31.56687841796875,-0.8636655807495117,1.2841386795043945,1.1190814971923828
1780853168342398200,31.615398193359376,-1.0171303749084473,3.651559829711914,-0.991402804851532
1780853168390918100,31.663918212890625,-0.6680469512939453,5.212248802185059,-2.3565077781677246
1780853168439437800,31.712437744140626,0.2334684133529663,5.137487888336182,-1.8384164571762085
1780853168487957500,31.76095751953125,0.7476439476013184,3.729628562927246,0.10357451438903809
1780853168536477200,31.809477294921876,1.776294469833374,-1.0705556869506836,1.4271116256713867
1780853168584996900,31.857996826171874,4.172783851623535,-4.164194107055664,5.799200534820557
1780853168633516800,31.906516845703123,-3.9162890911102295,-5.687016487121582,-0.3586463928222656
1780853168682036200,31.9550361328125,0.6948527097702026,-2.9112911224365234,-2.5162200927734375
1780853168730556200,32.00355615234375,1.7683117389678955,-0.5640554428100586,-6.281947135925293
1780853168779075800,32.05207592773438,-0.7160950303077698,-1.7187080383300781,-1.1760125160217285
1780853168827595800,32.100595703125,-0.7445415258407593,1.6532964706420898,-0.5948731899261475
1780853168876115500,32.149115478515625,2.2128164768218994,5.186608791351318,-0.03675726056098938
1780853168924635000,32.197634765625,-0.3752838373184204,3.012239456176758,1.256332516670227
1780853168973154800,32.24615478515625,2.3139142990112305,1.3586397171020508,0.8980869054794312
1780853169021674500,32.29467456054687,3.8527908325195312,0.826080322265625,1.4207453727722168
1780853169070194200,32.343194091796875,3.011317729949951,-1.7736921310424805,0.706618070602417
1780853169118713900,32.3917138671875,4.662858009338379,-3.1443967819213867,1.119977355003357
1780853169167233800,32.44023388671875,-1.3451040983200073,0.6854486465454102,1.977156162261963
1780853169215753500,32.48875341796875,-2.7866764068603516,-4.826038360595703,-1.270185947418213
1780853169264273200,32.537273193359376,-2.456348180770874,-6.896487236022949,0.4644901752471924
1780853169312792800,32.58579272460938,-1.532496690750122,0.11681365966796875,1.8666749000549316
1780853169361312500,32.6343125,-0.5715396404266357,4.241883277893066,-1.087403416633606
1780853169409832400,32.68283251953125,-0.9295240640640259,5.030330181121826,-2.35506272315979
1780853169458351900,32.731351806640625,0.17489778995513916,4.950000286102295,-2.162097454071045
1780853169506871800,32.77987182617188,1.1474429368972778,3.445016384124756,0.14867043495178223
1780853169555391500,32.8283916015625,1.519800066947937,-0.8545875549316406,1.7280927896499634
1780853169603911200,32.8769111328125,3.463331937789917,-2.974154472351074,1.5702292919158936
1780853169652430800,32.925430908203126,0.027317166328430176,-5.13026237487793,1.9829249382019043
1780853169700950500,32.97395043945313,-2.651885747909546,-3.090909957885742,-2.4179093837738037
1780853169749470500,33.02247045898437,2.6624512672424316,-0.9443187713623047,-3.4318552017211914
1780853169797990000,33.070989990234374,-1.213592529296875,-1.0610971450805664,-3.158694267272949
1780853169846509800,33.119509765625,-0.016512006521224976,2.4138569831848145,0.36960887908935547
1780853169895029500,33.16802954101563,1.768174648284912,5.177628040313721,0.7053634524345398
1780853169943549200,33.21654907226562,0.24512338638305664,3.265350341796875,0.9649492502212524
1780853169992068900,33.26506884765625,-0.12804186344146729,0.26022911071777344,-0.7565802335739136
1780853170089108500,33.3621083984375,7.574957847595215,-1.788773536682129,2.452122211456299
1780853170137628000,33.4106279296875,1.3543888330459595,-4.8496599197387695,3.052591562271118
1780853170186147800,33.45914794921875,-2.2480521202087402,-2.101137161254883,1.6020971536636353
1780853170234667500,33.50766748046875,-2.4941587448120117,-2.228006362915039,-2.7609143257141113
1780853170283187200,33.55618725585938,-2.0563197135925293,-4.3692121505737305,0.32550209760665894
1780853170331707000,33.60470678710937,-2.5917482376098633,0.18500137329101562,3.5609145164489746
1780853170380227300,33.65322729492188,-0.5146203637123108,4.528491973876953,-0.12765084207057953
1780853170428747000,33.7017470703125,0.315021276473999,6.132119655609131,-2.389829397201538
1780853170477266700,33.7502666015625,0.9435194730758667,4.777111530303955,-0.5301710367202759
1780853170525786400,33.798786376953124,2.675858497619629,2.7548346519470215,2.1922497749328613
1780853170574306000,33.84730615234375,-0.01083064079284668,-5.97244930267334,3.597059965133667
1780853170622825700,33.89582568359375,3.722109317779541,-6.486110687255859,1.2908265590667725
1780853170671345400,33.94434545898437,-3.487981081008911,-1.905548095703125,-5.867753505706787
1780853170719865000,33.992864990234374,-0.04977327585220337,-0.7564525604248047,-2.9746389389038086
1780853170768384800,34.041384765625,-0.41498053073883057,-3.5222463607788086,-4.352431774139404
1780853170816904400,34.08990454101563,-0.5211799144744873,1.0514812469482422,-1.2972972393035889
1780853170865424100,34.13842407226562,1.4820774793624878,4.378897190093994,0.852306604385376
1780853170913944000,34.186944091796875,3.1748623847961426,4.980844974517822,1.2344245910644531
1780853170962463500,34.23546337890625,-2.9885237216949463,1.7319164276123047,0.5132537484169006
1780853171010983400,34.2839833984375,1.6089200973510742,1.0371313095092773,-0.7311413884162903
1780853171059503000,34.33250317382812,4.794220924377441,0.7524213790893555,-0.060885123908519745
1780853171108022800,34.381022705078124,7.572613716125488,-2.2020483016967773,0.2432386577129364
1780853171156542500,34.42954248046875,0.895233690738678,-1.9126300811767578,1.2346453666687012
1780853171205062000,34.478061767578126,-2.5786759853363037,-1.0028266906738281,2.2522263526916504
1780853171253581800,34.52658178710937,-3.3112130165100098,-6.040453910827637,-1.765613079071045
1780853171302101500,34.5751015625,-2.4257941246032715,-6.438434600830078,1.8940870761871338
1780853171350621200,34.62362109375,-2.4872641563415527,1.6745290756225586,2.028392791748047
1780853171399140900,34.67214086914063,-0.03164815902709961,4.346987724304199,-0.8762270212173462
1780853171447660500,34.72066064453125,1.090997338294983,5.769809722900391,-2.7761523723602295
1780853171496180200,34.76918017578125,-0.7032029628753662,4.262401103973389,-1.4035550355911255
1780853171544700000,34.817699951171875,2.348684787750244,3.780555248260498,1.8443100452423096
1780853171593219600,34.866219482421876,-0.45036858320236206,-2.2990036010742188,3.2169785499572754
1780853171641739300,34.9147392578125,4.209687232971191,-6.699522018432617,2.7896504402160645
1780853171690259000,34.96325903320312,-2.2782230377197266,-3.8142614364624023,-3.1436471939086914
1780853171738778600,35.011778564453124,-0.06129646301269531,-0.13079833984375,-3.101088523864746
1780853171787298300,35.06029833984375,-0.6280686855316162,-5.224902153015137,-5.450245380401611
1780853171835818000,35.10881787109375,-1.0538153648376465,-0.21209716796875,-3.3694233894348145
1780853171884337700,35.15733764648437,0.5834375619888306,2.566166877746582,-0.49266502261161804
1780853171932857300,35.205857421875,3.513789653778076,5.104787826538086,1.1955469846725464
1780853171981377000,35.254376953125,0.8656508922576904,4.151640892028809,0.9834348559379578
1780853172029896700,35.30289672851563,-1.5083730220794678,0.7239847183227539,0.8813991546630859
1780853172078416400,35.35141650390625,2.6516833305358887,1.3846445083618164,0.026582717895507812
1780853172126936000,35.39993603515625,6.73687744140625,0.11329841613769531,-0.3595137596130371
1780853172175455700,35.448455810546875,5.259049415588379,-3.7756643295288086,-0.24616897106170654
1780853172223975400,35.496975341796876,-0.6525694131851196,-2.923725128173828,3.487651824951172
1780853172272495000,35.5454951171875,-3.4871482849121094,-1.5678415298461914,-0.09925538301467896
1780853172321014800,35.59401489257812,-0.7534142136573792,-4.496122360229492,-2.5396459102630615
1780853172369534500,35.642534423828124,-3.8895273208618164,-4.248350143432617,2.937769889831543
1780853172418054100,35.69105419921875,-3.0360283851623535,3.4618663787841797,1.0831338167190552
1780853172466573800,35.73957373046875,1.4822417497634888,5.036679744720459,-2.107346296310425
1780853172515093500,35.78809350585937,0.1906890869140625,5.3023529052734375,-1.6872327327728271
1780853172563613000,35.83661303710937,0.9599199295043945,3.8453779220581055,0.17543059587478638
1780853172612132900,35.8851328125,1.2968446016311646,0.6277055740356445,3.5958948135375977
1780853172660652300,35.93365234375,1.5383758544921875,-5.81827449798584,3.7508621215820312
1780853172709172200,35.98217211914063,3.6936426162719727,-5.302365303039551,0.7711700201034546
1780853172757691600,36.03069165039062,-3.3978772163391113,-1.436971664428711,-5.619177341461182
1780853172806211300,36.07921142578125,0.3370510935783386,-0.3650999069213867,-2.6344833374023438
1780853172854731000,36.12773095703125,-1.17312490940094,-4.389082908630371,-4.394272327423096
1780853172903250700,36.17625073242188,-1.3401066064834595,1.0810747146606445,-1.5961238145828247
1780853172951770400,36.22477026367188,1.1209721565246582,3.336703300476074,-0.33582746982574463
1780853173000290000,36.2732900390625,3.9759488105773926,4.141207695007324,1.0185545682907104
1780853173048809700,36.321809814453125,-1.4195442199707031,2.4633307456970215,0.5616339445114136
1780853173097329400,36.37032934570313,-0.2042761743068695,1.1590909957885742,-0.19419017434120178
1780853173145849000,36.41884912109375,3.7777233123779297,2.6298351287841797,-0.817764401435852
1780853173194368800,36.46736865234375,6.530367851257324,0.3423490524291992,0.8588629961013794
1780853173242888200,36.51588818359375,4.0483198165893555,-3.8569955825805664,1.184316635131836
1780853173291408100,36.564408203125,-0.1470736265182495,-0.5619926452636719,3.155414342880249
1780853173339927600,36.61292749023438,-3.9953675270080566,-3.2620983123779297,-1.7302954196929932
1780853173388447500,36.66144750976562,-2.197073221206665,-6.811819076538086,-1.788606882095337
1780853173436967000,36.709966796875,-2.6681814193725586,-3.300395965576172,4.821211338043213
1780853173485486600,36.758486572265625,-1.6363577842712402,3.1272048950195312,1.0327376127243042
1780853173534006300,36.80700634765625,1.5537716150283813,5.597902297973633,-2.974161148071289
1780853173582526000,36.85552587890625,0.1146233081817627,5.708637237548828,-2.1437668800354004
1780853173631045600,36.90404565429687,0.7364963293075562,4.240270137786865,0.38128918409347534
1780853173679565300,36.9525654296875,1.0683811902999878,0.005896568298339844,3.230933666229248
1780853173728085000,37.0010849609375,1.9924486875534058,-6.489234924316406,3.6176376342773438
1780853173776604700,37.04960473632813,2.4285926818847656,-5.973496437072754,0.2900405824184418
1780853173825124000,37.0981240234375,-2.698943614959717,-0.6568889617919922,-6.221437454223633
1780853173873643800,37.14664379882812,0.4208607077598572,-2.140714645385742,-4.024441242218018
1780853173922163500,37.19516357421875,-0.6554903388023376,-2.119154930114746,-4.0374555587768555
1780853173970683100,37.24368310546875,-0.6550227999687195,2.185666084289551,-1.2229093313217163
1780853174019202800,37.29220288085938,3.7882537841796875,4.2813520431518555,1.0720984935760498
1780853174067722500,37.34072241210937,0.7611501216888428,4.137270450592041,1.3359880447387695
1780853174116242200,37.3892421875,-2.629936933517456,1.0958995819091797,0.7603039741516113
1780853174164761900,37.437761962890626,3.244086980819702,1.1391019821166992,-0.12754195928573608
1780853174213281500,37.48628149414063,4.280145168304443,1.110544204711914,0.05921944975852966
1780853174261801000,37.53480102539063,7.835788726806641,-2.7338056564331055,-1.252153992652893
1780853174310320600,37.58332055664062,0.5325988531112671,-3.3351669311523438,1.5363833904266357
1780853174358840300,37.63184033203125,-2.7027387619018555,-0.16054058074951172,2.841334819793701
1780853174407360000,37.680360107421876,-2.088190793991089,-3.3376874923706055,-2.8618974685668945
1780853174504399000,37.77739916992188,-2.787736415863037,1.469015121459961,3.878882646560669
1780853174552918800,37.82591870117187,-0.8899438977241516,4.0937089920043945,-0.7347797155380249
1780853174601438500,37.8744384765625,2.5106029510498047,6.335278511047363,-3.163486957550049
1780853174649958100,37.922958251953126,0.12078189849853516,5.397615432739258,-1.7729105949401855
1780853174698477800,37.97147778320313,2.6247177124023438,3.48861026763916,1.464325189590454
1780853174746997500,38.01999755859375,-0.9274915456771851,-5.661432266235352,3.6369996070861816
1780853174795517000,38.06851684570312,4.408417701721191,-5.431034088134766,3.326107978820801
1780853174844036600,38.11703662109375,-1.6408874988555908,-3.088160514831543,-2.9482498168945312
1780853174892556300,38.16555639648438,-1.2404377460479736,-1.143716812133789,-3.2398829460144043
1780853174941076000,38.21407592773438,-0.39933905005455017,-3.177670478820801,-5.4918904304504395
1780853174989595600,38.262595703125,-0.32000964879989624,0.37078189849853516,-3.6290335655212402
1780853175038115000,38.31111499023437,0.22702181339263916,2.773648262023926,-0.8736878633499146
1780853175086634800,38.359634765625,4.0017900466918945,4.803901672363281,1.2339308261871338
1780853175135154400,38.40815454101563,-1.8543699979782104,2.9114694595336914,1.289717435836792
1780853175183674000,38.45667407226563,-0.31918925046920776,-0.0738077163696289,1.0544416904449463
1780853175232193800,38.50519384765625,3.287712812423706,1.5108509063720703,-0.18367734551429749
1780853175280713200,38.55371313476562,7.710426330566406,1.6402263641357422,-0.9380542635917664
1780853175329233200,38.602233154296876,4.323009967803955,-4.406853675842285,-0.1898958384990692
1780853175426272300,38.69927221679688,-3.8793983459472656,-0.18520736694335938,2.1124911308288574
1780853175474792000,38.7477919921875,-1.2374922037124634,-3.713467597961426,-3.2984557151794434
1780853175523311400,38.79631127929687,-2.272902250289917,-5.6798248291015625,1.0411216020584106
1780853175571831000,38.8448310546875,-3.034393787384033,1.6012325286865234,3.1622204780578613
1780853175620350700,38.89335083007813,-0.49803608655929565,3.9174017906188965,-0.398176372051239
1780853175668870400,38.94187036132813,0.664812445640564,5.5635666847229,-2.4225714206695557
1780853175717389800,38.99038989257812,0.09445703029632568,4.778327941894531,-1.7579231262207031
1780853175765909500,39.03890942382812,2.633744239807129,3.0645523071289062,2.637147903442383
1780853175814429200,39.08742919921875,0.2175363302230835,-6.134239196777344,3.1431827545166016
1780853175862948600,39.135948486328125,2.768970489501953,-7.234574317932129,1.8704248666763306
1780853175911468500,39.18446850585938,-0.9612898230552673,-1.331655502319336,-4.665523052215576
1780853175959988000,39.23298803710937,-0.8987376093864441,-0.8496789932250977,-3.4477462768554688
1780853176008507600,39.28150756835937,-0.889342188835144,-3.7211694717407227,-5.036769390106201
1780853176057027300,39.33002734375,-1.0047320127487183,1.3035392761230469,-2.0908567905426025
1780853176105546800,39.378546630859375,1.0881386995315552,3.669485569000244,-0.4802039861679077
1780853176154066400,39.42706640625,2.796098232269287,4.140064716339111,1.6108484268188477
1780853176202586000,39.47558618164062,-3.085378646850586,2.16103458404541,1.0761439800262451
1780853176251105800,39.52410571289062,1.0814493894577026,1.068359375,0.9478110074996948
1780853176299625200,39.572625244140625,2.7068097591400146,1.2640047073364258,0.4015948176383972
1780853176348145000,39.621144775390626,7.382780075073242,-1.3221540451049805,-1.738911509513855
1780853176396664600,39.66966455078125,3.1688385009765625,-5.430651664733887,1.4946167469024658
1780853176445184000,39.71818408203125,-0.6837624311447144,-2.0773582458496094,4.439695358276367
1780853176493703700,39.76670361328125,-2.478719472885132,0.47537803649902344,-0.371864914894104
1780853176542223400,39.815223388671875,-0.8793672919273376,-3.0432510375976562,-1.9310798645019531
1780853176639262500,39.91226245117188,-2.9874229431152344,2.9734177589416504,0.12250745296478271
1780853176687782100,39.9607822265625,1.0483615398406982,3.9340806007385254,-0.9441075325012207
1780853176736301800,40.0093017578125,-0.21532762050628662,4.663167953491211,-0.9669734835624695
1780853176784821200,40.0578212890625,0.05039334297180176,4.044254779815674,0.7455797791481018
1780853176833341000,40.1063408203125,1.7708765268325806,2.5260043144226074,4.214099407196045
1780853176881860600,40.15486059570313,0.39876067638397217,-7.013772010803223,3.0904786586761475
1780853176930380300,40.20338037109375,1.6920976638793945,-8.662752151489258,0.54604172706604
1780853176978899700,40.25189965820312,-0.355121910572052,2.0323219299316406,-3.379851818084717
1780853177027419400,40.30041943359375,-0.19581300020217896,-1.861215591430664,-4.985096454620361
1780853177075939000,40.34893896484375,-0.7144311666488647,-2.337789535522461,-4.6003594398498535
1780853177124458500,40.39745849609375,-0.3880005478858948,1.5793161392211914,-2.163930654525757
1780853177172978200,40.44597827148438,1.7770236730575562,2.9994492530822754,0.7400003671646118
1780853177221497600,40.49449755859375,4.225866317749023,3.9317378997802734,2.294081926345825
1780853177270017500,40.543017578125,-0.9118089079856873,2.1525497436523438,0.809306263923645
1780853177318537000,40.591536865234374,0.36015787720680237,1.5319709777832031,0.254849374294281
1780853177367056400,40.640056396484376,1.9127984046936035,0.3417644500732422,-1.182005524635315
1780853177415576000,40.688576171875,6.981029987335205,-1.3003778457641602,-0.4596096873283386
1780853177464095700,40.737095703125,3.1371347904205322,-4.317934989929199,1.7652332782745361
1780853177512615400,40.78561547851562,-1.1135532855987549,-2.011898994445801,3.030198335647583
1780853177561134800,40.834134765625,-2.3804855346679688,1.0294990539550781,-1.181189775466919
1780853177609654500,40.882654541015626,-1.5694642066955566,-2.927122116088867,-2.764486789703369
1780853177658174000,40.93117407226563,-2.636701822280884,-3.990715980529785,2.4127354621887207
1780853177706693600,40.97969360351563,-2.7104651927948,2.688289165496826,1.6424102783203125
1780853177755213300,41.02821337890625,1.1048808097839355,4.063608646392822,-0.8500891923904419
1780853177803732700,41.07673266601562,1.3741480112075806,5.231084823608398,-2.2819018363952637
1780853177852252400,41.12525244140625,1.8577905893325806,4.122982978820801,0.24801164865493774
1780853177900772000,41.17377221679688,1.3632628917694092,-0.2083444595336914,4.085700988769531
1780853177949291500,41.22229150390625,2.41459321975708,-4.943325996398926,2.6467058658599854
1780853177997811200,41.27081127929687,2.486131191253662,-6.017146110534668,-0.06349240243434906
1780853178046330600,41.31933056640625,-2.2216403484344482,-0.5552520751953125,-4.549709796905518
1780853178094850300,41.367850341796874,-0.6903210878372192,-0.9079399108886719,-3.000450372695923
1780853178143370000,41.416369873046875,-1.0954899787902832,-2.8429718017578125,-4.2075934410095215
1780853178191889700,41.4648896484375,-0.4341425895690918,1.4164342880249023,-1.146016001701355
1780853178240409000,41.5134091796875,1.1158053874969482,3.069693088531494,1.1915220022201538
1780853178288928500,41.56192846679688,2.5503549575805664,3.067596435546875,2.3851208686828613
1780853178337448200,41.6104482421875,-2.0388264656066895,2.0160837173461914,-0.08023717999458313
1780853178385967900,41.6589677734375,0.34963899850845337,2.220590114593506,-0.2826940417289734
1780853178434487600,41.70748754882813,2.7284164428710938,2.1720681190490723,-0.481930136680603
1780853178483007000,41.75600708007813,6.620216369628906,-1.312455177307129,-1.3896000385284424
1780853178531526700,41.80452661132812,3.9153785705566406,-4.229618072509766,2.071660041809082
1780853178580046000,41.85304614257812,-0.972285270690918,-0.5069217681884766,3.9372026920318604
1780853178628565800,41.901565673828124,-3.436832904815674,-2.6062259674072266,-1.4679170846939087
1780853178677085400,41.95008544921875,-2.1964478492736816,-5.99116325378418,-1.7963001728057861
1780853178725604900,41.99860498046875,-3.286856174468994,-2.7925777435302734,4.503166198730469
1780853178774124500,42.04712451171875,-2.336496353149414,2.9996442794799805,0.5481629371643066
1780853178822644000,42.09564404296875,1.2665208578109741,5.184836387634277,-1.9244060516357422
1780853178871163600,42.14416357421875,0.033437132835388184,5.276644706726074,-2.094313621520996
1780853178919683000,42.19268310546875,0.6985797882080078,4.00184965133667,-0.26251816749572754
1780853178968202800,42.24120263671875,0.8708070516586304,1.0320091247558594,3.806846857070923
1780853179016722400,42.28972241210938,2.6273534297943115,-7.05595588684082,3.8082408905029297
1780853179065241900,42.33824194335938,0.9150397777557373,-7.3858842849731445,1.036595344543457
1780853179113761500,42.38676147460937,-0.8748636841773987,1.6099090576171875,-4.13070821762085
1780853179162281000,42.43528100585937,-0.19769060611724854,-0.6547451019287109,-2.829563617706299
1780853179210800400,42.48380029296875,-1.7517192363739014,-4.426766395568848,-3.332050085067749
1780853179259320000,42.532320068359375,-0.5491684079170227,1.6142091751098633,-2.4027750492095947
1780853179307839700,42.58083984375,1.4161901473999023,3.180727481842041,-0.20034685730934143
1780853179356359400,42.629359375,3.851348400115967,4.4751081466674805,1.856938362121582
1780853179404878800,42.67787890625,-1.5222499370574951,2.5571975708007812,1.5588581562042236
1780853179453398500,42.7263984375,1.053696632385254,1.5808591842651367,0.17746275663375854
1780853179501918000,42.77491796875,2.407444715499878,1.1168489456176758,-0.620739221572876
1780853179550437400,42.823437255859375,9.148435592651367,-0.7184362411499023,-0.7367085814476013
1780853179598957000,42.87195703125,1.5717695951461792,-4.904018402099609,1.252077579498291
1780853179647476500,42.9204765625,0.47002434730529785,1.1270809173583984,3.444427490234375
1780853179695996400,42.96899633789062,-3.4711461067199707,-1.370504379272461,-0.020810723304748535
1780853179744515800,43.017515869140624,-2.6831398010253906,-7.969999313354492,-2.736194610595703
1780853179793035500,43.066035400390625,-2.6818790435791016,-3.677122116088867,4.2587199211120605
1780853179841555000,43.114554931640626,-1.5222220420837402,2.549534797668457,2.253081798553467
1780853179890074400,43.16307446289063,1.1568479537963867,5.555567741394043,-2.06203031539917
1780853179938594000,43.21159399414063,-0.014437198638916016,5.529269218444824,-2.6460657119750977
1780853179987113500,43.26011352539062,1.7238705158233643,5.085751533508301,-1.1755468845367432
1780853180035633200,43.30863305664062,-0.11191093921661377,0.4433774948120117,3.328455686569214
1780853180132672300,43.40567236328125,2.0819220542907715,-3.69427490234375,1.5446444749832153
1780853180181192000,43.45419189453125,-3.589263439178467,-2.3876256942749023,-5.707346439361572
1780853180229711400,43.50271142578125,0.362459659576416,-3.558382987976074,-3.5270333290100098
1780853180278231000,43.55123095703125,-1.7200783491134644,-1.9546823501586914,-7.188889503479004
1780853180326750500,43.59975048828125,-0.4615165591239929,0.8071689605712891,-1.8423019647598267
1780853180375270100,43.648270263671876,2.7289319038391113,3.2548437118530273,1.5897245407104492
1780853180423789600,43.69678955078125,1.2280075550079346,3.837540626525879,2.4911303520202637
1780853180472309000,43.74530908203125,-1.327010989189148,2.3940792083740234,0.6736184358596802
1780853180520828700,43.79382861328125,2.657012701034546,2.5650763511657715,-0.49990782141685486
1780853180569348000,43.84234814453125,3.8085644245147705,2.8515748977661133,0.7042286992073059
1780853180617867800,43.89086767578125,7.5266571044921875,-0.896942138671875,-0.34827563166618347
1780853180666387200,43.93938720703125,1.0735971927642822,-2.1815738677978516,0.055146872997283936
1780853180714906600,43.98790673828125,-1.396559238433838,0.05698871612548828,1.1668851375579834
1780853180763426300,44.03642626953125,-2.0654349327087402,-4.526210784912109,-3.6097989082336426
1780853180811946000,44.08494604492188,-4.3027753829956055,-11.652191162109375,4.006196975708008
1780853180860465700,44.13346557617187,-2.0591697692871094,-0.9192342758178711,6.194791793823242
1780853180908985000,44.18198510742187,1.6568129062652588,3.6767730712890625,-1.0773205757141113
1780853180957504800,44.2305048828125,1.7343946695327759,6.4685869216918945,-4.481689929962158
1780853181006024200,44.279024169921875,-0.8229542374610901,6.838696002960205,-2.039994239807129
1780853181054543600,44.32754370117188,0.6833153963088989,5.944936275482178,-0.189841628074646
1780853181103063300,44.37606323242188,1.8054512739181519,0.25515174865722656,3.402646541595459
1780853181151582700,44.42458276367187,2.6274352073669434,-7.292606353759766,3.5388176441192627
1780853181200102400,44.47310229492187,1.5108129978179932,-5.088680267333984,2.833479642868042
1780853181248621800,44.521621826171874,-2.754978656768799,-2.5935678482055664,-9.133395195007324
1780853181297141500,44.5701416015625,2.0561530590057373,-2.699258804321289,-4.887459754943848
1780853181345661000,44.618660888671876,-1.7617645263671875,-4.422389030456543,-3.2869906425476074
1780853181394180400,44.66718041992188,-1.311163067817688,1.0247774124145508,1.4598445892333984
1780853181442700000,44.71569995117188,4.0413408279418945,4.716313362121582,1.8404515981674194
1780853181491219500,44.76421948242187,-0.6487221717834473,4.055095195770264,0.8332693576812744
1780853181539739100,44.8127392578125,-0.48769885301589966,2.227363109588623,-0.15763911604881287
1780853181588258600,44.861258544921874,4.111857891082764,2.6518077850341797,-0.16710206866264343
1780853181636778000,44.909778076171875,7.689768314361572,0.28168296813964844,-1.3605012893676758
1780853181685297700,44.958297607421876,3.529235363006592,-4.434623718261719,-0.049614667892456055
1780853181733817000,45.00681713867188,-0.6155989170074463,0.47162914276123047,3.382805347442627
1780853181782336800,45.05533666992188,-3.4403867721557617,-5.7836151123046875,-0.6519367694854736
1780853181830856200,45.10385620117187,-2.718761920928955,-10.26264762878418,-0.6557945609092712
1780853181879376000,45.1523759765625,-2.2913215160369873,-1.0863733291625977,0.8564099073410034
1780853181927895300,45.200895263671875,-0.2623409032821655,3.27046537399292,-0.18299800157546997
1780853181976414700,45.249414794921876,0.39740705490112305,6.053091526031494,-2.643341541290283
1780853182024934400,45.29793432617188,-0.684654712677002,6.902878761291504,-2.736821174621582
1780853182073453800,45.34645385742188,1.541731834411621,6.19628381729126,-0.6809017658233643
1780853182121973500,45.39497338867187,0.8187071084976196,-2.066957473754883,5.039609909057617
1780853182170493000,45.44349291992187,3.1934456825256348,-9.514479637145996,2.0247600078582764
1780853182219012600,45.4920126953125,2.879499912261963,-3.202688217163086,-0.2731803357601166
1780853182267532000,45.540531982421875,-0.007872700691223145,1.4182672500610352,-4.906548976898193
1780853182316051500,45.589051513671876,-1.281134843826294,-1.6420583724975586,-3.4099371433258057
1780853182364571100,45.63757104492188,-0.7555942535400391,-3.036355972290039,-2.7898032665252686
1780853182413090600,45.68609057617188,0.0023276209831237793,1.2598905563354492,-0.4422205090522766
1780853182461610200,45.7346103515625,0.610821008682251,3.659207344055176,0.3471032977104187
1780853182510129700,45.78312963867187,2.3356823921203613,5.089617729187012,0.5965474843978882
1780853182558649000,45.831649169921874,0.09103354811668396,3.2412052154541016,0.1800321340560913
1780853182607168800,45.880168701171876,-0.8169076442718506,2.1158580780029297,-0.31613925099372864
1780853182655688200,45.92868823242188,2.647911310195923,-0.6060419082641602,-1.5333850383758545
1780853182704208000,45.97720776367188,7.926168918609619,-2.469069480895996,-0.2013850212097168
1780853182752727300,46.02572729492187,4.202277183532715,-2.8055334091186523,2.3638646602630615
1780853182801247000,46.0742470703125,-1.163947582244873,-0.8797903060913086,3.4895355701446533
1780853182849766400,46.122766357421874,-3.615699052810669,-2.4064483642578125,-2.306083917617798
1780853182898285800,46.171285888671875,-2.6665186882019043,-5.689658164978027,-3.507544755935669
1780853182946805500,46.219805419921876,-2.0336177349090576,-1.8513193130493164,4.360607624053955
1780853182995325000,46.26832495117188,-2.569063663482666,3.405109405517578,2.5238375663757324
1780853183043844600,46.3168447265625,1.8391921520233154,5.91690731048584,-1.9054548740386963
1780853183092364000,46.36536401367187,1.0098018646240234,5.811479091644287,-3.765819549560547
1780853183140883500,46.41388354492187,1.1979665756225586,4.647734642028809,-0.1592523455619812
1780853183189403100,46.462403076171874,-0.5063380002975464,-2.722323417663574,4.044015884399414
1780853183237922300,46.51092236328125,3.7229623794555664,-6.395977973937988,2.3089349269866943
1780853183286442000,46.55944189453125,1.8749070167541504,-3.9881038665771484,0.2970716059207916
1780853183334961400,46.60796142578125,-2.350186824798584,0.054290771484375,-4.53956413269043
1780853183383481000,46.65648120117187,-1.134290099143982,-3.940509796142578,-3.534287214279175
1780853183432000500,46.70500048828125,-1.037247657775879,-1.834432601928711,-5.18399715423584
1780853183480520000,46.75352001953125,-0.00834566354751587,1.5712289810180664,-1.1442679166793823
1780853183529039600,46.80203955078125,2.149946689605713,4.690362930297852,1.7636394500732422
1780853183577559000,46.85055908203125,1.4396573305130005,4.645594120025635,1.958765983581543
1780853183626078700,46.89907861328125,-1.4998142719268799,2.0241127014160156,1.0797439813613892
1780853183674598100,46.94759814453125,2.3737635612487793,1.2098121643066406,-0.1075945645570755
1780853183723117600,46.99611767578125,4.55198860168457,0.8744449615478516,0.4452217221260071
1780853183771637200,47.04463720703125,7.400702953338623,-2.179229736328125,0.2846125662326813
1780853183820156700,47.09315673828125,-0.1588483452796936,-3.2903947830200195,1.9552452564239502
1780853183868676000,47.14167602539062,-1.8307195901870728,0.2189350128173828,2.9035484790802
1780853183917195500,47.190195556640624,-2.2820067405700684,-4.023177146911621,-3.507035255432129
1780853183965715200,47.238715087890625,-3.4359822273254395,-6.958103179931641,-0.7715576887130737
1780853184014234600,47.28723461914063,-2.9770870208740234,0.08522605895996094,4.3447184562683105
1780853184062754000,47.33575415039063,-1.1745986938476562,4.085947036743164,-0.07712697982788086
1780853184111273700,47.38427368164062,1.1996784210205078,5.888053894042969,-1.8833390474319458
1780853184159793200,47.43279321289062,0.11017251014709473,4.948077201843262,-1.4361109733581543
1780853184208312800,47.481312744140624,2.145977020263672,4.699880123138428,2.1977624893188477
1780853184256832300,47.529832275390625,0.3245429992675781,-3.8945627212524414,4.617668151855469
1780853184305351700,47.5783515625,4.167917728424072,-5.4912919998168945,3.1310932636260986
1780853184353871400,47.62687133789063,-1.386467695236206,-4.892207145690918,-2.806882619857788
1780853184402390500,47.675390625,0.17913079261779785,0.4362974166870117,-4.191084861755371
1780853184450910200,47.72391015625,-0.06951773166656494,-3.1756296157836914,-5.192122936248779
1780853184499429600,47.7724296875,-1.353033423423767,-1.9313688278198242,-2.6844847202301025
1780853184547949300,47.82094921875,-0.8165188431739807,1.6758403778076172,-0.24332675337791443
1780853184596468700,47.86946875,2.5829992294311523,4.822789669036865,0.8796535134315491
1780853184644988200,47.91798828125,1.7883000373840332,4.344964504241943,0.5442054271697998
1780853184693507800,47.9665078125,-1.3520220518112183,1.1162567138671875,0.22774823009967804
1780853184742027300,48.01502734375,3.6223747730255127,2.1802444458007812,0.22163933515548706
1780853184790546700,48.06354663085938,4.395414352416992,2.0305404663085938,1.3377569913864136
1780853184839066000,48.11206616210937,7.343086242675781,-1.3080692291259766,-1.0757534503936768
1780853184887585500,48.16058544921875,1.3061408996582031,0.7440338134765625,0.9404113292694092
1780853184936105200,48.209105224609374,-4.0569167137146,-6.961756706237793,0.41025060415267944
1780853184984624600,48.257624755859375,-5.88768196105957,-14.496405601501465,0.4744452238082886
1780853185033144300,48.306144287109376,-0.5929316282272339,-2.0959930419921875,4.284335613250732
1780853185081663700,48.35466381835938,0.655224084854126,2.8697266578674316,0.8544215559959412
1780853185130183200,48.40318310546875,0.23273515701293945,5.7848286628723145,-2.628188371658325
1780853185178702600,48.45170263671875,-0.4160943627357483,6.688549041748047,-3.000560760498047
1780853185227222000,48.50022192382813,1.9244004487991333,7.212876796722412,-0.7427453398704529
1780853185275741700,48.54874169921875,-0.03739213943481445,0.7254819869995117,3.1639766693115234
1780853185324261000,48.59726123046875,2.1930394172668457,-5.567633628845215,3.1857781410217285
1780853185372780800,48.64578076171875,2.0726513862609863,-6.043766975402832,3.239445447921753
1780853185421300200,48.69430029296875,-2.843557596206665,-2.655817985534668,-5.269173622131348
1780853185469819400,48.7428193359375,1.6332963705062866,-1.7703828811645508,-4.768642425537109
1780853185518339000,48.79133911132813,-0.021413862705230713,-3.791293144226074,-6.067659378051758
1780853185566858500,48.8398583984375,-1.710012674331665,-0.5785684585571289,-1.2529023885726929
1780853185615378200,48.88837817382812,1.415951132774353,3.04488468170166,0.560236930847168
1780853185663897600,48.936897705078124,3.154618740081787,5.483796119689941,1.0438132286071777
1780853185712417000,48.9854169921875,-0.33873575925827026,3.3018088340759277,0.4952729344367981
1780853185760936400,49.0339365234375,1.0476168394088745,1.3768863677978516,-0.1748124212026596
1780853185809455900,49.082455810546875,3.804225444793701,2.5377378463745117,0.44856059551239014
1780853185857975600,49.1309755859375,8.52421760559082,0.5479707717895508,0.5165477395057678
1780853185906495000,49.17949487304688,3.6699070930480957,-3.2856664657592773,0.8341040015220642
1780853185955014400,49.22801440429687,-0.592358410358429,-0.7329111099243164,3.181819438934326
1780853186003533800,49.27653393554687,-6.152325630187988,-7.219931602478027,-3.1853058338165283
1780853186052053200,49.32505322265625,-1.1573866605758667,-8.440055847167969,-2.1602797508239746
1780853186100573000,49.373572998046875,-2.467406988143921,-0.6959781646728516,5.957115173339844
1780853186149092400,49.42209228515625,-1.191522479057312,3.665555000305176,1.0485986471176147
1780853186197612000,49.47061206054688,1.2015763521194458,6.089963912963867,-4.06162691116333
1780853186246131500,49.51913134765625,1.042266607284546,6.829741954803467,-3.1176466941833496
1780853186294651000,49.56765087890625,0.2770894765853882,4.831157207489014,0.6347165107727051
1780853186343170300,49.61617041015625,2.619906187057495,-6.385337829589844,3.0034544467926025
1780853186391689700,49.66468969726562,5.314677715301514,-5.617009162902832,4.268525123596191
1780853186440209400,49.71320947265625,-1.8794138431549072,-3.229853630065918,-4.726846694946289
1780853186488728600,49.761728515625,0.011829972267150879,-0.49854564666748047,-5.245817184448242
1780853186537248300,49.810248291015625,-1.9106450080871582,-2.352219581604004,-3.5625762939453125
1780853186585767700,49.858767578125,-1.7260513305664062,-4.242620468139648,-0.539093017578125
1780853186634287000,49.907287109375,-0.36254817247390747,2.1813783645629883,-0.7250182628631592
1780853186682806800,49.95580688476562,2.4531750679016113,5.1901116371154785,0.19148984551429749
1780853186731326000,50.00432592773438,1.6655967235565186,5.085673809051514,0.9854556322097778
1780853186779845600,50.052845703125,-1.4013975858688354,2.3140459060668945,1.260772466659546
1780853186828365000,50.10136499023437,1.9471056461334229,1.532857894897461,-0.6079146265983582
1780853186876884500,50.149884521484374,4.416233539581299,0.9920797348022461,-2.316263437271118
1780853186925404000,50.19840380859375,4.828572750091553,-3.217728614807129,0.5814577341079712
1780853186973923300,50.24692333984375,2.773972272872925,-5.731168746948242,4.249094486236572
1780853187022443000,50.29544311523438,-0.409440815448761,0.9371137619018555,4.180384159088135
1780853187070962400,50.34396240234375,-2.4519572257995605,-1.1166515350341797,-2.900860071182251
1780853187119481900,50.39248193359375,-2.410088062286377,-5.433553695678711,-4.519632816314697
1780853187168001300,50.44100122070312,-4.175288677215576,-2.9231653213500977,5.740612983703613
1780853187216520700,50.48952075195312,-2.7561802864074707,2.874905586242676,2.7064406871795654
1780853187265040400,50.538040283203124,2.0201404094696045,5.8562140464782715,-2.8728742599487305
1780853187313559800,50.586559814453125,0.9234960079193115,6.759153842926025,-4.003297805786133
1780853187362079200,50.635079345703126,1.0166172981262207,4.286844730377197,0.6856252551078796
1780853187410598700,50.6835986328125,-0.5557757616043091,-3.2818984985351562,2.4336113929748535
1780853187459118300,50.73211840820313,3.6532959938049316,-6.683592796325684,3.2210936546325684
1780853187507637800,50.7806376953125,3.4548397064208984,-3.4237403869628906,1.9365264177322388
1780853187556157000,50.82915698242188,-3.89003324508667,-0.97674560546875,-7.55617094039917
1780853187604676600,50.87767651367187,-0.12411272525787354,-0.7169370651245117,-1.1223728656768799
1780853187653196000,50.92619604492187,-1.900506854057312,-2.6135339736938477,-4.194864749908447
1780853187701715500,50.974715576171874,-0.5203487873077393,1.3117609024047852,-1.6867666244506836
1780853187750235000,51.02323486328125,0.9686652421951294,4.376185417175293,0.755640983581543
1780853187798754300,51.07175439453125,3.2224783897399902,4.522375106811523,2.2811834812164307
1780853187847274000,51.12027392578125,-0.4982520043849945,1.6058721542358398,2.826606273651123
1780853187895793200,51.16879321289063,0.2141663283109665,1.299154281616211,-0.19727873802185059
1780853187944312800,51.21731274414063,3.0414042472839355,1.2124929428100586,-2.673020839691162
1780853187992832300,51.26583227539062,7.606786727905273,-0.5006103515625,-0.7637775540351868
1780853188041351700,51.3143515625,1.5014103651046753,-7.474855422973633,2.4431304931640625
1780853188089871000,51.36287109375,-1.3350927829742432,-1.9120121002197266,5.181380748748779
1780853188138390500,51.411390625,-2.626498222351074,1.5338859558105469,-0.463407039642334
1780853188186910200,51.45991015625,-0.8382518291473389,-5.208763122558594,-3.550708293914795
1780853188235429400,51.508429443359375,-4.2498016357421875,-2.980341911315918,3.23787260055542
1780853188283949000,51.55694897460938,-3.2351880073547363,2.913149833679199,1.4396892786026
1780853188332468500,51.60546850585938,1.5043116807937622,5.429220676422119,-1.7866288423538208
1780853188380987600,51.65398754882813,0.7870910167694092,6.025991439819336,-2.2086358070373535
1780853188429507300,51.70250732421875,2.243812322616577,5.380878448486328,0.15742909908294678
1780853188478026800,51.75102685546875,-1.2843492031097412,-1.6671533584594727,5.179645538330078
1780853188526546200,51.79954614257812,2.5103583335876465,-7.743653297424316,3.3130762577056885
1780853188575065600,51.848065673828124,0.4487025737762451,-7.595104217529297,0.3106819987297058
1780853188623585000,51.8965849609375,0.18451905250549316,3.247507095336914,-4.748666286468506
1780853188672104700,51.945104736328126,-0.9824703931808472,-4.428466796875,-3.979743480682373
1780853188720623900,51.993623779296875,-1.2527687549591064,-1.8952007293701172,-3.611957311630249
1780853188769143600,52.0421435546875,-0.30640560388565063,2.3040337562561035,-1.6775469779968262
1780853188817663000,52.0906630859375,1.8750063180923462,4.214218616485596,0.9257636070251465
1780853188866182400,52.13918237304687,1.8282749652862549,4.799917697906494,1.979499340057373
1780853188914701800,52.18770190429687,-2.4367637634277344,2.2412619590759277,0.8592208027839661
1780853188963221200,52.23622119140625,2.57175612449646,1.5537137985229492,-0.11596304178237915
1780853189011740700,52.28474072265625,3.0369086265563965,0.03288459777832031,-1.045047640800476
1780853189060260000,52.333260009765624,8.359623908996582,-2.288222312927246,-0.46347516775131226
1780853189108779500,52.381779541015625,1.6779764890670776,-3.858308792114258,3.439007043838501
1780853189157299000,52.430298828125,-1.9771114587783813,-0.17815399169921875,4.266045570373535
1780853189205818400,52.478818359375,-4.114737033843994,-2.74320125579834,-3.041821002960205
1780853189254338000,52.52733813476563,-2.443380355834961,-6.124366760253906,-2.8594844341278076
1780853189302857200,52.57585717773438,-2.7529406547546387,-0.8892879486083984,5.2073588371276855
1780853189351377000,52.624376953125,-2.358330249786377,3.2390995025634766,2.5666606426239014
1780853189399896300,52.67289624023437,1.5380264520645142,5.366252422332764,-2.4181106090545654
1780853189448415500,52.72141552734375,0.7593286037445068,4.8539252281188965,-2.7215542793273926
1780853189496935200,52.76993505859375,2.0705459117889404,5.1239237785339355,0.6640679836273193
1780853189545454600,52.81845458984375,-1.7064337730407715,-1.182948112487793,3.9612293243408203
1780853189593974000,52.86697412109375,4.083840847015381,-7.273286819458008,3.7523186206817627
1780853189642493400,52.915493408203126,0.7463083267211914,-3.6115360260009766,-0.13842712342739105
1780853189691012900,52.96401293945313,-2.6671643257141113,-2.0069141387939453,-4.7545061111450195
1780853189739532300,53.0125322265625,-1.7347429990768433,-4.235894203186035,-3.15964937210083
1780853189788051700,53.0610517578125,-1.1704751253128052,-1.3116674423217773,-5.2617645263671875
1780853189836571100,53.10957104492188,0.20075279474258423,2.177924633026123,-1.7580955028533936
1780853189885090600,53.15809057617187,3.2567927837371826,4.307023525238037,1.2718708515167236
1780853189933610000,53.20660986328125,0.9698275327682495,3.8078489303588867,2.2333340644836426
1780853189982129400,53.25512939453125,-1.7274177074432373,1.7825822830200195,2.1517527103424072
1780853190030648800,53.30364892578125,3.5654795169830322,2.116946220397949,1.0124613046646118
1780853190079168500,53.35216845703125,3.651970148086548,1.2358932495117188,-0.20432043075561523
1780853190127687700,53.400687744140626,6.3490190505981445,-3.36376953125,-1.9642250537872314
1780853190176207000,53.44920703125,1.213247299194336,-4.550450325012207,3.3777735233306885
1780853190224726500,53.4977265625,-1.8094457387924194,-0.19177818298339844,4.844473838806152
1780853190273246000,53.54624584960938,-3.0945873260498047,-2.8489952087402344,-1.4730103015899658
1780853190321765600,53.594765625,-2.7643632888793945,-5.946800231933594,-1.1902930736541748
1780853190370284800,53.64328491210937,-3.6123805046081543,-0.43955516815185547,3.2385950088500977
1780853190418804500,53.69180444335937,-0.908470630645752,4.074257850646973,-0.8814473748207092
1780853190467324000,53.740323974609375,0.5663754940032959,5.87413215637207,-1.7371389865875244
1780853190515843300,53.78884326171875,0.3499191999435425,4.567629814147949,-0.11614590883255005
1780853190564362800,53.83736279296875,2.7450642585754395,5.018523693084717,1.7423090934753418
1780853190612882000,53.8858818359375,-1.7912049293518066,-4.273186683654785,4.722530364990234
1780853190661401600,53.93440161132813,2.952561378479004,-6.9810028076171875,3.493429660797119
1780853190709921000,53.98292114257813,-1.017309546470642,-3.562514305114746,-2.184054136276245
1780853190758440400,54.0314404296875,-0.4004558324813843,-0.3804931640625,-3.8458919525146484
1780853190806959900,54.0799599609375,-1.371485948562622,-6.088232040405273,-5.700529098510742
1780853190855479000,54.12847900390625,-0.5376181602478027,0.12686538696289062,-3.928954839706421
1780853190903998700,54.17699877929687,0.1274769902229309,1.8043022155761719,-0.5327360033988953
1780853190952518000,54.22551782226562,4.460514068603516,4.721043586730957,1.164757251739502
1780853191001037600,54.27403759765625,0.05362963676452637,4.601759910583496,1.3232207298278809
1780853191049557000,54.322556884765625,-0.36156392097473145,1.8832159042358398,1.389140009880066
1780853191098076200,54.371076171875,2.85258150100708,1.6732168197631836,0.749901294708252
1780853191146595800,54.41959594726563,5.082466125488281,-0.06112861633300781,-0.6262387037277222
1780853191195115000,54.468114990234376,4.44748067855835,-3.8589305877685547,-1.4213871955871582
1780853191243634700,54.516634765625,1.9867589473724365,-2.465391159057617,3.206815242767334
1780853191292154000,54.56515405273438,-1.9639701843261719,0.5806446075439453,3.218003988265991
1780853191340673500,54.61367358398437,-2.0733814239501953,-2.017580986022949,-1.5371112823486328
1780853191389193000,54.66219287109375,-1.761320948600769,-6.102010726928711,-0.2821386456489563
1780853191437712100,54.71071215820312,-3.7548422813415527,-0.9565134048461914,4.085237979888916
1780853191486231800,54.759231689453124,-0.3981228470802307,3.6977601051330566,-0.6727585792541504
1780853191534751000,54.8077509765625,0.6952587366104126,5.375940322875977,-2.9326260089874268
1780853191583270700,54.856270751953126,0.14784467220306396,4.696206092834473,-1.8483529090881348
1780853191631790000,54.9047900390625,2.045196056365967,4.115471363067627,1.5383663177490234
1780853191680309200,54.953309326171876,0.6196411848068237,-1.7695465087890625,2.6062564849853516
1780853191728829000,55.00182885742188,3.684847354888916,-6.484147071838379,2.7348690032958984
1780853191777348000,55.05034814453125,-0.5706769227981567,-4.696414947509766,-0.14280828833580017
1780853191825867500,55.09886743164063,-1.9201080799102783,0.11666202545166016,-4.974122047424316
1780853191874387000,55.14738696289062,-0.5167473554611206,-3.8206586837768555,-3.69136643409729
1780853191922906400,55.19590625,-2.3463783264160156,-2.2751951217651367,-4.269108295440674
1780853191971425800,55.24442578125,-0.13219593465328217,2.920095920562744,-2.1242425441741943
1780853192019945200,55.2929453125,4.361850261688232,4.555991172790527,-0.5615419149398804
1780853192068464600,55.341464599609374,2.241122245788574,2.9505176544189453,2.501577615737915
1780853192116984000,55.389984130859375,-2.1935033798217773,2.24948787689209,2.379279375076294
1780853192165503500,55.43850341796875,1.7029398679733276,2.786731719970703,0.21066635847091675
1780853192214023000,55.48702294921875,5.001838207244873,-0.8110752105712891,-1.3283494710922241
1780853192262542300,55.535542236328126,5.164585113525391,-3.5875473022460938,-0.18296951055526733
1780853192311061800,55.58406176757813,1.9245069026947021,-2.4820194244384766,5.191025257110596
1780853192359581200,55.63258129882813,-2.4418511390686035,-0.5008602142333984,1.240978479385376
1780853192408100600,55.6811005859375,-1.4003534317016602,-2.242276191711426,-3.883608818054199
1780853192456620000,55.7296201171875,-3.5025806427001953,-7.052219390869141,0.9315853118896484
1780853192505139200,55.77813916015625,-3.168801784515381,-0.35936641693115234,3.4370248317718506
1780853192553659000,55.826658935546874,-0.4524552822113037,3.5668845176696777,-0.7867172956466675
1780853192602178000,55.87517797851562,1.899306058883667,6.189746856689453,-3.069563150405884
1780853192650697500,55.923697509765624,0.3695366382598877,5.795411109924316,-1.9413373470306396
1780853192699217000,55.972216796875,2.058274745941162,5.077731609344482,1.2416412830352783
1780853192747736300,56.020736328125,-0.6440048217773438,-5.200891494750977,2.3290553092956543
1780853192796255700,56.069255859375,3.7915608882904053,-6.086109161376953,3.860994338989258
1780853192844775200,56.11777514648438,1.6852092742919922,-1.767080307006836,0.5222609043121338
1780853192893294600,56.16629467773438,-2.656928777694702,-0.6793107986450195,-7.507925510406494
1780853192941814000,56.21481396484375,0.8814663290977478,-2.4977216720581055,-2.1850225925445557
1780853192990333400,56.26333349609375,-1.9151155948638916,-2.6111812591552734,-4.647068500518799
1780853193038852900,56.31185278320312,-0.8251420259475708,1.5433378219604492,-0.9444484114646912
1780853193087372000,56.3603720703125,2.753535509109497,4.483623504638672,1.2087146043777466
1780853193135891700,56.4088916015625,1.4405615329742432,3.8601903915405273,1.3166747093200684
1780853193184411000,56.45741088867187,-2.076101303100586,1.3666448593139648,0.6966255307197571
1780853193232930300,56.505930419921874,3.0614826679229736,1.9415392875671387,-0.15117472410202026
1780853193281449700,56.55444970703125,5.346934795379639,0.8239774703979492,-1.5787359476089478
1780853193329969200,56.60296923828125,6.288191795349121,-3.9807510375976562,-1.6001449823379517
1780853193378488600,56.651488525390626,1.7443143129348755,-2.9939537048339844,2.7571465969085693
1780853193427008000,56.70000805664063,-2.1506035327911377,1.0624847412109375,3.5847363471984863
1780853193475527400,56.74852734375,-2.7995779514312744,-3.2552013397216797,-1.7199985980987549
1780853193524046800,56.797046875,-2.4616377353668213,-6.8835649490356445,-1.0817673206329346
1780853193572566000,56.84556591796875,-2.5238969326019287,0.127349853515625,3.14022159576416
1780853193621085700,56.89408569335937,-1.4668169021606445,3.656497001647949,-0.23258045315742493
1780853193669604900,56.94260498046875,1.5591692924499512,5.427374362945557,-2.2552759647369385
1780853193718124300,56.99112426757812,0.29784131050109863,4.8172430992126465,-1.6361823081970215
1780853193766643700,57.03964379882812,2.4737706184387207,5.213207244873047,0.8567557334899902
1780853193815163100,57.0881630859375,-1.3027018308639526,-4.664573669433594,2.954745292663574
1780853193863682600,57.1366826171875,5.18408203125,-7.035694122314453,3.274174928665161
1780853193912202000,57.185201904296875,-1.2594420909881592,-4.0634565353393555,-2.4329161643981934
1780853193960721400,57.233721435546876,0.1434306502342224,1.1908273696899414,-4.607209205627441
1780853194009240800,57.28224072265625,-0.9785048961639404,-3.636686325073242,-4.576909065246582
1780853194057760300,57.33076025390625,-1.61354398727417,-0.7121000289916992,-3.202425956726074
1780853194106279700,57.37927978515625,-0.21891754865646362,3.0123672485351562,-0.04092080891132355
1780853194203318300,57.476318359375,-0.9582942128181458,2.5747432708740234,1.6149227619171143
1780853194251837700,57.52483764648437,-1.5773749351501465,1.3090324401855469,0.08236917108297348
1780853194300357000,57.57335717773437,3.1847352981567383,1.8580636978149414,-0.4826948940753937
1780853194348876500,57.62187646484375,7.1028289794921875,-0.5498275756835938,-1.3637731075286865
1780853194397395700,57.67039575195312,3.436190605163574,-4.939179420471191,-0.10197257995605469
1780853194445915400,57.718915283203124,1.8559033870697021,-0.6968669891357422,4.525853157043457
1780853194494434600,57.7674345703125,-2.627659797668457,0.16962242126464844,2.349410057067871
1780853194542954000,57.8159541015625,-2.8166515827178955,-5.140032768249512,-4.430676460266113
1780853194591473400,57.864473388671875,-3.87330961227417,-5.744389533996582,0.5300064086914062
1780853194639992600,57.91299267578125,-3.193930149078369,1.0450716018676758,3.5227513313293457
1780853194688512300,57.96151220703125,0.19082820415496826,4.645994186401367,-0.05861644446849823
1780853194737031400,58.01003149414063,1.1592849493026733,5.5898966789245605,-2.690894603729248
1780853194785550800,58.05855078125,0.5376453399658203,4.758289813995361,-1.4425969123840332
1780853194834070300,58.1070703125,1.2590487003326416,3.6706972122192383,2.5995802879333496
1780853194882589700,58.15558959960938,-0.08090054988861084,-5.218182563781738,4.041052341461182
1780853194931109000,58.20410913085937,4.5409040451049805,-6.104349136352539,2.7768707275390625
1780853194979628500,58.25262866210937,-1.6495318412780762,-4.022721290588379,-2.8705666065216064
1780853195028148000,58.30114794921875,1.2036949396133423,1.4727783203125,-3.3349268436431885
1780853195076667100,58.34966723632812,-1.8075200319290161,-4.004761695861816,-3.7628705501556396
1780853195125186600,58.3981865234375,-1.799408197402954,-1.0716447830200195,-3.218092679977417
1780853195173706000,58.4467060546875,-0.044951751828193665,2.839123249053955,-1.9612736701965332
1780853195222225400,58.495225341796875,2.7991557121276855,4.011144161224365,0.769256591796875
1780853195270744800,58.543744873046876,4.026595592498779,4.271785736083984,2.1497554779052734
1780853195319264000,58.592263916015625,-2.331637144088745,1.924168586730957,0.9891818165779114
1780853195367783400,58.640783447265626,1.0205354690551758,0.9912490844726562,-1.1586061716079712
1780853195416302800,58.689302734375,4.937900543212891,0.14945030212402344,-1.7741096019744873
1780853195464822300,58.737822265625,7.783926486968994,-1.95562744140625,0.6929467916488647
1780853195513341700,58.786341796875,1.2611966133117676,-4.140159606933594,3.390413284301758
1780853195561860900,58.83486083984375,-1.9926730394363403,0.12255287170410156,2.560839891433716
1780853195610380300,58.88338037109375,-3.0856761932373047,-2.535189628601074,-3.7633721828460693
1780853195658899700,58.93189965820312,-2.78420352935791,-7.251347541809082,-0.7239818572998047
1780853195707419100,58.98041918945312,-3.066519260406494,-0.2433156967163086,5.313144207000732
1780853195755938600,59.0289384765625,-1.1930102109909058,3.9575295448303223,0.6708654165267944
1780853195804458000,59.0774580078125,1.9141687154769897,6.083085060119629,-3.753652334213257
1780853195852977200,59.12597705078125,1.222517728805542,4.890769958496094,-2.1712095737457275
1780853195901496600,59.17449658203125,2.6429271697998047,4.630681991577148,1.3327116966247559
1780853195950016000,59.22301611328125,-1.552947759628296,-4.514467239379883,3.888444662094116
1780853195998535400,59.271535400390626,5.250340938568115,-6.298476219177246,2.6448559761047363
1780853196047054600,59.3200546875,-2.1766767501831055,-3.47963809967041,-3.1658079624176025
1780853196095574300,59.36857421875,0.4042937755584717,0.20444774627685547,-3.4872403144836426
1780853196144093400,59.41709350585938,-2.039649486541748,-5.024106979370117,-5.433884143829346
1780853196192612900,59.46561279296875,-1.1470197439193726,-0.6811418533325195,-3.283200740814209
1780853196241132300,59.51413232421875,0.09830361604690552,3.0726418495178223,-1.1814848184585571
1780853196289651500,59.5626513671875,2.8970518112182617,4.533600330352783,0.49889880418777466
1780853196338171100,59.61117114257812,-0.17711597681045532,2.886434555053711,1.3316367864608765
1780853196386690300,59.65969018554687,-1.1018613576889038,1.4148998260498047,0.8177397847175598
1780853196435209700,59.70820971679687,3.0533883571624756,2.2203526496887207,0.2325587272644043
1780853196483729200,59.756729248046874,6.2447710037231445,0.8794050216674805,-1.3440744876861572
1780853196532248300,59.80524829101562,5.339451313018799,-4.606352806091309,-0.8689996004104614
1780853196580768000,59.85376806640625,1.928704023361206,-2.2899789810180664,3.9076650142669678
1780853196629287200,59.902287109375,-3.0298912525177,-0.2061624526977539,2.576169967651367
1780853196677806600,59.950806640625,-2.7246522903442383,-4.011927604675293,-3.4356415271759033
1780853196726326000,59.999325927734375,-3.117380380630493,-5.847299575805664,0.29389986395835876
1780853196774845200,60.04784521484375,-2.8332180976867676,0.4452972412109375,3.977088451385498
1780853196823364600,60.096364501953126,-0.20788955688476562,4.278692245483398,0.33019959926605225
1780853196871884000,60.14488403320313,1.306135892868042,5.568088531494141,-2.834019184112549
1780853196920403500,60.19340356445313,0.42585158348083496,4.835370063781738,-1.971297264099121
1780853197017442000,60.29044213867188,-1.3596458435058594,-4.772434234619141,4.486046314239502
1780853197065961500,60.33896142578125,4.026679992675781,-5.537957191467285,2.80059552192688
1780853197114481000,60.38748095703125,0.42188453674316406,-3.2158432006835938,0.3000507652759552
1780853197163000000,60.436,-2.6626572608947754,-0.2370166778564453,-6.795208930969238
1780853197211519500,60.48451953125,-0.1296696662902832,-3.117672920227051,-3.4371323585510254
1780853197260039000,60.53303881835937,-1.8564516305923462,-1.7368659973144531,-4.767639636993408
1780853197308558300,60.581558349609374,0.09273606538772583,1.1985759735107422,-0.7221928238868713
1780853197357077500,60.63007739257812,3.0302586555480957,3.9337620735168457,1.226696252822876
1780853197405597000,60.678596923828124,1.363216519355774,3.6527833938598633,1.8868330717086792
1780853197454116400,60.727116455078125,-1.6943329572677612,1.1898345947265625,0.13574433326721191
1780853197502635800,60.7756357421875,3.7146358489990234,1.97200345993042,-1.088688611984253
1780853197551155200,60.8241552734375,4.350779056549072,2.319293975830078,-0.0575067400932312
1780853197599674400,60.87267431640625,7.8341522216796875,-2.0527820587158203,-0.6478732824325562
1780853197648193800,60.92119384765625,1.165032982826233,-3.442808151245117,3.018160820007324
1780853197696713200,60.96971313476563,-1.8579944372177124,0.6676034927368164,3.9194223880767822
1780853197745232400,61.018232421875,-2.7262754440307617,-5.416182518005371,-2.0275092124938965
1780853197793751800,61.06675170898438,-3.386512279510498,-7.929656028747559,-0.11072677373886108
1780853197842271200,61.11527124023438,-1.6917099952697754,1.1119499206542969,2.2166261672973633
1780853197890790400,61.16379028320313,-0.8219902515411377,3.748900890350342,-0.626435399055481
1780853197939309800,61.21230981445313,0.20280849933624268,5.320375442504883,-2.187161922454834
1780853197987829200,61.26082934570312,0.43557870388031006,5.050754070281982,-1.746199131011963
1780853198036348700,61.3093486328125,1.6922303438186646,4.615697383880615,1.439210057258606
1780853198133387300,61.40638720703125,4.963999271392822,-6.538840293884277,3.500020742416382
1780853198181906700,61.45490673828125,-3.1360721588134766,-3.6220130920410156,-3.566216468811035
1780853198230425900,61.50342578125,1.675213098526001,1.6201400756835938,-4.046698570251465
1780853198278945300,61.5519453125,-2.2719132900238037,-5.9202423095703125,-5.2465739250183105
1780853198327464700,61.600464599609374,-1.1036319732666016,-0.6928701400756836,-2.1130154132843018
1780853198375983900,61.64898388671875,0.504062294960022,2.9070205688476562,-0.257059246301651
1780853198424503300,61.69750341796875,3.581533670425415,4.965001583099365,0.8230018615722656
1780853198473022700,61.746022705078126,0.6171397566795349,3.1497693061828613,1.3986812829971313
1780853198521542100,61.79454223632813,-1.638899564743042,1.0565071105957031,0.32963430881500244
1780853198570061300,61.843061279296876,2.493044376373291,2.2234997749328613,-0.5413587093353271
1780853198618580700,61.89158081054688,6.240923881530762,1.2109861373901367,-0.7782554626464844
1780853198667100200,61.94010009765625,5.3508453369140625,-3.9261999130249023,-0.8453207015991211
1780853198764138800,62.037138671875,-3.3710827827453613,-0.46262645721435547,3.484036922454834
1780853198812658200,62.085658203125,-2.647353172302246,-3.2015914916992188,-3.106111764907837
1780853198861177600,62.13417749023437,-2.7093706130981445,-6.198561668395996,-0.016233384609222412
1780853198909696800,62.18269677734375,-2.66400146484375,0.6917963027954102,3.5784921646118164
1780853198958216200,62.23121630859375,-1.1151912212371826,3.992441177368164,-0.38618290424346924
1780853199006735600,62.27973559570312,1.4148037433624268,5.263874053955078,-3.105099678039551
1780853199055254800,62.3282548828125,0.5820144414901733,4.742614269256592,-2.034879207611084
1780853199103774200,62.37677416992187,1.7098381519317627,4.741560459136963,1.3962785005569458
1780853199152293600,62.425293701171874,-1.151209831237793,-3.760255813598633,3.415172576904297
1780853199200812800,62.47381274414062,4.752602577209473,-5.290644645690918,3.723172426223755
