time,seconds_elapsed,z,y,x
1780853137017862100,0.290862060546875,0.0031306820455938578,0.0006872228696011007,-0.0015271619195118546
1780853137066382300,0.33938232421875,0.002443459117785096,0.0035888305865228176,0.0012980876490473747
1780853137163423000,0.436423095703125,-0.000610864779446274,0.004581485874950886,0
1780853137260463600,0.533463623046875,0.0017562361899763346,0.010079269297420979,-0.004886918235570192
1780853137357504300,0.630504150390625,-0.002290742937475443,0.00946840364485979,0.003741546766832471
1780853137454545000,0.727544921875,0.000610864779446274,0.004810560029000044,-0.006490438245236874
1780853137551585500,0.82458544921875,0.0027488914784044027,0.007635809946805239,-0.020769402384757996
1780853137648626200,0.921626220703125,-0.002290742937475443,0.003970621153712273,-0.01565340906381607
1780853137745666800,1.018666748046875,0.001832594396546483,-0.012293653562664986,-0.0154243353754282
1780853137842707500,1.11570751953125,-0.005345067009329796,0.02718348242342472,0.015042545273900032
1780853137939748000,1.212748046875,-0.0102319847792387,0.0836121141910553,0.001679878099821508
1780853138036788700,1.309788818359375,0.006108647678047419,0.10453423857688904,-0.03191768378019333
1780853138133829400,1.406829345703125,0.016035201027989388,0.15775582194328308,-0.03497200831770897
1780853138230870000,1.5038701171875,0.026648975908756256,0.1605810821056366,-0.027488915249705315
1780853138327910700,1.60091064453125,0.026648975908756256,0.17608177661895752,-0.09735657274723053
1780853138424951300,1.697951416015625,-0.0015271619195118546,0.08666644245386124,-0.0651334598660469
1780853138521992000,1.794991943359375,0.012751801870763302,-0.02458730712532997,0.017104214057326317
1780853138619032600,1.892032470703125,0.013820815831422806,-0.04917461425065994,0.00923932995647192
1780853138716073200,1.9890732421875,0.0030543238390237093,-0.04474584385752678,-0.07903063297271729
1780853138813114000,2.086114013671875,-0.010690134018659592,-0.06017018109560013,0.043829549103975296
1780853138910154500,2.183154541015625,-0.01000291109085083,-0.11782054603099823,-0.013057234697043896
1780853138958674700,2.2316748046875,-0.015271619893610477,-0.08292489498853683,0.009850194677710533
1780853139007195000,2.28019482421875,-0.003970621153712273,-0.05261072888970375,0.0077121676877141
1780853139055715600,2.328715576171875,0.0032070400193333626,-0.041615162044763565,-0.02153298258781433
1780853139104236000,2.377236083984375,0.008704823441803455,-0.03741546720266342,-0.03581194952130318
1780853139152756200,2.425756103515625,0.011988221667706966,-0.016340631991624832,-0.049709122627973557
1780853139201276700,2.474276611328125,0.01030834298580885,0.0102319847792387,-0.022525638341903687
1780853139249796900,2.522796875,0.003970621153712273,0.03817904740571976,0.02283107116818428
1780853139298317300,2.5713173828125,0.005192350596189499,0.03711003437638283,0.001832594396546483
1780853139346837500,2.61983740234375,0.0029779658652842045,0.03413207083940506,-0.022220205515623093
1780853139395357700,2.668357666015625,0.005650499369949102,0.0386371985077858,-0.006872228812426329
1780853139443878100,2.716878173828125,0.005803215317428112,0.044898562133312225,0.0025198173243552446
1780853139492398300,2.7653984375,0.0038179049734026194,0.03451386094093323,-0.007101302966475487
1780853139540918800,2.813918701171875,0.0034361144062131643,0.020693045109510422,-0.030695954337716103
1780853139589439000,2.86243896484375,0.000305432389723137,0.016187917441129684,-0.01565340906381607
1780853139637959400,2.91095947265625,0.000305432389723137,0.0021380267571657896,-0.0017562361899763346
1780853139686479600,2.959479736328125,-0.0025198173243552446,-0.0206166859716177,-0.014584396965801716
1780853139734999800,3.007999755859375,-0.005574141163378954,-0.02825249545276165,0.008933897130191326
1780853139783520000,3.05652001953125,-0.003894262947142124,-0.03252854943275452,-0.004505127668380737
1780853139832040400,3.10504052734375,0.0013744457392022014,-0.02916879393160343,-0.014889828860759735
1780853139880560600,3.153560546875,-0.000610864779446274,-0.019013166427612305,0.0009926552884280682
1780853139929081000,3.2020810546875,0,-0.019700389355421066,-0.004046979360282421
1780853139977601300,3.250601318359375,-0.006414080038666725,-0.014737112447619438,-0.0030543238390237093
1780853140026121700,3.299121826171875,-0.007941242307424545,-0.0025198173243552446,0.015958841890096664
1780853140074642000,3.347641845703125,-0.007177661173045635,0.007483093533664942,0.01649334840476513
1780853140123162400,3.396162353515625,-0.006108647678047419,0.012522728182375431,0.006490438245236874
1780853140171682600,3.4446826171875,-0.006337722297757864,0.014202605932950974,0.017562363296747208
1780853140220202800,3.49320263671875,-0.003283398225903511,0.00679587060585618,0.003283398225903511
1780853140268723200,3.54172314453125,-0.005803215317428112,0.0009162971982732415,0.002290742937475443
1780853140317243400,3.590243408203125,-0.00511599238961935,-0.004734201822429895,-0.011377356946468353
1780853140365763800,3.638763916015625,-0.008781181648373604,-0.007024944759905338,0.025121813639998436
1780853140414284000,3.687283935546875,-0.004734201822429895,-0.013133592903614044,0.010766491293907166
1780853140462804500,3.735804443359375,-0.006185005884617567,-0.012293653562664986,-0.01259908638894558
1780853140511324700,3.78432470703125,-0.006566796451807022,-0.005650499369949102,0.01511890348047018
1780853140608365300,3.881365234375,-0.00755945174023509,-0.011911863461136818,0.004123337101191282
1780853140656885500,3.929885498046875,-0.003283398225903511,-0.010842849500477314,-0.007254019379615784
1780853140705405700,3.97840576171875,-0.008170315995812416,0.00923932995647192,-0.0038179049734026194
1780853140753926100,4.026926025390625,-0.0054977829568088055,0.02328922040760517,0.01649334840476513
1780853140802446300,4.0754462890625,-0.012904518283903599,0.035124726593494415,0.03306305781006813
1780853140850966800,4.123966796875,-0.00923932995647192,0.027947064489126205,0.017104214057326317
1780853140899487000,4.172487060546875,-0.012522728182375431,0.02695440873503685,0.008170315995812416
1780853140948007400,4.22100732421875,-0.009162971749901772,0.019853105768561363,0.026038112118840218
1780853140996527600,4.269527587890625,-0.004352411720901728,0.013133592903614044,0.009010255336761475
1780853141045047800,4.3180478515625,-0.0010690133785828948,0.0102319847792387,-0.017944153398275375
1780853141093568000,4.366568115234375,-0.000305432389723137,0.004581485874950886,-0.008933897130191326
1780853141190608600,4.463608642578125,0.000610864779446274,-0.010461059398949146,-0.011530072428286076
1780853141239128800,4.51212890625,0.0021380267571657896,-0.01802051067352295,-0.0023671009112149477
1780853141287649300,4.560649169921875,0.004581485874950886,-0.02390008419752121,-0.00603228947147727
1780853141336169500,4.60916943359375,0.0066431546583771706,-0.02802342176437378,-0.017027854919433594
1780853141384690000,4.65768994140625,0.008323032408952713,-0.027336198836565018,-0.021914774551987648
1780853141433210000,4.706210205078125,0.008093958720564842,-0.024281874299049377,-0.02176205813884735
1780853141481730300,4.754730224609375,0.009315688163042068,-0.020693045109510422,-0.023441936820745468
1780853141530250500,4.80325048828125,0.008323032408952713,-0.021227551624178886,-0.030695954337716103
1780853141578771000,4.85177099609375,0.00603228947147727,-0.018631376326084137,-0.02130390889942646
1780853141627291100,4.900291015625,-0.00007635809743078426,-0.020082179456949234,0.0025198173243552446
1780853141675811600,4.9488115234375,-0.0031306820455938578,-0.02153298258781433,0.0022143847309052944
1780853141724331800,4.997331787109375,-0.005955931730568409,-0.020082179456949234,-0.002061668550595641
1780853141772852000,5.04585205078125,-0.0009162971982732415,-0.014584396965801716,-0.001450803829357028
1780853141821372200,5.0943720703125,-0.0012980876490473747,-0.01107192412018776,-0.03298669680953026
1780853141869892400,5.142892333984375,0.00038179047987796366,-0.017027854919433594,0.003894262947142124
1780853141918412800,5.191412841796875,-0.005955931730568409,-0.018784092739224434,0.006185005884617567
1780853141966933000,5.23993310546875,-0.005803215317428112,-0.021914774551987648,-0.000839939049910754
1780853142015453200,5.288453125,-0.005803215317428112,-0.013286309316754341,0.0102319847792387
1780853142063973400,5.336973388671875,-0.000839939049910754,-0.00603228947147727,-0.000610864779446274
1780853142112493800,5.385493896484375,-0.0015271619195118546,-0.0019853105768561363,-0.00755945174023509
1780853142161014000,5.434013916015625,-0.0027488914784044027,0.001679878099821508,-0.0058795735239982605
1780853142209534500,5.482534423828125,-0.0012980876490473747,0.0029779658652842045,-0.002443459117785096
1780853142258054700,5.5310546875,-0.003665188793092966,0.005650499369949102,0.0019089524867013097
1780853142306574800,5.579574951171875,-0.001450803829357028,0.004581485874950886,0.003741546766832471
1780853142355095000,5.628094970703125,-0.0012980876490473747,0.002290742937475443,-0.005650499369949102
1780853142403615500,5.676615478515625,-0.0015271619195118546,0.002901607658714056,-0.004046979360282421
1780853142452135700,5.7251357421875,-0.000610864779446274,0.003512472379952669,0.003283398225903511
1780853142500655900,5.77365576171875,-0.0010690133785828948,-0.0023671009112149477,-0.0035888305865228176
1780853142549176000,5.822176025390625,-0.001832594396546483,-0.006185005884617567,-0.0013744457392022014
1780853142597696300,5.8706962890625,0,-0.007788525894284248,-0.023747367784380913
1780853142646216700,5.919216796875,-0.0015271619195118546,-0.010079269297420979,0.002901607658714056
1780853142694737000,5.96773681640625,-0.004734201822429895,-0.017867794260382652,-0.004428769461810589
1780853142743257000,6.016257080078125,-0.007635809946805239,-0.017027854919433594,-0.0013744457392022014
1780853142791777300,6.06477734375,-0.003741546766832471,-0.022907428443431854,0.0030543238390237093
1780853142840297700,6.113297607421875,0.0007635809597559273,-0.020082179456949234,-0.02130390889942646
1780853142888818000,6.16181787109375,0.0023671009112149477,-0.014966187067329884,-0.023365577682852745
1780853142937338000,6.210338134765625,0.004581485874950886,-0.009697478264570236,-0.014431680552661419
1780853142985858300,6.2588583984375,0.0023671009112149477,-0.0010690133785828948,-0.0066431546583771706
1780853143034378800,6.307378662109375,-0.003894262947142124,0.007635809946805239,0.0025198173243552446
1780853143082899000,6.35589892578125,0.0009926552884280682,0.005421424750238657,-0.01183550525456667
1780853143131419100,6.404419189453125,0.0017562361899763346,0.007788525894284248,-0.019471315667033195
1780853143179939300,6.452939208984375,0.0007635809597559273,0.00946840364485979,-0.004276053514331579
1780853143228459500,6.50145947265625,0.0015271619195118546,0.008246674202382565,-0.01030834298580885
1780853143276980000,6.54997998046875,-0.00007635809743078426,0.004963276442140341,-0.006337722297757864
1780853143325500200,6.598500244140625,0.0021380267571657896,0.004581485874950886,-0.01030834298580885
1780853143374020400,6.647020263671875,0.008323032408952713,-0.0009162971982732415,-0.03260490670800209
1780853143422540500,6.69554052734375,0.0062613640911877155,0.0007635809597559273,-0.01824958436191082
1780853143471060700,6.744060791015625,0.00603228947147727,-0.001679878099821508,-0.0058795735239982605
1780853143519581000,6.792580810546875,0.004657844081521034,-0.011453714221715927,-0.028328854590654373
1780853143568101400,6.841101318359375,0.0038179049734026194,-0.008246674202382565,-0.00954476185142994
1780853143616621600,6.88962158203125,0.0009926552884280682,-0.003512472379952669,-0.0019853105768561363
1780853143665141800,6.938141845703125,0.005650499369949102,-0.005039634648710489,-0.02130390889942646
1780853143713662000,6.986661865234375,0.0030543238390237093,-0.0010690133785828948,-0.013820815831422806
1780853143762182400,7.035182373046875,0.0007635809597559273,0.0001527161948615685,-0.006719512399286032
1780853143810702300,7.083702392578125,0.0016035200096666813,0.00045814859913662076,-0.007864884100854397
1780853143859222800,7.132222900390625,-0.0006872228696011007,0.0025961752980947495,-0.0054977829568088055
1780853143907743000,7.180742919921875,0,0.002901607658714056,-0.007254019379615784
1780853143956263200,7.22926318359375,0.0007635809597559273,0.0017562361899763346,-0.011148282326757908
1780853144004783400,7.277783447265625,0.0009162971982732415,0.0062613640911877155,-0.008552107028663158
1780853144053303600,7.326303466796875,0.0013744457392022014,0.004352411720901728,-0.010919207707047462
1780853144101823700,7.37482373046875,0.0001527161948615685,0.0029779658652842045,-0.010155626572668552
1780853144150344000,7.423343994140625,0.00038179047987796366,0.0027488914784044027,-0.007330377586185932
1780853144198864400,7.471864501953125,0.001832594396546483,0.003359756199643016,-0.03138317912817001
1780853144247384600,7.520384521484375,0.0011453714687377214,0.00007635809743078426,-0.000610864779446274
1780853144295904800,7.56890478515625,-0.0019089524867013097,-0.001679878099821508,0.0006872228696011007
1780853144344425000,7.617425048828125,-0.001679878099821508,-0.007177661173045635,-0.012446369975805283
1780853144392945200,7.665945068359375,-0.0012980876490473747,-0.004428769461810589,0.006566796451807022
1780853144441465300,7.71446533203125,0.0032070400193333626,-0.008093958720564842,-0.017027854919433594
1780853144489985800,7.76298583984375,0.0022143847309052944,-0.007483093533664942,-0.02153298258781433
1780853144538505700,7.811505615234375,-0.000305432389723137,-0.0015271619195118546,-0.004428769461810589
1780853144587026000,7.86002587890625,-0.001221729558892548,0.000305432389723137,-0.004046979360282421
1780853144635546400,7.90854638671875,-0.0012980876490473747,0.0029779658652842045,-0.009086613543331623
1780853144684066600,7.957066650390625,-0.00045814859913662076,0.004352411720901728,-0.005650499369949102
1780853144732586800,8.005586669921875,-0.00007635809743078426,0.004963276442140341,-0.011606430634856224
1780853144781107000,8.05410693359375,0.000610864779446274,0.004734201822429895,-0.010995565913617611
1780853144829627100,8.102627197265624,-0.00045814859913662076,0.0029779658652842045,-0.01000291109085083
1780853144878147300,8.151147216796875,0.000610864779446274,-0.0007635809597559273,-0.012370011769235134
1780853144926667500,8.19966748046875,-0.000610864779446274,0.0005345066892914474,-0.009926552884280682
1780853144975187700,8.248187744140624,0.0017562361899763346,-0.0032070400193333626,-0.006948587018996477
1780853145023708000,8.2967080078125,0.001221729558892548,-0.005803215317428112,-0.01183550525456667
1780853145072228000,8.34522802734375,0.0029779658652842045,-0.004963276442140341,-0.030466880649328232
1780853145120748500,8.39374853515625,0.0021380267571657896,-0.00679587060585618,-0.0038179049734026194
1780853145169268500,8.4422685546875,-0.00045814859913662076,-0.007406735327094793,-0.001832594396546483
1780853145217789000,8.490788818359375,-0.000305432389723137,-0.011530072428286076,-0.016416991129517555
1780853145266308900,8.539308837890625,-0.0021380267571657896,-0.0021380267571657896,0.0019089524867013097
1780853145314829000,8.5878291015625,0.0016035200096666813,-0.0015271619195118546,-0.014889828860759735
1780853145363349500,8.636349609375,0.000610864779446274,-0.00007635809743078426,-0.020082179456949234
1780853145411869700,8.68486962890625,-0.0009162971982732415,0.003741546766832471,-0.004276053514331579
1780853145508910000,8.78191015625,-0.001221729558892548,0.005955931730568409,-0.010995565913617611
1780853145557430300,8.83043017578125,0.0007635809597559273,0.004581485874950886,-0.00755945174023509
1780853145654470700,8.927470703125,0.0001527161948615685,-0.0025198173243552446,-0.014278964139521122
1780853145702990800,8.975990966796875,-0.001832594396546483,-0.004810560029000044,-0.010995565913617611
1780853145751511000,9.024510986328124,-0.0025198173243552446,-0.008017600513994694,0.0054977829568088055
1780853145800031200,9.07303125,0.0016035200096666813,-0.014202605932950974,-0.007483093533664942
1780853145848551400,9.121551513671875,-0.0019089524867013097,-0.012522728182375431,-0.01282816007733345
1780853145897071600,9.170071533203124,0.0029779658652842045,-0.018784092739224434,-0.008170315995812416
1780853145945591800,9.218591796875,0.0011453714687377214,-0.018860450014472008,-0.012217295356094837
1780853145994112000,9.267112060546875,0.000610864779446274,-0.016340631991624832,-0.03504836559295654
1780853146091152400,9.36415234375,-0.004123337101191282,-0.008857538923621178,0.003512472379952669
1780853146139672600,9.412672607421875,-0.0021380267571657896,-0.011530072428286076,-0.006872228812426329
1780853146188192800,9.46119287109375,-0.0030543238390237093,-0.010690134018659592,0.0034361144062131643
1780853146236713000,9.509712890625,0.0007635809597559273,-0.0154243353754282,-0.017867794260382652
1780853146285233200,9.558233154296875,-0.0027488914784044027,-0.012980876490473747,-0.009315688163042068
1780853146333753300,9.60675341796875,-0.001832594396546483,-0.007635809946805239,-0.0023671009112149477
1780853146382273500,9.6552734375,-0.0015271619195118546,-0.003359756199643016,-0.008781181648373604
1780853146430793500,9.70379345703125,-0.00022907429956831038,-0.0006872228696011007,-0.008093958720564842
1780853146479314000,9.75231396484375,-0.0012980876490473747,0.0031306820455938578,-0.004199695307761431
1780853146527833900,9.800833740234374,0,0.001679878099821508,-0.007864884100854397
1780853146576354000,9.84935400390625,-0.000610864779446274,0.0013744457392022014,-0.0077121676877141
1780853146624874200,9.897874267578125,-0.000305432389723137,0.0025198173243552446,-0.004657844081521034
1780853146673394400,9.94639453125,0.0001527161948615685,0.0011453714687377214,-0.01000291109085083
1780853146721914600,9.99491455078125,0.000610864779446274,0.003359756199643016,-0.009697478264570236
1780853146770434800,10.043434814453125,0.0001527161948615685,0.0017562361899763346,-0.004199695307761431
1780853146818955000,10.091955078125,-0.00007635809743078426,0.0013744457392022014,-0.006337722297757864
1780853146867475200,10.14047509765625,0.0025961752980947495,-0.0017562361899763346,-0.025274530053138733
1780853146915995400,10.188995361328125,0.000610864779446274,0.0010690133785828948,-0.0077121676877141
1780853147013035800,10.286035888671876,-0.0009162971982732415,-0.009850194677710533,-0.013439024798572063
1780853147061555700,10.3345556640625,-0.002061668550595641,-0.0035888305865228176,0.00679587060585618
1780853147110076200,10.383076171875,0.0011453714687377214,-0.0015271619195118546,-0.005039634648710489
1780853147158596000,10.43159619140625,0.000610864779446274,-0.000305432389723137,-0.022983787581324577
1780853147207116300,10.4801162109375,-0.000305432389723137,0.005421424750238657,-0.009315688163042068
1780853147255636500,10.528636474609375,-0.002901607658714056,0.009850194677710533,-0.001221729558892548
1780853147304156700,10.57715673828125,-0.003283398225903511,0.011682788841426373,-0.011148282326757908
1780853147401197000,10.674197021484375,-0.000839939049910754,-0.0023671009112149477,-0.008170315995812416
1780853147449717000,10.722717041015626,-0.005192350596189499,-0.039018988609313965,0.005268708802759647
1780853147498237200,10.7712373046875,-0.0009162971982732415,-0.09056070446968079,0.004505127668380737
1780853147546757400,10.81975732421875,-0.0019089524867013097,-0.11316270381212234,-0.022525638341903687
1780853147595277600,10.868277587890624,-0.004276053514331579,-0.1037706509232521,-0.02153298258781433
1780853147643797800,10.9167978515625,-0.00946840364485979,-0.07712167501449585,0.006948587018996477
1780853147692317700,10.965317626953125,-0.010995565913617611,-0.06643154472112656,0.030390523374080658
1780853147740838100,11.013838134765624,-0.01206457894295454,-0.05673406645655632,0.011377356946468353
1780853147789358000,11.062358154296875,-0.000610864779446274,-0.03817904740571976,-0.03565923124551773
1780853147837878300,11.110878173828125,0.00038179047987796366,-0.004352411720901728,-0.014660755172371864
1780853147886398500,11.1593984375,0.0007635809597559273,0.020693045109510422,-0.0054977829568088055
1780853147934918700,11.207918701171875,-0.000610864779446274,0.02756527252495289,-0.01565340906381607
1780853147983438800,11.25643896484375,-0.007941242307424545,0.035964664071798325,0.012904518283903599
1780853148031959000,11.304958984375,-0.010995565913617611,0.04283689334988594,0.010842849500477314
1780853148080479000,11.35347900390625,-0.029397867619991302,0.07040216773748398,0.02367101050913334
1780853148128999200,11.401999267578125,-0.027107125148177147,0.08093958348035812,0.030543239787220955
1780853148177519400,11.450519287109374,-0.0206166859716177,0.061391908675432205,0.034895651042461395
1780853148226039600,11.49903955078125,-0.006414080038666725,0.01908952370285988,-0.011530072428286076
1780853148274559700,11.547559814453125,-0.007406735327094793,-0.02496909722685814,-0.040546149015426636
1780853148323079700,11.59607958984375,-0.003359756199643016,-0.06795870512723923,-0.017333287745714188
1780853148371600000,11.644599853515626,0.002443459117785096,-0.10682497918605804,-0.03909534588456154
1780853148420120000,11.6931201171875,-0.01282816007733345,-0.0772743970155716,0.0057268571108579636
1780853148468640300,11.74164013671875,-0.002290742937475443,-0.08903354406356812,0.003665188793092966
1780853148517160200,11.79016015625,-0.006108647678047419,-0.08559742569923401,-0.011606430634856224
1780853148565680400,11.838680419921875,-0.006337722297757864,-0.07200568914413452,-0.009392046369612217
1780853148614200600,11.88720068359375,-0.001450803829357028,-0.06368265300989151,-0.02825249545276165
1780853148662720800,11.935720703125,0.004657844081521034,-0.051618073135614395,-0.03993528336286545
1780853148711240700,11.98424072265625,-0.004886918235570192,-0.025732679292559624,-0.008552107028663158
1780853148759761000,12.032760986328125,-0.002290742937475443,-0.022296564653515816,-0.004505127668380737
1780853148808281000,12.081281005859376,-0.008170315995812416,-0.021914774551987648,-0.006490438245236874
1780853148856801000,12.129801025390625,-0.014508038759231567,-0.040775224566459656,0.007101302966475487
1780853148905321200,12.1783212890625,-0.007177661173045635,-0.04566214233636856,-0.007483093533664942
1780853148953841400,12.22684130859375,0.007024944759905338,-0.004199695307761431,-0.005421424750238657
1780853149002361600,12.275361572265625,0.029856016859412193,0.03527744114398956,-0.06597339361906052
1780853149050881500,12.323881591796875,0.04581485688686371,0.08949168771505356,-0.09934188425540924
1780853149099401700,12.372401611328126,0.05841394513845444,0.16584978997707367,-0.04657844081521034
1780853149147922000,12.420921875,0.07368556410074234,0.20204351842403412,-0.09124792367219925
1780853149196442000,12.469442138671875,0.06818778067827225,0.24976733326911926,-0.09995274990797043
1780853149244962000,12.517962158203124,0.05039634555578232,0.3052796721458435,-0.033368486911058426
1780853149293482200,12.566482177734375,0.056810423731803894,0.2583194375038147,-0.08025235682725906
1780853149342002400,12.61500244140625,0.05917752534151077,0.19005531072616577,-0.05719221383333206
1780853149390522600,12.663522705078124,0.030543239787220955,0.11110103130340576,-0.08979712426662445
1780853149439042600,12.71204248046875,0.029474224895238876,0.0322994738817215,-0.02932151034474373
1780853149487562500,12.7605625,0.02496909722685814,-0.06673697382211685,-0.08429934084415436
1780853149536083000,12.8090830078125,0.008857538923621178,-0.13225223124027252,-0.07414371520280838
1780853149584603000,12.857602783203125,-0.002061668550595641,-0.16623157262802124,-0.02176205813884735
1780853149633123000,12.906123046875,-0.0057268571108579636,-0.14813470840454102,0.0025198173243552446
1780853149681643000,12.95464306640625,-0.019853105768561363,-0.11026109009981155,-0.02153298258781433
1780853149730163200,13.0031630859375,-0.02932151034474373,-0.08720094710588455,-0.0062613640911877155
1780853149778683400,13.051683349609375,-0.03138317912817001,-0.08414662629365921,0.05253437161445618
1780853149827203600,13.10020361328125,-0.02367101050913334,-0.10315979272127151,0.04864010959863663
1780853149875723500,13.1487236328125,-0.008552107028663158,-0.09277509152889252,0.004963276442140341
1780853149924243700,13.19724365234375,0.0022143847309052944,-0.044669486582279205,-0.020082179456949234
1780853149972763600,13.245763671875,0.015195261687040329,0.009850194677710533,-0.036804601550102234
1780853150021283600,13.29428369140625,0.019471315667033195,0.04550942778587341,-0.035964664071798325
1780853150069804000,13.342803955078125,0.033597562462091446,0.1196531355381012,-0.043753188103437424
1780853150118324000,13.391323974609374,0.021991131827235222,0.16936226189136505,-0.030925029888749123
1780853150166844200,13.43984423828125,0.017104214057326317,0.1986074149608612,0.015729768201708794
1780853150215364000,13.488364013671875,-0.014126247726380825,0.21616977453231812,0.06704241037368774
1780853150263884300,13.53688427734375,-0.030161447823047638,0.20349432528018951,0.028787001967430115
1780853150312404200,13.585404296875,-0.12812888622283936,0.1334739476442337,-0.1156061589717865
1780853150360924400,13.63392431640625,-0.1865428388118744,0.09277509152889252,-0.28527384996414185
1780853150409444600,13.682444580078124,-0.11102467030286789,0.23655737936496735,-0.3436878025531769
1780853150457964800,13.73096484375,0.013439024798572063,0.40714138746261597,0.002443459117785096
1780853150506484700,13.779484619140625,0.2141844630241394,0.26824599504470825,0.4738783538341522
1780853150555004700,13.828004638671874,0.22693626582622528,0.2802342176437378,0.22014039754867554
1780853150603524900,13.87652490234375,0.11667517572641373,0.29856017231941223,-0.13454297184944153
1780853150652044800,13.925044921875,0.07124210149049759,0.21029019355773926,-0.13217586278915405
1780853150700565000,13.97356494140625,0.05436696484684944,0.19822561740875244,-0.1026252806186676
1780853150749085000,14.0220849609375,0.021151192486286163,0.2231183648109436,-0.033368486911058426
1780853150797605000,14.070605224609375,-0.05894844979047775,0.3361283540725708,-0.11201732605695724
1780853150846125300,14.119125244140625,-0.041386090219020844,0.5455785989761353,-0.0884990319609642
1780853150894645500,14.1676455078125,-0.009773836471140385,0.6207149624824524,0.114460788667202
1780853150943165400,14.21616552734375,-0.08093958348035812,0.7948114275932312,-0.03802633285522461
1780853150991685600,14.264685546875,-0.05887209251523018,0.9703587293624878,-0.6245328783988953
1780853151040205600,14.31320556640625,0.5523744821548462,-0.33001968264579773,-0.10995566099882126
1780853151088725500,14.3617255859375,0.1372154951095581,-0.5841394662857056,0.36858054995536804
1780853151137245700,14.41024560546875,-0.5030471682548523,-0.2507599890232086,0.13706278800964355
1780853151185765600,14.458765625,0.12331832945346832,-0.9918916821479797,0.6562978625297546
1780853151234285800,14.507285888671875,0.26626068353652954,-0.7482330203056335,0.8662062287330627
1780853151282805800,14.5558056640625,0.039248060435056686,-0.7473930716514587,0.9546289443969727
1780853151331326000,14.604325927734376,-0.42157304286956787,-0.4898371994495392,0.22869250178337097
1780853151379846000,14.652845947265625,-0.6178133487701416,-0.5830704569816589,-0.11743875592947006
1780853151428366000,14.701365966796875,-0.2755763828754425,-0.6695841550827026,0.47525280714035034
1780853151476886000,14.749885986328126,0.004810560029000044,-0.353767067193985,0.39744389057159424
1780853151525406200,14.79840625,0.18241949379444122,-0.16966769099235535,-0.004046979360282421
1780853151573926100,14.846926025390625,0.07857248187065125,-0.13423752784729004,-0.4366919696331024
1780853151622446000,14.895446044921876,0.3098611533641815,-0.6347648501396179,0.3029889166355133
1780853151670966300,14.94396630859375,0.15813761949539185,-1.1526254415512085,0.18577924370765686
1780853151719486200,14.992486328125,-0.4257727563381195,-0.9648609161376953,-0.6990583539009094
1780853151768006400,15.04100634765625,-0.7644209265708923,-0.01435532234609127,-0.5768854022026062
1780853151816526300,15.0895263671875,0.05474875494837761,-0.2693150043487549,0.07521272450685501
1780853151865046500,15.138046630859375,-0.1776089370250702,0.017867794260382652,0.14782927930355072
1780853151913566500,15.18656640625,-0.28244858980178833,0.8204677700996399,-0.4416552484035492
1780853151962086700,15.235086669921875,0.16592614352703094,0.9466876983642578,-0.5503891706466675
1780853152010606600,15.283606689453125,0.2672533392906189,1.446069598197937,1.1790454387664795
1780853152059126800,15.332126708984376,0.4053087830543518,-0.27168211340904236,1.1481966972351074
1780853152107646700,15.380646728515625,0.029703300446271896,0.22533275187015533,-0.744796872138977
1780853152156166700,15.429166748046875,-0.22075125575065613,0.3914879560470581,-1.2439497709274292
1780853152204686800,15.477686767578126,-0.9465349912643433,1.1939351558685303,-1.3164136409759521
1780853152253206800,15.526206787109375,0.13591741025447845,1.0122792720794678,0.6355284452438354
1780853152301727000,15.57472705078125,0.934012234210968,0.17707443237304688,0.19005531072616577
1780853152350247000,15.623246826171876,0.5191587209701538,-0.17577634751796722,0.389120876789093
1780853152398767000,15.67176708984375,0.09468404203653336,0.0005345066892914474,1.1771364212036133
1780853152447287000,15.720287109375,0.6692023873329163,-1.2387573719024658,1.0836740732192993
1780853152495807200,15.76880712890625,0.26137375831604004,-0.9363793730735779,0.48075059056282043
1780853152544327200,15.8173271484375,-0.5992583632469177,-0.49716755747795105,0.006337722297757864
1780853152592847400,15.865847412109375,-0.658741295337677,-0.2594648003578186,-0.524503767490387
1780853152641367300,15.9143671875,0.2328922003507614,-0.3318522870540619,-0.3220784664154053
1780853152689887200,15.96288720703125,0.8399390578269958,-0.3000873327255249,-0.19364413619041443
1780853152738407400,16.011407470703126,0.6096430420875549,-0.22953243553638458,0.24411684274673462
1780853152786927400,16.05992724609375,-0.15317434072494507,-0.8416953086853027,-0.08857539296150208
1780853152835447300,16.108447265625,-0.4708240330219269,-1.5667154788970947,-1.4444661140441895
1780853152883967200,16.15696728515625,-0.7849612236022949,-0.622394859790802,0.11033745110034943
1780853152932487400,16.2054873046875,-0.3370446562767029,-0.04940368980169296,0.0859028622508049
1780853152981007400,16.25400732421875,-0.5569559335708618,0.5597048401832581,-0.08666644245386124
1780853153029527600,16.302527587890626,-0.08949168771505356,1.178816318511963,-0.0009926552884280682
1780853153078047500,16.351047607421876,0.11438442766666412,2.6577963829040527,0.8831577301025391
1780853153126567700,16.399567626953125,0.13561198115348816,1.1582759618759155,1.3799434900283813
1780853153175087600,16.448087646484375,0.25938844680786133,0.5338194370269775,-0.13553562760353088
1780853153223607600,16.496607666015624,-0.061162836849689484,0.40607234835624695,-1.750356674194336
1780853153272127500,16.54512744140625,-0.8652135729789734,0.8721621632575989,-1.5654174089431763
1780853153320647400,16.5936474609375,-0.3087157905101776,0.8581886291503906,-0.31146466732025146
1780853153369167600,16.642167724609376,0.99257892370224,-0.393244206905365,0.26167920231819153
1780853153417687600,16.6906875,0.35384342074394226,-0.05818486958742142,0.2225838601589203
1780853153466207700,16.739207763671875,0.29680392146110535,-0.22243113815784454,1.1411718130111694
1780853153514727700,16.787727783203124,0.44753479957580566,-1.4690533876419067,0.7914516925811768
1780853153563247600,16.83624755859375,0.6381246447563171,-1.6639193296432495,0.7831286191940308
1780853153611767600,16.884767578125,-0.5522217750549316,-0.4592176079750061,0.2075413018465042
1780853153660287500,16.93328759765625,-0.6644681692123413,-0.41790786385536194,-0.6708822250366211
1780853153708807700,16.9818076171875,0.20883940160274506,-0.734183132648468,-0.5280162692070007
1780853153757327600,17.03032763671875,0.9007201194763184,-0.5189296007156372,-0.6029235124588013
1780853153805847800,17.078847900390624,0.5723039507865906,-0.17707443237304688,0.502359926700592
1780853153854367700,17.12736767578125,-0.006719512399286032,-0.5887972712516785,0.18455752730369568
1780853153902887700,17.1758876953125,-0.4166097939014435,-1.4828742742538452,-1.1935534477233887
1780853153951407600,17.22440771484375,-1.081536054611206,-0.1326340138912201,0.6553052067756653
1780853153999927800,17.272927734375,-0.46204283833503723,-0.43867728114128113,-0.44348782300949097
1780853154048447700,17.32144775390625,-0.3119991719722748,0.04650207981467247,-0.6498837471008301
1780853154096967700,17.3699677734375,0.26542073488235474,1.6773582696914673,-0.0781143307685852
1780853154145487600,17.418487548828125,0.42852163314819336,1.8781037330627441,1.589851975440979
1780853154194007600,17.467007568359374,0.2721402645111084,0.40553784370422363,1.033964991569519
1780853154242527700,17.51552783203125,-0.05345066636800766,0.3601047992706299,-1.1172716617584229
1780853154291047700,17.564047607421877,-0.38591381907463074,0.4953349828720093,-1.881998062133789
1780853154339567600,17.612567626953126,-0.6310232877731323,0.7681624889373779,-0.9091958403587341
1780853154388087600,17.661087646484376,0.30314165353775024,0.6346121430397034,0.5534434914588928
1780853154436607700,17.709607666015625,0.3237583339214325,0.9928079843521118,-0.7312051653862
1780853154485127700,17.758127685546874,0.47380200028419495,0.15668681263923645,0.2559523284435272
1780853154533647600,17.806647705078124,0.6794343590736389,-0.057268574833869934,1.9947025775909424
1780853154582167600,17.85516748046875,0.1807396113872528,-0.6962331533432007,0.7832050323486328
1780853154630687500,17.9036875,0.3764454126358032,-1.3535236120224,0.7645736336708069
1780853154679207700,17.952207763671876,-0.7173843383789062,-0.38698282837867737,-0.2790888547897339
1780853154727727600,18.0007275390625,-0.6353757381439209,-0.4517345130443573,-0.571540355682373
1780853154776247600,18.04924755859375,0.39622217416763306,-1.1185697317123413,-0.32414013147354126
1780853154824767500,18.097767578125,1.1499528884887695,-0.9823469519615173,-0.3481929302215576
1780853154873287700,18.14628759765625,0.43165233731269836,-0.1597411334514618,0.2654971182346344
1780853154921807600,18.1948076171875,-0.300392746925354,-1.1829396486282349,-0.591088056564331
1780853154970327600,18.24332763671875,-0.7074577808380127,-1.3095413446426392,-0.7183006405830383
1780853155018847500,18.291847412109377,-0.86544269323349,-0.362930029630661,0.6097193956375122
1780853155067367700,18.34036767578125,-0.6996692419052124,-0.41034841537475586,-0.6254491806030273
1780853155115887400,18.388887451171875,-0.4570032060146332,1.0892482995986938,-0.6285035014152527
1780853155164407300,18.4374072265625,0.34727662801742554,2.4010040760040283,0.08819360285997391
1780853155212927500,18.485927490234374,0.40553784370422363,2.023489475250244,1.6588796377182007
1780853155261447400,18.534447509765624,0.42302384972572327,0.3975202441215515,0.7405971884727478
1780853155309967400,18.58296728515625,0.0821613147854805,0.5364156365394592,-1.3377938270568848
1780853155358487300,18.6314873046875,-0.34193155169487,0.43692103028297424,-1.692095398902893
1780853155407007200,18.68000732421875,-1.0036507844924927,1.180648922920227,-1.0653481483459473
1780853155455527200,18.728527099609376,0.8911753296852112,-0.05673406645655632,0.3836994469165802
1780853155504047400,18.77704736328125,0.7716749310493469,-0.05757400393486023,-0.03252854943275452
1780853155552567000,18.825567138671875,0.31780239939689636,-0.33483025431632996,1.1508692502975464
1780853155601087000,18.8740869140625,-0.20677772164344788,0.03634645417332649,1.060308575630188
1780853155649607200,18.922607177734374,0.7295252680778503,-2.2988369464874268,0.6245328783988953
1780853155698127000,18.971127197265623,-0.3170388340950012,-0.6447677612304688,0.5294670462608337
1780853155746647000,19.01964697265625,-0.6093376278877258,-0.5019781589508057,-0.6328558921813965
1780853155795167000,19.0681669921875,0.033979352563619614,-0.9830341339111328,-0.4685332775115967
1780853155843687000,19.11668701171875,0.8634573817253113,-0.901178240776062,-0.3214675784111023
1780853155892206800,19.165206787109376,0.9303470849990845,-0.32849252223968506,0.8875865340232849
1780853155940727000,19.21372705078125,0.2159406989812851,-0.7606793642044067,-0.06979130208492279
1780853155989246700,19.262246826171875,-0.47555822134017944,-1.814573884010315,-1.6000075340270996
1780853156037766700,19.3107666015625,-1.4628684520721436,-0.24526220560073853,0.19425499439239502
1780853156086286800,19.359286865234374,-0.7074577808380127,-0.050778135657310486,-0.18791727721691132
1780853156134806800,19.407806884765623,-0.21181736886501312,0.38438665866851807,-0.4563159942626953
1780853156183326700,19.45632666015625,0.32879796624183655,1.4072797298431396,-0.7854957580566406
1780853156231846700,19.5048466796875,0.26710063219070435,3.748342752456665,0.7011200785636902
1780853156280366600,19.55336669921875,0.20761767029762268,1.2838850021362305,1.820453405380249
1780853156328886500,19.601886474609376,0.18692462146282196,0.37232208251953125,0.0862082913517952
1780853156377406500,19.650406494140626,-0.37636905908584595,0.30657777190208435,-1.831372618675232
1780853156425926400,19.698926513671875,-0.6948586702346802,0.3491092324256897,-1.3568834066390991
1780853156474446300,19.7474462890625,-0.8051197528839111,1.127732753753662,-0.5951350331306458
1780853156522966300,19.79596630859375,0.9404263496398926,0.06933315098285675,0.23678645491600037
1780853156571486200,19.844486328125,0.521831214427948,0.4543306827545166,-0.7830522656440735
1780853156620006100,19.893006103515624,0.9537126421928406,-1.1389573812484741,1.415373682975769
1780853156668526000,19.941526123046874,0.5258781909942627,-0.3283398151397705,2.4594180583953857
1780853156717046300,19.99004638671875,0.2669478952884674,-2.116722822189331,-0.38965538144111633
1780853156765566200,20.038566162109376,-0.15699224174022675,-1.3908627033233643,0.08529199659824371
1780853156814086100,20.087086181640625,-0.7622065544128418,-0.6879100799560547,-0.14088068902492523
1780853156862605800,20.135605712890627,-0.011911863461136818,-1.2915208339691162,-0.23251040279865265
1780853156911126000,20.1841259765625,0.6568323373794556,-1.2159262895584106,-0.391182541847229
1780853156959645700,20.232645751953125,1.0111339092254639,-0.4425715208053589,0.2136499583721161
1780853157008165600,20.28116552734375,0.20738859474658966,-0.1262962967157364,-0.28000515699386597
1780853157056685800,20.329685791015624,-0.30749404430389404,-1.2833505868911743,-0.5820778012275696
1780853157105205800,20.378205810546874,-1.5742748975753784,-0.45623964071273804,0.24442227184772491
1780853157153725700,20.4267255859375,-0.7422770857810974,-0.08689551800489426,-0.36163195967674255
1780853157202245600,20.47524560546875,-0.1081230640411377,-0.09728021919727325,-0.2565632164478302
1780853157250765600,20.523765625,0.24556763470172882,1.1748456954956055,-0.7494547367095947
1780853157299285200,20.57228515625,0.30802857875823975,2.273104190826416,-0.37140578031539917
1780853157347805400,20.620805419921876,0.1997527778148651,1.7553199529647827,1.7841832637786865
1780853157396325000,20.6693251953125,0.22327107191085815,0.2124282270669937,0.8733839392662048
1780853157444845000,20.717844970703126,-0.049480047076940536,0.3069595396518707,-1.3013710975646973
1780853157493365000,20.766364990234376,-0.4557051360607147,0.29306238889694214,-1.616500973701477
1780853157541885000,20.814885009765625,-0.7996219992637634,1.2040908336639404,-0.7318159937858582
1780853157590404900,20.86340478515625,0.8688024282455444,0.18990258872509003,-0.07658717036247253
1780853157638924800,20.9119248046875,0.7887791395187378,-0.6776017546653748,-0.3500255048274994
1780853157687444700,20.96044482421875,0.5836812853813171,-1.050840139389038,1.5994731187820435
1780853157735964700,21.008964599609374,-0.11209368705749512,-0.03352120518684387,1.4074324369430542
1780853157784484600,21.057484619140624,0.9557743072509766,-2.3509130477905273,0.1443931609392166
1780853157833004500,21.106004638671877,0.043371398001909256,-1.3867393732070923,0.45593419671058655
1780853157881524500,21.1545244140625,-0.6793580055236816,-0.45249807834625244,-0.6792052984237671
1780853157930044400,21.20304443359375,-0.19349141418933868,-1.216689944267273,-0.33284494280815125
1780853157978564400,21.251564453125,0.6609556674957275,-1.2759437561035156,-0.1510363221168518
1780853158075604200,21.348604248046875,0.5100721120834351,-0.5179370045661926,-0.03260490670800209
1780853158124124200,21.397124267578125,-0.48853909969329834,-1.317482590675354,-1.0313688516616821
1780853158172643800,21.445643798828126,-0.9654718041419983,-0.562911868095398,-0.08750637620687485
1780853158221164000,21.4941640625,-1.2020292282104492,0.06421715766191483,0.3216966688632965
1780853158269683700,21.54268359375,-0.3934732675552368,0.03588830679655075,-0.6527853608131409
1780853158318203600,21.59120361328125,0.2545015513896942,1.0503820180892944,-0.4953349828720093
1780853158366723600,21.6397236328125,0.44470956921577454,2.648404359817505,-0.2292270064353943
1780853158415243500,21.688243408203125,0.22395829856395721,2.1326053142547607,1.177976369857788
1780853158463763500,21.736763427734374,0.21288637816905975,0.53221595287323,1.0065524578094482
1780853158512283400,21.785283447265623,-0.21746785938739777,0.39675667881965637,-1.2890774011611938
1780853158560803300,21.83380322265625,-0.8092431426048279,0.7360156774520874,-1.5287654399871826
1780853158609323000,21.882322998046874,-0.9850194454193115,1.7074434757232666,-0.8580359220504761
1780853158657843200,21.93084326171875,1.0360267162322998,0.11171189695596695,0.5435169339179993
1780853158706363000,21.97936279296875,1.0906990766525269,-0.25786128640174866,0.3641517758369446
1780853158754882800,22.0278828125,0.8649845123291016,-0.7547234296798706,1.659566879272461
1780853158803402800,22.07640283203125,0.20334161818027496,-0.3151298761367798,1.2985458374023438
1780853158851922700,22.124922607421876,1.1048252582550049,-2.662301540374756,0.06276635825634003
1780853158900442600,22.173442626953126,-0.26679518818855286,-1.0249547958374023,-0.3979020416736603
1780853158948962600,22.221962646484375,-0.8055779337882996,-0.366060733795166,-0.9148463606834412
1780853158997482500,22.270482421875,-0.04734202101826668,-1.1656826734542847,-0.2543488144874573
1780853159046002200,22.319002197265625,0.7715222239494324,-0.9035453796386719,-0.05215258151292801
1780853159094522400,22.3675224609375,0.7641154527664185,-0.06979130208492279,0.708450436592102
1780853159143042000,22.4160419921875,0.1960112303495407,-0.4321868419647217,-0.06192641705274582
1780853159191562000,22.46456201171875,-0.593149721622467,-1.3180934190750122,-0.8587995171546936
1780853159240082000,22.51308203125,-1.2973240613937378,-0.17234022915363312,-0.15783219039440155
1780853159288601900,22.561601806640624,-0.4704422354698181,-0.2328922003507614,-0.5277871489524841
1780853159337121500,22.61012158203125,-0.3555232882499695,0.12591449916362762,-0.23021966218948364
1780853159385641500,22.658641357421875,0.03756818547844887,1.4343868494033813,-0.44669488072395325
1780853159434161400,22.707161376953124,0.3549124300479889,2.0788493156433105,-0.5064069032669067
1780853159482681300,22.755681396484373,0.21090106666088104,2.156810760498047,1.2786163091659546
1780853159531201300,22.804201171875,0.15057817101478577,0.4091266989707947,0.9292016625404358
1780853159579721000,22.852720947265624,-0.18661919236183167,0.71463543176651,-1.3655118942260742
1780853159628241000,22.901240966796873,-0.6791289448738098,0.7473930716514587,-1.6620867252349854
1780853159676760800,22.9497607421875,-0.6135373115539551,1.216995358467102,-0.9191223978996277
1780853159725280800,22.99828076171875,1.3710860013961792,-0.03283398225903511,0.24289511144161224
1780853159773800700,23.04680078125,1.1215476989746094,-0.68386310338974,1.0690897703170776
1780853159822320600,23.095320556640626,0.418366014957428,0.14523309469223022,1.9747731685638428
1780853159870840300,23.14384033203125,0.18661919236183167,-0.9918916821479797,0.858646810054779
1780853159919360300,23.1923603515625,0.5698604583740234,-1.757763385772705,0.34552037715911865
1780853159967880200,23.240880126953126,-0.32620179653167725,-0.47983428835868835,-0.15263983607292175
1780853160016400000,23.28939990234375,-0.5097666382789612,-0.39049530029296875,-0.6882155537605286
1780853160064919800,23.337919921875,0.027030766010284424,-0.9546289443969727,-0.4122573733329773
1780853160113439700,23.386439697265626,0.7364738583564758,-0.46173742413520813,-0.08055779337882996
1780853160161959700,23.434959716796875,0.6382773518562317,-0.2216675579547882,0.32078036665916443
1780853160210479600,23.483479736328125,-0.22388194501399994,-0.5429060459136963,-0.7014254927635193
1780853160258999600,23.53199951171875,-0.9502001404762268,-0.6317868828773499,-0.5100721120834351
1780853160307519200,23.580519287109375,-1.1657590866088867,0.1798996776342392,0.2654971182346344
1780853160356039200,23.6290390625,-0.5822305083274841,0.23144139349460602,-0.43921178579330444
1780853160404559000,23.67755908203125,0.06452259421348572,0.61201012134552,-0.13049599528312683
1780853160453078800,23.726078857421875,0.4192059636116028,1.5390738248825073,-0.8486438989639282
1780853160501598700,23.7745986328125,0.10140355676412582,2.47407865524292,-0.5674170255661011
1780853160550118700,23.82311865234375,-0.14744748175144196,2.1348960399627686,1.2649482488632202
1780853160598638600,23.871638671875,0.09605848789215088,0.6527090072631836,0.21380266547203064
1780853160647158300,23.920158203125,0.061850059777498245,0.9968549609184265,-1.3784927129745483
1780853160695678200,23.96867822265625,-1.2000439167022705,1.6589560508728027,-1.3267983198165894
1780853160744198100,24.0171982421875,0.3992001414299011,0.8475748896598816,0.11484257876873016
1780853160792717800,24.0657177734375,0.7121919989585876,0.3315468728542328,-0.05123628303408623
1780853160841237800,24.11423779296875,0.5794052481651306,-0.19906556606292725,1.1228457689285278
1780853160889757700,24.1627578125,1.0259474515914917,-0.44241881370544434,2.9508585929870605
1780853160938277600,24.211277587890624,0.5665770769119263,-2.5460081100463867,0.13828451931476593
1780853160986797300,24.25979736328125,0.015195261687040329,-1.1568251848220825,-0.12316560745239258
1780853161035317200,24.308317138671875,-0.6714167594909668,-0.5682569742202759,-0.6737074851989746
1780853161083837200,24.356837158203124,-0.3744601011276245,-0.971580445766449,-0.5361102223396301
1780853161132356900,24.40535693359375,0.42302384972572327,-1.2682316303253174,-0.019929463043808937
1780853161180876800,24.453876708984374,0.9539417028427124,-0.6800451874732971,0.7330377101898193
1780853161229396700,24.502396728515624,0.1813504844903946,-0.18440480530261993,-0.07391463965177536
1780853161277916700,24.550916748046873,-0.41378453373908997,-1.5364776849746704,-1.635666847229004
1780853161326436400,24.599436279296874,-0.9317978620529175,-0.4427242577075958,0.7581595778465271
1780853161374956300,24.647956298828124,-1.2592214345932007,-0.10819942504167557,-0.08689551800489426
1780853161423476200,24.696476318359377,-0.6200277805328369,0.9573014378547668,-1.0205259323120117
1780853161471996200,24.74499609375,0.5949059128761292,1.6993494033813477,-0.5627591609954834
1780853161520515800,24.793515869140624,0.6548470258712769,2.957731008529663,0.13019055128097534
1780853161569035500,24.842035400390625,0.14103341102600098,1.5445716381072998,1.2944988012313843
1780853161617555500,24.890555419921874,-0.06131555140018463,0.6950877904891968,0.2864955961704254
1780853161666075400,24.939075439453124,-0.3266599476337433,0.5455785989761353,-1.475467562675476
1780853161714595300,24.98759521484375,-1.2346340417861938,1.2774709463119507,-1.3342814445495605
1780853161763115000,25.036114990234374,0.11423171311616898,0.6840158104896545,-0.4760163724422455
1780853161811635000,25.084635009765623,1.2632683515548706,-0.16539163887500763,0.3716348707675934
1780853161860154600,25.133154541015625,0.9127846956253052,-0.7521272301673889,1.0875684022903442
1780853161908674600,25.181674560546874,0.0850629210472107,0.5321395993232727,1.813275694847107
1780853161957194500,25.230194580078123,1.3380992412567139,-2.624122381210327,0.7457131743431091
1780853162005714200,25.278714111328124,0.39675667881965637,-1.570380687713623,-0.37812530994415283
1780853162054234000,25.327234130859374,-0.8416189551353455,-0.598723828792572,-1.3991093635559082
1780853162102753800,25.37575390625,-0.47670361399650574,-0.7518981695175171,-0.49418962001800537
1780853162151273700,25.424273681640624,0.6260600686073303,-1.0465641021728516,0.37491825222969055
1780853162199793700,25.472793701171874,0.5558869242668152,-0.28924447298049927,0.6020836234092712
1780853162248313600,25.521313720703127,0.29741477966308594,-0.39675667881965637,-0.6359102129936218
1780853162296833300,25.569833251953124,-0.19937099516391754,-1.1216241121292114,-0.9527199864387512
1780853162345353000,25.61835302734375,-0.6065887212753296,-0.44608399271965027,0.565049946308136
1780853162393873000,25.666872802734375,-0.6298779249191284,-0.5472584962844849,0.19326233863830566
1780853162442392800,25.715392822265624,-0.6298779249191284,0.12026400119066238,-0.973031222820282
1780853162490912800,25.763912841796873,0.026801692321896553,1.0997092723846436,-0.17890702188014984
1780853162539432400,25.812432373046875,0.695698618888855,1.3547453880310059,-0.0576503649353981
1780853162587952400,25.860952392578124,-0.14928008615970612,1.9825615882873535,1.1892009973526
1780853162636472000,25.90947216796875,-0.19792018830776215,0.7527381181716919,0.6457604169845581
1780853162684992000,25.957991943359374,0.011606430634856224,0.3823249936103821,-1.201570987701416
1780853162733511700,26.00651171875,-0.48533207178115845,0.7670934200286865,-1.6234495639801025
1780853162782031400,26.05503125,-0.5506182312965393,1.2971713542938232,-1.0538945198059082
1780853162830551300,26.10355126953125,0.6931024789810181,0.5488619804382324,0.48937904834747314
1780853162879071200,26.1520712890625,0.9337068200111389,-0.24083344638347626,0.9527963399887085
1780853162927591200,26.200591064453125,0.3656025826931,-0.1472947746515274,1.4518728256225586
1780853162976110800,26.24911083984375,0.18356487154960632,-0.602007269859314,1.3351212739944458
1780853163024630800,26.297630859375,0.4676169753074646,-1.6027565002441406,0.049480047076940536
1780853163073150500,26.346150390625,-0.5940660238265991,-0.5722275972366333,-0.640720784664154
1780853163121670100,26.394670166015626,-0.6027708053588867,-0.6959276795387268,-0.5017490386962891
1780853163170190000,26.443190185546875,0.16554436087608337,-0.5614610910415649,0.06207913160324097
1780853163218709800,26.491709716796876,0.8329904675483704,-0.3724747896194458,0.09453132748603821
1780853163267229700,26.540229736328126,0.5674933791160583,-0.282524973154068,0.3827831447124481
1780853163315749600,26.58874951171875,-0.22663083672523499,-0.36399903893470764,-0.44463321566581726
1780853163364269600,26.63726953125,-0.229150652885437,-0.846505880355835,-0.8995747566223145
1780853163412789200,26.685789306640626,-0.5610029697418213,-0.8846849203109741,0.9602794051170349
1780853163461309200,26.73430908203125,-0.5954404473304749,-0.45097091794013977,-1.4185807704925537
1780853163509828900,26.782828857421876,-0.5943714380264282,0.997618556022644,-0.9720385670661926
1780853163558348500,26.8313486328125,0.44203701615333557,1.2528072595596313,0.29451319575309753
1780853163606868500,26.879868408203127,0.43279770016670227,1.8445061445236206,1.2860994338989258
1780853163655388200,26.92838818359375,-0.323452889919281,1.310381293296814,1.1392627954483032
1780853163703908000,26.976908203125,-0.129197895526886,0.7290670871734619,-0.8907935619354248
1780853163752427800,27.025427734375,-0.147905632853508,0.5415316224098206,-1.6780455112457275
1780853163800947700,27.07394775390625,-0.6181951761245728,0.9246965646743774,-1.6100105047225952
1780853163849467600,27.122467529296873,0.22105668485164642,1.050763726234436,0.24411684274673462
1780853163897987300,27.1709873046875,0.6053670048713684,0.3733147382736206,0.4433351159095764
1780853163946507300,27.21950732421875,0.5732966065406799,-0.5975021123886108,1.3139700889587402
1780853163995027000,27.26802685546875,0.16363540291786194,-0.3081812858581543,1.570380687713623
1780853164043547000,27.316546875,0.922176718711853,-1.8697807788848877,0.20891575515270233
1780853164092066600,27.365066650390624,0.2992473840713501,-1.8805471658706665,-0.47991064190864563
1780853164140586500,27.41358642578125,-0.5724566578865051,-0.8947641849517822,-0.6194168925285339
1780853164189106200,27.462106201171874,-0.39102980494499207,-1.049007534980774,-0.3347539007663727
1780853164237626000,27.510626220703124,0.5519927144050598,-0.9224821925163269,0.1303432732820511
1780853164286145800,27.559145751953125,0.6236929297447205,-0.393244206905365,0.47380200028419495
1780853164334665500,27.60766552734375,-0.10598503798246384,-0.07933606207370758,-0.22991423308849335
1780853164383185400,27.656185302734375,0.10621411353349686,-0.9518036842346191,-0.9795980453491211
1780853164431705000,27.704705078125,-0.3254382014274597,-1.0041853189468384,0.7981712222099304
1780853164480225000,27.75322509765625,-0.34636032581329346,-0.5769617557525635,-0.5481747984886169
1780853164528744700,27.80174462890625,-0.7086031436920166,0.6113229393959045,-1.0665699243545532
1780853164577264600,27.8502646484375,0.059635672718286514,1.1168135404586792,0.04627300798892975
1780853164625784300,27.898784423828126,0.48128509521484375,1.4624866247177124,0.09957095980644226
1780853164674304000,27.947303955078127,-0.1417969912290573,1.420947790145874,1.1905754804611206
1780853164722824000,27.995823974609376,-0.1969275325536728,0.1527925580739975,0.6796634197235107
1780853164771343600,28.044343505859374,-0.2562577724456787,0.49082985520362854,-1.2228748798370361
1780853164819863600,28.092863525390626,-0.6428588032722473,0.7512873411178589,-1.6407828330993652
1780853164868383200,28.14138330078125,-0.1182023361325264,1.581223487854004,-0.30138540267944336
1780853164916903200,28.189903076171873,0.7791580557823181,0.8779653906822205,0.37140578031539917
1780853164965422800,28.2384228515625,0.8765146136283875,-0.06666062027215958,0.8833868503570557
1780853165013942800,28.28694287109375,0.6957749724388123,-0.25579962134361267,1.9553781747817993
1780853165062462500,28.33546240234375,0.5313760042190552,-1.553505539894104,0.6141481995582581
1780853165110982100,28.383982177734374,0.3797288239002228,-1.9381211996078491,-0.6218603253364563
1780853165159502000,28.432502197265624,-0.6337721943855286,-0.9840267896652222,-0.8697950839996338
1780853165208021800,28.481021728515625,-0.4612792730331421,-0.743880569934845,-0.22663083672523499
1780853165256541700,28.529541748046874,0.40431612730026245,-0.8925498127937317,0.09941824525594711
1780853165305061400,28.578061279296875,0.8161153197288513,-0.24365869164466858,0.044211339205503464
1780853165353581300,28.626581298828125,0.4056142270565033,0.13041962683200836,0.49808385968208313
1780853165402101000,28.67510107421875,0.08284853398799896,-1.326951026916504,-0.35468336939811707
1780853165450620700,28.72362060546875,-0.32276567816734314,-1.2192097902297974,-0.6986002326011658
1780853165499140600,28.772140625,-0.5146535634994507,-0.6898190379142761,0.22930335998535156
1780853165547660300,28.820660400390626,-0.5445095896720886,-0.5539780259132385,-1.0461822748184204
1780853165596180200,28.86918017578125,-0.037720900028944016,0.3061196208000183,-0.10201441496610641
1780853165644700000,28.917699951171876,0.8441387414932251,0.711962878704071,0.00038179047987796366
1780853165693219600,28.966219482421874,0.368122398853302,1.5034146308898926,0.08009964227676392
1780853165741739300,29.0147392578125,0.08888082206249237,0.9363793730735779,0.6334667801856995
1780853165790259000,29.063259033203124,-0.3205513060092926,1.0557270050048828,-0.74540776014328
1780853165838779000,29.11177880859375,-0.7729730010032654,1.081536054611206,-1.5104395151138306
1780853165887298600,29.160298583984375,-0.6443096399307251,1.439044713973999,-0.9240093231201172
1780853165935818500,29.208818603515624,0.44035714864730835,1.04076087474823,0.7475457787513733
1780853165984338200,29.257338134765625,0.2701549530029297,1.0487021207809448,-0.07857248187065125
1780853166032858000,29.305858154296875,0.5464949011802673,-0.04024071618914604,1.6087887287139893
1780853166081377800,29.354377685546876,0.2023489624261856,-0.9443206191062927,1.790826439857483
1780853166129897700,29.402897705078125,0.23854269087314606,-1.5990912914276123,0.5264127254486084
1780853166178417400,29.45141748046875,-0.1899789422750473,-1.2055416107177734,0.10140355676412582
1780853166226937000,29.49993701171875,-0.6921098232269287,-0.8043562173843384,-0.4355465769767761
1780853166275457000,29.54845703125,-0.3627009689807892,-0.9795216917991638,0.1352301836013794
1780853166323976700,29.596976806640626,0.3528507649898529,-1.0719913244247437,0.03367391973733902
1780853166372496400,29.645496337890624,0.6218603253364563,-0.5140427350997925,-0.12728895246982574
1780853166421016000,29.69401611328125,0.32330018281936646,-0.12873975932598114,0.23273947834968567
1780853166469536000,29.742535888671874,-0.07055488228797913,-0.9644027948379517,-0.4886154532432556
1780853166518055700,29.7910556640625,-0.210442915558815,-0.8397863507270813,0.026343543082475662
1780853166566575400,29.839575439453125,-0.3928624093532562,-0.7005091905593872,-0.7253255844116211
1780853166615095300,29.88809521484375,-0.34376415610313416,-0.13179408013820648,-0.4557051360607147
1780853166663615000,29.936614990234375,0.4849502742290497,0.3580431044101715,-0.3698022663593292
1780853166712135000,29.985135009765624,0.18814635276794434,1.704618215560913,-0.39965829253196716
1780853166760654600,30.033654541015625,-0.046883873641490936,2.467130184173584,0.4398989975452423
1780853166809174300,30.08217431640625,-0.20372340083122253,1.6292526721954346,0.5302306413650513
1780853166857694000,30.13069384765625,-0.33658650517463684,0.9989166259765625,-0.8900299668312073
1780853166906213600,30.179213623046873,-0.37843072414398193,0.7124210596084595,-0.932561457157135
1780853166954733600,30.227733642578126,-0.37140578031539917,1.4744749069213867,-0.4395935535430908
1780853167003253200,30.276253173828124,0.26358816027641296,1.292131781578064,0.21830779314041138
1780853167051773200,30.324773193359373,0.1185077652335167,0.607046902179718,0.5416079759597778
1780853167100292900,30.37329296875,0.25809037685394287,-0.29680392146110535,2.3113596439361572
1780853167148812500,30.4218125,0.10743584483861923,-1.6534582376480103,1.3628393411636353
1780853167197332200,30.470332275390625,0.09277509152889252,-1.4527891874313354,-0.02649625949561596
1780853167245852200,30.51885205078125,-0.3531562089920044,-1.1698824167251587,-0.22655446827411652
1780853167294371800,30.567371826171875,-0.35208719968795776,-1.46004319190979,-0.021914774551987648
1780853167342891500,30.6158916015625,-0.0665842592716217,-1.5801544189453125,0.10629047453403473
1780853167391411500,30.664411376953126,0.6698132157325745,-1.4518728256225586,0.07192932814359665
1780853167439931100,30.71293115234375,0.5528326034545898,-0.6584358811378479,-0.03909534588456154
1780853167488450800,30.761450927734376,0.20967933535575867,-0.7035635113716125,0.10468695312738419
1780853167536970500,30.809970458984374,-0.14660754799842834,-0.8016073107719421,0.18700097501277924
1780853167585490400,30.858490478515623,-0.3500255048274994,-1.3721550703048706,-1.0180824995040894
1780853167634010000,30.907010009765624,-0.2242637276649475,-0.8388700485229492,-0.756632387638092
1780853167682529800,30.95552978515625,0.5609265565872192,0.4489092528820038,-0.2738964855670929
1780853167731049500,31.004049560546875,0.7464004158973694,1.1055124998092651,-0.5423715710639954
1780853167779569200,31.052569091796876,0.6210203766822815,1.6581923961639404,-0.17852523922920227
1780853167828089000,31.101089111328125,0.2669478952884674,1.6561307907104492,-0.3107011020183563
1780853167925128700,31.198128662109376,0.0824667438864708,0.522442102432251,-1.0213658809661865
1780853167973648100,31.246648193359373,-0.1637117564678192,1.0684788227081299,-0.2531270980834961
1780853168022167800,31.295167724609374,-0.007024944759905338,0.8031344413757324,0.23968806862831116
1780853168070687700,31.343687744140624,-0.3474293351173401,0.5405389666557312,1.008537769317627
1780853168119207400,31.39220751953125,-0.7399863004684448,0.12446369975805283,2.143906354904175
1780853168167727400,31.440727294921874,-0.32650721073150635,-0.696309506893158,1.7019456624984741
1780853168216247000,31.4892470703125,-0.12774710357189178,-0.699287474155426,0.8129082918167114
1780853168264766700,31.5377666015625,-0.4278344213962555,-0.7301361560821533,0.13935352861881256
1780853168313286400,31.586286376953126,-0.374765545129776,-0.8019890785217285,-0.12095122784376144
1780853168361806000,31.63480615234375,0.011988221667706966,-0.7396808862686157,-0.17165300250053406
1780853168410326000,31.683325927734376,0.5631409883499146,-0.6683624386787415,-0.06864593178033829
1780853168458845700,31.731845703125,0.7312051653862,-0.23999349772930145,0.04176788032054901
1780853168507365400,31.780365478515623,0.35789039731025696,-0.1446985900402069,0.25816673040390015
1780853168555885000,31.828885009765624,-0.03733910992741585,-0.3851502537727356,-0.01870773360133171
1780853168604405000,31.877405029296874,-0.21204642951488495,-1.043662428855896,-0.38011062145233154
1780853168652924400,31.92592431640625,-0.4004218578338623,-1.2200497388839722,-1.6311616897583008
1780853168701444000,31.974444091796876,0.2381609082221985,0.07628174126148224,-0.2029598206281662
1780853168749964000,32.02296411132812,0.5143481492996216,0.9277508854866028,-0.28260132670402527
1780853168798483700,32.07148364257812,0.4783071279525757,1.8966587781906128,-0.7027235627174377
1780853168847003600,32.120003662109376,0.3433060050010681,1.942015528678894,-0.15233440697193146
1780853168895523300,32.1685234375,0.1182023361325264,1.089859127998352,-0.8212313652038574
1780853168944043000,32.21704296875,-0.03306305781006813,0.7170025110244751,-1.0580178499221802
1780853168992562700,32.265562744140624,-0.2822195291519165,1.162551999092102,-0.5329031348228455
1780853169041082400,32.314082275390625,0.11667517572641373,1.2399027347564697,0.47693267464637756
1780853169089602000,32.36260205078125,0.016035201027989388,0.39225155115127563,0.2917642891407013
1780853169138121700,32.41112182617187,-0.18906265497207642,0.15012001991271973,2.1881940364837646
1780853169186641700,32.4596416015625,-0.13339759409427643,-0.8355103135108948,1.7144683599472046
1780853169235161300,32.508161376953126,0.08002328872680664,-0.9306524991989136,0.8373429179191589
1780853169283681000,32.55668090820313,-0.4333322048187256,-0.7608320713043213,0
1780853169332200700,32.60520068359375,-0.5534434914588928,-0.5554288029670715,0.021456625312566757
1780853169380720600,32.653720703125,-0.19211697578430176,-0.7903063297271729,0.020540328696370125
1780853169429240000,32.702239990234375,0.36338818073272705,-0.8655190467834473,0.07681624591350555
1780853169477759700,32.750759765625,0.633008599281311,-0.7928261160850525,0.03955349326133728
1780853169526279700,32.79927978515625,0.1404225379228592,0.0013744457392022014,0.19242240488529205
1780853169574799400,32.84779931640625,0.08826996386051178,-0.3462076187133789,-0.2724456787109375
1780853169623319000,32.896319091796876,0.07246383279561996,-0.5618428587913513,0.025045456364750862
1780853169671838700,32.94483862304688,-0.23854269087314606,-0.6846266984939575,-1.396971344947815
1780853169720358700,32.99335864257812,0.15004366636276245,-0.3177260458469391,-0.37316203117370605
1780853169768878000,33.041878173828124,0.8983530402183533,0.4148535430431366,-0.5429824590682983
1780853169817397800,33.090397705078125,0.6963858604431152,1.70011305809021,-0.7063887715339661
1780853169865917700,33.13891772460938,0.37812530994415283,1.9923354387283325,0.19158247113227844
1780853169914437400,33.18743725585937,0.3127627670764923,0.9660826325416565,-0.050930850207805634
1780853169962957000,33.23595703125,0.22838707268238068,0.8954514265060425,-1.522656798362732
1780853170011476700,33.284476806640626,0.1545487940311432,1.539531946182251,-1.2943460941314697
1780853170108516000,33.38151611328125,0.6763800382614136,-0.19738568365573883,1.1940115690231323
1780853170157035800,33.430035888671874,0.003970621153712273,-0.08559742569923401,1.3268746137619019
1780853170205555700,33.4785556640625,-0.060933761298656464,-0.28580835461616516,1.0655772686004639
1780853170254075400,33.52707543945313,0.9092722535133362,-2.0575451850891113,0.46341729164123535
1780853170302595000,33.57559497070312,-0.4419606626033783,-0.7622065544128418,-0.20463970303535461
1780853170351114800,33.62411474609375,-0.7553343176841736,-0.35850125551223755,-0.3452913165092468
1780853170399635200,33.67263525390625,0.06589704006910324,-0.7984766364097595,0.02237292192876339
1780853170448155000,33.72115478515625,0.7064651250839233,-0.6272054314613342,0.12385283410549164
1780853170496674600,33.769674560546875,0.6895899772644043,-0.8862884640693665,0.664391815662384
1780853170545194200,33.8181943359375,-0.20853395760059357,-1.0331250429153442,-0.40523242950439453
1780853170593714000,33.8667138671875,-0.7638863921165466,-0.9161444306373596,-0.38324129581451416
1780853170642233600,33.91523364257812,-0.9534072279930115,-0.17608177661895752,-0.14133884012699127
1780853170690753300,33.963753173828124,-0.2055560052394867,0.26908594369888306,-0.45791950821876526
1780853170739273000,34.01227294921875,0.3214675784111023,1.0248783826828003,-0.47174033522605896
1780853170787792600,34.06079272460938,0.5092321634292603,1.837328553199768,-0.7260891199111938
1780853170836312300,34.10931225585937,-0.03733910992741585,3.1415247917175293,0.19769111275672913
1780853170884832300,34.157832275390625,-0.20952661335468292,0.7099775671958923,1.0266345739364624
1780853170933351700,34.2063515625,-0.1545487940311432,0.22006404399871826,-0.5430588126182556
1780853170981871600,34.25487158203125,-0.44127345085144043,0.9455423355102539,-1.3927717208862305
1780853171030391300,34.30339135742187,-0.2559523284435272,1.2583050727844238,-1.035415768623352
1780853171078911000,34.351910888671874,0.6162862181663513,0.6401099562644958,0.4670824706554413
1780853171127430700,34.4004306640625,0.7537307739257812,-0.06360629200935364,0.6210967898368835
1780853171175950300,34.44895043945313,0.8530726432800293,-0.7988584041595459,1.9159010648727417
1780853171224470000,34.49746997070312,0.5674933791160583,-1.6616286039352417,0.7150935530662537
1780853171272989700,34.54598974609375,0.2903134822845459,-1.8127412796020508,0.30138540267944336
1780853171321509400,34.59450927734375,-0.5474112033843994,-0.8478039503097534,-0.6057487726211548
1780853171370029000,34.64302905273438,-0.7651081085205078,-0.32016950845718384,-0.6424006819725037
1780853171418548700,34.691548828125,0.05230529606342316,-0.9253838062286377,0.2663370370864868
1780853171467068400,34.740068359375,0.8747583627700806,-0.5676460862159729,-0.05451968312263489
1780853171515588000,34.788588134765625,0.6997455954551697,-0.0501672700047493,0.4402044415473938
1780853171564107800,34.837107666015626,0.11881320178508759,-1.220813274383545,-0.23884813487529755
1780853171612627500,34.88562744140625,-0.7426588535308838,-0.7457131743431091,-0.6676751971244812
1780853171661147100,34.93414721679687,-1.1743875741958618,-0.6970730423927307,-0.1559995859861374
1780853171709666800,34.982666748046874,-0.8814778923988342,0.35071274638175964,-0.358348548412323
1780853171758186500,35.0311865234375,-0.02756527252495289,0.4753291606903076,-0.17302745580673218
1780853171806706200,35.0797060546875,0.5764272809028625,1.4576760530471802,-0.6234638690948486
1780853171855225900,35.12822583007812,0.3041343092918396,2.6451971530914307,-0.7633519172668457
1780853171903745500,35.17674560546875,-0.07635809481143951,2.3626723289489746,0.43287405371665955
1780853171952265200,35.22526513671875,0.06589704006910324,0.08811724185943604,0.6835576891899109
1780853172000785000,35.27378491210938,-0.08743002265691757,0.20143266022205353,-1.1795798540115356
1780853172049304600,35.3223046875,-0.7041743993759155,0.8100830316543579,-1.3627629280090332
1780853172097824300,35.37082421875,-0.15699224174022675,1.3755147457122803,-0.37774351239204407
1780853172146344000,35.419343994140625,1.2498292922973633,-0.5142717957496643,0.6385827660560608
1780853172194863600,35.46786352539063,1.0581705570220947,-1.2658644914627075,1.2618175745010376
1780853172243383300,35.51638330078125,0.005268708802759647,-0.10155627131462097,0.8598685264587402
1780853172291903000,35.56490307617187,1.0376302003860474,-2.5655558109283447,0.6524035930633545
1780853172340422700,35.613422607421874,-0.007406735327094793,-1.2373065948486328,0.6416370868682861
1780853172388942300,35.6619423828125,-0.8200859427452087,-0.4385245442390442,-0.854218065738678
1780853172437462000,35.7104619140625,-0.5406916737556458,-0.39332056045532227,-0.26939135789871216
1780853172485981700,35.75898168945312,0.35468336939811707,-0.7580068111419678,0.26656612753868103
1780853172534501400,35.80750146484375,0.8226057887077332,-0.1092684343457222,0.37262752652168274
1780853172583021000,35.85602099609375,0.4822777509689331,-0.5954404473304749,0.25495967268943787
1780853172631540500,35.90454052734375,-0.6923388838768005,-0.7851139307022095,-0.38499751687049866
1780853172680060400,35.95306030273437,-0.7271581888198853,-0.9640973210334778,-0.408592164516449
1780853172728579800,36.00157983398437,-0.8294016718864441,-0.34872743487358093,-0.48823368549346924
1780853172777099500,36.050099609375,-0.2522871494293213,0.3430005609989166,-0.21281002461910248
1780853172825619200,36.098619140625,0.37140578031539917,0.6779071688652039,-0.26855143904685974
1780853172874139000,36.14713891601563,0.4676169753074646,1.6781219244003296,-1.0009783506393433
1780853172922658600,36.19565844726562,-0.017333287745714188,3.006218194961548,-0.3964512348175049
1780853172971178200,36.24417822265625,-0.23709189891815186,1.687361240386963,0.9596685767173767
1780853173019698000,36.292697998046876,0.0007635809597559273,0.31932955980300903,0.13790272176265717
1780853173068217600,36.34121752929688,-0.28756460547447205,0.9721912741661072,-1.1400264501571655
1780853173116737300,36.3897373046875,-0.7398335933685303,1.197142243385315,-1.2956441640853882
1780853173165257000,36.438257080078124,0.2383899837732315,0.9123265743255615,-0.2903898358345032
1780853173213776600,36.486776611328125,1.0628283023834229,-0.29940009117126465,0.6206386089324951
1780853173262296300,36.53529638671875,0.7853430509567261,-0.8520036339759827,1.7983858585357666
1780853173310815700,36.58381567382813,0.2722166180610657,-0.25182899832725525,1.5318961143493652
1780853173359335700,36.63233569335937,1.2275327444076538,-2.950324058532715,0.16600249707698822
1780853173407855000,36.680855224609374,-0.2003636509180069,-1.0648136138916016,-0.023594651371240616
1780853173456374800,36.729374755859375,-0.9517273306846619,-0.35537058115005493,-0.8584177494049072
1780853173504894500,36.77789453125,-0.3156643807888031,-0.7500655651092529,-0.21380266547203064
1780853173553414100,36.8264140625,0.5605447888374329,-0.8331431746482849,0.06536252796649933
1780853173601933800,36.87493383789062,0.9243911504745483,-0.15691588819026947,0.11507165431976318
1780853173650453500,36.92345361328125,0.37354379892349243,-0.6855430006980896,0.5106829404830933
1780853173698973200,36.97197314453125,-0.5842921733856201,-1.2111921310424805,-0.6372846961021423
1780853173747492900,37.02049291992188,-1.0464876890182495,-1.0684788227081299,-0.23029601573944092
1780853173796012500,37.06901245117187,-0.8915571570396423,-0.11255183815956116,-0.8029053807258606
1780853173844532000,37.11753198242187,-0.24297146499156952,0.2383899837732315,-0.360410213470459
1780853173893051600,37.1660517578125,0.47586366534233093,1.0667226314544678,-0.43088874220848083
1780853173941571300,37.2145712890625,0.4941132366657257,2.335488796234131,-0.549091100692749
1780853173990091000,37.26309106445313,-0.07941242307424545,3.049971580505371,0.9157626628875732
1780853174038610700,37.31161059570312,0.028863361105322838,0.3366628587245941,1.117348074913025
1780853174087130400,37.36013037109375,-0.05558869615197182,0.3248273432254791,-1.0244202613830566
1780853174135650000,37.408650146484376,-0.49418962001800537,0.6420952677726746,-1.3593268394470215
1780853174184169700,37.45716967773438,-0.7377719283103943,1.3957496881484985,-1.1943933963775635
1780853174232689400,37.505689453125,0.8179479241371155,0.06299543380737305,0.4918225109577179
1780853174281208800,37.55420874023437,1.2431098222732544,-0.7712168097496033,0.8916335105895996
1780853174329728500,37.602728515625,0.5761982202529907,-0.41126471757888794,1.662850260734558
1780853174378248200,37.65124829101563,0.4584540128707886,-1.660788655281067,0.790917158126831
1780853174426768000,37.69976782226563,0.6675988435745239,-2.1134393215179443,0.5805506110191345
1780853174523807000,37.79680688476562,-0.7877101302146912,-0.6109411120414734,-1.1225403547286987
1780853174572326700,37.84532666015625,0.11178825795650482,-1.205694317817688,0.030772313475608826
1780853174669366000,37.94236596679688,0.7360156774520874,-0.19845469295978546,1.1199442148208618
1780853174717885700,37.9908857421875,-0.060322895646095276,-1.4057525396347046,-0.1966221034526825
1780853174766405000,38.03940502929687,-0.617660641670227,-0.5641336441040039,-0.7584649920463562
1780853174814924800,38.0879248046875,-0.8576541543006897,-0.9023236632347107,-0.4061487317085266
1780853174863444500,38.13644458007813,-0.7104357481002808,0.21555891633033752,-0.5916988849639893
1780853174911964200,38.18496411132813,-0.164322629570961,0.7402154207229614,-0.41958773136138916
1780853174960483800,38.23348388671875,0.4822777509689331,1.4824161529541016,-0.6149117350578308
1780853175009003300,38.28200317382812,0.18745912611484528,3.446422815322876,-0.104076087474823
1780853175057523000,38.33052294921875,-0.13561198115348816,1.933692455291748,1.239444613456726
1780853175106042600,38.37904272460938,0.07200568914413452,0.5907825827598572,0.22792892158031464
1780853175154562300,38.42756225585938,-0.18348850309848785,0.7057015299797058,-1.4928771257400513
1780853175203082000,38.47608203125,-0.8124501705169678,1.2521201372146606,-1.5709151029586792
1780853175251601700,38.5246015625,-0.4189005196094513,1.7105741500854492,-0.19295690953731537
1780853175300121300,38.573121337890626,1.166446328163147,-0.32818710803985596,0.19181154668331146
1780853175348640800,38.62164086914063,1.1703405380249023,-0.9925025701522827,1.1827105283737183
1780853175397160400,38.67016040039063,0.31123560667037964,0.022754713892936707,1.7014875411987305
1780853175445680000,38.71868017578125,0.40026915073394775,-2.133216142654419,0.18455752730369568
1780853175494199800,38.76719970703125,0.5319868922233582,-1.8161773681640625,0.7564796805381775
1780853175542719200,38.81571923828125,-0.593149721622467,-0.6840158104896545,-0.30169084668159485
1780853175591239000,38.86423901367188,-0.6215549111366272,-0.6940951347351074,-0.6236165761947632
1780853175639758600,38.91275854492188,0.1614210158586502,-1.052061915397644,-0.03214675933122635
1780853175688278000,38.96127807617187,0.9702059626579285,-0.6885973215103149,-0.01626427471637726
1780853175736797700,39.00979760742187,0.7220421433448792,-0.39477136731147766,0.5209149122238159
1780853175785317400,39.0583173828125,-0.04260781779885292,-1.3615412712097168,-0.22617268562316895
1780853175833837000,39.10683715820313,-0.9037744402885437,-1.0919208526611328,-0.5754346251487732
1780853175882356700,39.15535668945312,-1.1246020793914795,-0.5751292109489441,-0.5371028780937195
1780853175930876200,39.20387622070312,-0.24625486135482788,0.18868085741996765,-0.2577085793018341
1780853175979395800,39.252395751953124,0.33047783374786377,0.773202121257782,-0.349185585975647
1780853176027915500,39.30091552734375,0.6580541133880615,1.4781399965286255,-0.7092140316963196
1780853176076435200,39.34943530273438,0.07422006875276566,3.7182576656341553,0.6123155951499939
1780853176124954600,39.39795458984375,-0.19570580124855042,1.1934770345687866,1.7220277786254883
1780853176173474300,39.44647436523437,-0.024663666263222694,0.49189886450767517,-0.21311545372009277
1780853176221994000,39.494993896484374,-0.22014039754867554,0.6246092319488525,-1.3616175651550293
1780853176270513400,39.543513427734375,-0.9057597517967224,0.9958623051643372,-1.4692825078964233
1780853176319033000,39.592033203125,0.2107483446598053,1.1059707403182983,-0.16210824251174927
1780853176367552800,39.640552734375,1.5502984523773193,-0.9406554102897644,0.383470356464386
1780853176416072400,39.68907250976562,0.6101775765419006,-0.8229112029075623,0.6194168925285339
1780853176464592000,39.737591796875,-0.0896444097161293,-0.14164426922798157,0.8723912835121155
1780853176513111600,39.786111572265625,0.8975130915641785,-2.643364667892456,0.7033344507217407
1780853176561631200,39.83463134765625,-0.2513708472251892,-0.8040507435798645,0.7593812942504883
1780853176658670300,39.93167041015625,-0.5866592526435852,-0.3365101218223572,-0.11049016565084457
1780853176707190000,39.98018994140625,0.15370884537696838,-0.4182896614074707,0.2741255760192871
1780853176755709700,40.028709716796875,0.7205150127410889,-0.11308634281158447,-0.1185077652335167
1780853176804229000,40.07722900390625,0.44753479957580566,-0.726470947265625,0.12316560745239258
1780853176852748800,40.12574877929688,-0.48036879301071167,-1.1526254415512085,-0.05925388261675835
1780853176901268500,40.1742685546875,-1.2150864601135254,-0.895604133605957,-0.512133777141571
1780853176949788000,40.22278784179687,-0.9185879230499268,-0.09193515032529831,-0.4437169134616852
1780853176998307600,40.2713076171875,-0.0550541877746582,-0.24785839021205902,-0.279394268989563
1780853177046827300,40.3198271484375,0.5199986696243286,0.4906007647514343,-0.6295725107192993
1780853177095347000,40.36834692382813,0.6575959324836731,1.5157082080841064,-1.1550689935684204
1780853177143866400,40.41686645507812,0.5142717957496643,2.2969279289245605,-0.4311941862106323
1780853177192385800,40.4653857421875,0.07994692772626877,1.1534653902053833,0.7912989854812622
1780853177240905700,40.51390576171875,-0.014508038759231567,0.09193515032529831,-0.1380554437637329
1780853177289425200,40.562425048828125,-0.15172353386878967,0.7893136739730835,-0.9743293523788452
1780853177337944800,40.61094482421875,-0.6994401812553406,1.2926661968231201,-1.1181116104125977
1780853177386464300,40.65946435546875,0.24984370172023773,1.4185807704925537,0.2092975378036499
1780853177434984000,40.70798388671875,0.8710931539535522,-0.4634936451911926,0.5815432667732239
1780853177483503600,40.756503662109374,0.42798712849617004,-0.32734715938568115,1.193095326423645
1780853177532023000,40.80502294921875,-0.024740023538470268,-0.10720676928758621,0.9661589860916138
1780853177580542700,40.853542724609376,0.8844558596611023,-2.2914302349090576,0.41179922223091125
1780853177629062100,40.90206225585938,-0.03543015569448471,-0.8744529485702515,0.6451495885848999
1780853177677581800,40.95058178710938,-0.6141481995582581,-0.4017963111400604,-0.6916516423225403
1780853177726101500,40.9991015625,-0.5258018374443054,-0.5517635941505432,-0.5542834401130676
1780853177774621200,41.04762109375,0.3194059133529663,-0.5786416530609131,0.15699224174022675
1780853177823140600,41.096140625,0.8129846453666687,-0.1977674663066864,0.4541015923023224
1780853177871660300,41.14466040039063,0.33750277757644653,-0.6781362891197205,0.10972658544778824
1780853177920180000,41.19317993164063,-0.4828886091709137,-1.2460877895355225,-0.48907360434532166
1780853177968699400,41.24169946289062,-0.8674280047416687,-1.3046544790267944,-0.14286600053310394
1780853178017219000,41.29021899414062,-0.5717694163322449,-0.1349247545003891,-0.38996079564094543
1780853178065738500,41.338738525390625,-0.19242240488529205,0.23136503994464874,-0.12560907006263733
1780853178114258200,41.387258056640626,0.3020726442337036,1.0389282703399658,-0.3960694372653961
1780853178211297300,41.48429736328125,0.3139844834804535,2.032881736755371,-0.03481929376721382
1780853178259817000,41.53281689453125,-0.29451319575309753,1.232419729232788,1.2981640100479126
1780853178308336400,41.58133642578125,-0.13874267041683197,0.385990172624588,0.03520108386874199
1780853178356856000,41.62985595703125,-0.19303326308727264,0.8288671374320984,-1.258610486984253
1780853178405375700,41.67837573242188,-0.8261946439743042,1.1782054901123047,-1.1979057788848877
1780853178453895200,41.72689526367188,0.4263836145401001,0.9595922231674194,0.03245219215750694
1780853178502414800,41.77541479492187,1.237917423248291,-0.4508945643901825,0.42279478907585144
1780853178550934300,41.82393432617187,0.684473991394043,-0.6256782412528992,1.4245367050170898
1780853178599454000,41.872453857421874,0.08422297984361649,0.08987347781658173,1.3445134162902832
1780853178647973600,41.9209736328125,1.120631456375122,-2.688263177871704,0.4528798758983612
1780853178696493300,41.96949340820313,-0.2838993966579437,-0.8422298431396484,0.15821397304534912
1780853178745012700,42.0180126953125,-0.9370665550231934,-0.25060728192329407,-0.7918334603309631
1780853178793532200,42.0665322265625,-0.544891357421875,-0.41179922223091125,-0.275270938873291
1780853178842051800,42.1150517578125,0.36216646432876587,-0.47922343015670776,0.1118646115064621
1780853178890571300,42.1635712890625,0.9142354726791382,-0.021914774551987648,0.05558869615197182
1780853178939091000,42.212091064453126,0.4754055142402649,-0.4027126133441925,-0.027030766010284424
1780853178987610600,42.26061059570313,-0.600785493850708,-0.600785493850708,0.08315397053956985
1780853179036130300,42.30913037109375,-1.0470222234725952,-0.8320741653442383,-0.4817432463169098
1780853179084649700,42.35764965820312,-0.755105197429657,0.2935205399990082,-0.6902772188186646
1780853179133169200,42.406169189453124,-0.024281874299049377,0.15790854394435883,-0.06345357745885849
1780853179181688800,42.454688720703125,0.22754712402820587,0.9241620302200317,-0.4986947476863861
1780853179230208300,42.503208251953126,0.284586638212204,1.942244529724121,-0.9174425601959229
1780853179278728000,42.55172802734375,0.2110537886619568,2.482478141784668,-0.38988444209098816
1780853179327247600,42.60024755859375,0.03764454275369644,1.7343977689743042,1.0598503351211548
1780853179375767300,42.648767333984374,-0.021227551624178886,0.5032762289047241,-0.0781143307685852
1780853179424286700,42.69728662109375,-0.34666576981544495,0.8803325295448303,-1.207221508026123
1780853179472806100,42.74580615234375,-1.1051307916641235,1.6384921073913574,-1.5609885454177856
1780853179521325800,42.79432592773438,0.5674933791160583,0.7218894362449646,0.5752055644989014
1780853179569845200,42.84284521484375,0.8775836229324341,0.11782054603099823,0.3928624093532562
1780853179618365000,42.89136499023437,0.7719039916992188,-0.4189005196094513,1.3377938270568848
1780853179666884600,42.93988452148437,0.5246564745903015,-0.3246746361255646,2.0753366947174072
1780853179715404000,42.988404052734374,0.9563088417053223,-2.8277695178985596,0.19960007071495056
1780853179763923700,43.036923828125,-0.050319984555244446,-1.1252893209457397,0.02611446939408779
1780853179812443100,43.085443115234376,-0.907439649105072,-0.4712821841239929,-0.8513164520263672
1780853179860962800,43.133962890625,-0.5212967395782471,-0.734717607498169,-0.3000873327255249
1780853179909482200,43.18248217773437,0.35590508580207825,-0.8430697321891785,0.007177661173045635
1780853179958002000,43.231001953125,0.9050725102424622,-0.35705047845840454,0.36170831322669983
1780853180006521300,43.279521240234374,0.46883872151374817,-0.6925679445266724,0.001450803829357028
1780853180055040800,43.328040771484375,-0.5722275972366333,-1.197142243385315,-0.5393936038017273
1780853180152080100,43.425080078125,-0.8622356653213501,-0.40202537178993225,-0.3264308571815491
1780853180200599800,43.47359985351562,-0.6500364542007446,0.1107192412018776,-0.114460788667202
1780853180249119200,43.522119140625,0.29413139820098877,1.3446661233901978,-0.39454227685928345
1780853180297639000,43.570638916015625,0.6154462695121765,2.168111801147461,-0.7990111112594604
1780853180346158300,43.619158447265626,0.14698933064937592,3.2423174381256104,0.49197521805763245
1780853180394677800,43.667677734375,-0.147905632853508,0.8000801205635071,0.6338485479354858
1780853180443197400,43.71619750976563,-0.3272708058357239,0.7753401398658752,-0.8978948593139648
1780853180491716900,43.764716796875,-0.457843154668808,0.8209258913993835,-1.2884665727615356
1780853180540236500,43.81323657226562,-0.5690205693244934,1.126281976699829,-1.1661409139633179
1780853180588756000,43.861755859375,0.44868019223213196,0.4592176079750061,0.5960513353347778
1780853180637275400,43.910275390625,0.7478511929512024,0.45707955956459045,0.7819832563400269
1780853180685795000,43.958795166015626,0.8521563410758972,0.06383536756038666,1.6798781156539917
1780853180734314500,44.007314453125,1.0994802713394165,-1.7351614236831665,1.2975531816482544
1780853180782834200,44.05583422851562,0.9881501197814941,-2.1155011653900146,0.7517454624176025
1780853180831353900,44.10435375976562,-0.9651663303375244,-0.3646099269390106,-1.075885534286499
1780853180879873500,44.15287353515625,-1.152778148651123,-0.32673630118370056,-1.2607485055923462
1780853180976912400,44.249912353515626,0.8521563410758972,-0.755181610584259,0.24381139874458313
1780853181025432000,44.29843212890625,1.2165372371673584,-0.24113887548446655,0.3363574147224426
1780853181073951500,44.34695141601563,0.5000692009925842,-0.6530908346176147,0.2075413018465042
1780853181122471200,44.39547119140625,-0.39889469742774963,-1.3687952756881714,-0.6014727354049683
1780853181170990600,44.44399047851562,-0.8060360550880432,-0.6767618060112,-0.0345902182161808
1780853181219510000,44.492510009765624,-1.4159845113754272,-0.4633409380912781,-0.7682388424873352
1780853181268029700,44.54102978515625,-0.4199695289134979,0.9702059626579285,0.27435463666915894
1780853181316549000,44.589549072265626,0.5929206013679504,1.1837795972824097,-0.001832594396546483
1780853181365068800,44.63806884765625,0.4243219494819641,2.2413392066955566,-0.6825650334358215
1780853181413588200,44.68658813476563,-0.05482511222362518,2.2867722511291504,0.8545998334884644
1780853181462108000,44.73510791015625,-0.08307760953903198,0.5025889873504639,-0.000610864779446274
1780853181510627300,44.78362744140625,-0.3277289569377899,0.6165152788162231,-1.4847831726074219
1780853181559146800,44.832146728515625,-0.7772490978240967,0.911562979221344,-1.130328893661499
1780853181607666400,44.88066650390625,0.17447824776172638,0.8198568820953369,0.3177260458469391
1780853181656185900,44.92918579101563,0.60490882396698,0.3220020830631256,0.02283107116818428
1780853181704705500,44.97770556640625,1.0563379526138306,-1.5725187063217163,1.6442952156066895
1780853181753225000,45.02622485351562,0.45623964071273804,-1.4689770936965942,1.2366193532943726
1780853181801744600,45.07474462890625,0.45158177614212036,-2.1796419620513916,0.4191296100616455
1780853181850264000,45.12326416015625,-0.2380845546722412,-1.6728532314300537,-0.5648208260536194
1780853181898783500,45.171783447265625,-1.0108284950256348,-0.8568905591964722,-0.6405680775642395
1780853181947303200,45.22030322265625,-0.569173276424408,-0.8744529485702515,0.09002619981765747
1780853181995822600,45.26882250976563,0.22204934060573578,-0.6879100799560547,0.3017672002315521
1780853182044342300,45.31734228515625,0.6486620306968689,-0.22449280321598053,0.6743947267532349
1780853182092861700,45.36586181640625,0.1738673895597458,-1.5264747142791748,0.003741546766832471
1780853182141381000,45.41438110351562,-0.43829548358917236,-0.8196278214454651,-0.3127627670764923
1780853182189900800,45.46290087890625,-0.45387253165245056,-1.242040753364563,-0.9737184643745422
1780853182238420200,45.511420166015625,-0.21120649576187134,-0.41790786385536194,-0.3935496211051941
1780853182286940000,45.55993994140625,-0.001679878099821508,0.34437501430511475,-0.1450040340423584
1780853182335459300,45.60845922851563,0.6200277805328369,0.624456524848938,-0.5403862595558167
1780853182383979000,45.65697900390625,0.6417134404182434,1.077412724494934,-0.7257073521614075
1780853182432498400,45.70549853515625,0.21395538747310638,1.5545744895935059,-0.5093848705291748
1780853182481017900,45.754017822265624,-0.06826414167881012,1.4802017211914062,0.47731447219848633
1780853182529537500,45.80253759765625,-0.2055560052394867,0.1784488707780838,0.31955865025520325
1780853182578057000,45.851056884765626,-0.2836703360080719,0.685084879398346,-0.852996289730072
1780853182626576600,45.89957666015625,-0.4761691093444824,1.1717913150787354,-0.982194185256958
1780853182675096000,45.94809594726563,0.3984365463256836,1.1210895776748657,-0.009086613543331623
1780853182723615500,45.99661547851562,0.8962913751602173,-0.3614792227745056,0.0550541877746582
1780853182772135200,46.04513525390625,0.5228238701820374,-0.8242093324661255,1.5595377683639526
1780853182820654600,46.093654541015624,0.06146826967597008,-0.4468475878238678,1.2712860107421875
1780853182869174300,46.14217431640625,1.244484305381775,-3.2201735973358154,0.06940951198339462
1780853182917693700,46.190693603515626,0.01847865991294384,-1.156901478767395,0.6302597522735596
1780853182966213400,46.23921337890625,-0.7681624889373779,-0.7952696084976196,-0.901178240776062
1780853183014732800,46.28773291015625,-0.5910117030143738,-1.098411202430725,-0.4098902642726898
1780853183063252200,46.33625219726562,0.5263363718986511,-1.0900882482528687,0.37606361508369446
1780853183111772000,46.38477197265625,0.9098830819129944,-0.5816196203231812,0.7890845537185669
1780853183160291300,46.433291259765625,0.22128576040267944,-0.8370374441146851,-0.3649153411388397
1780853183208810800,46.481810791015626,-0.509155809879303,-0.7227293848991394,-0.4797579348087311
1780853183305849600,46.578849609375,-0.49220430850982666,-0.1182023361325264,-0.21051926910877228
1780853183354369300,46.62736938476562,-0.328645259141922,0.20532692968845367,-0.24396412074565887
1780853183402888700,46.675888671875,0.3902662396430969,1.2511274814605713,-0.6495019793510437
1780853183451408400,46.724408447265624,0.5989528894424438,1.939037561416626,-0.8106175661087036
1780853183499927800,46.772927734375,0.23273947834968567,2.719646453857422,0.30917394161224365
1780853183548447500,46.821447509765626,-0.013133592903614044,0.9437097311019897,0.811610221862793
1780853183596967000,46.869966796875,-0.18516838550567627,0.5700132250785828,-0.8111520409584045
1780853183645486300,46.918486328125,-0.4260781705379486,0.6168206930160522,-1.328401803970337
1780853183694006000,46.96700610351562,-0.7089085578918457,1.2163081169128418,-1.1286489963531494
1780853183742525400,47.015525390625,0.9352339506149292,-0.095982126891613,0.46692976355552673
1780853183791045000,47.064045166015624,0.952643632888794,-0.29390230774879456,0.9024763703346252
1780853183839564300,47.112564208984374,0.5354993343353271,-0.4356229603290558,1.7520365715026855
1780853183888083700,47.161083740234375,0.22579088807106018,-1.5064688920974731,0.6613374948501587
1780853183936603400,47.209603271484376,0.916297197341919,-1.934914231300354,0.7170025110244751
1780853183985122800,47.25812280273438,-0.575663685798645,-0.5240456461906433,-0.13889537751674652
1780853184033642500,47.306642578125,-0.9178243279457092,-0.2415970265865326,-0.711046576499939
1780853184082162000,47.35516186523437,-0.1311832070350647,-0.7480039000511169,0.0720820426940918
1780853184130681600,47.403681640625,0.675616443157196,-0.4307360351085663,-0.08613193035125732
1780853184179201000,47.452200927734374,0.685390293598175,-0.2026543915271759,0.42073312401771545
1780853184227720400,47.500720458984375,0.08093958348035812,-1.403843641281128,-0.30337071418762207
1780853184276240100,47.549240234375,-0.560850203037262,-0.7797688841819763,-0.5711585879325867
1780853184324759600,47.59775952148438,-0.9816597104072571,-1.1452951431274414,-0.33834272623062134
1780853184373279000,47.64627905273438,-0.8921679854393005,0.25954118371009827,-0.5015199780464172
1780853184421798400,47.69479833984375,0.09873101860284805,0.28840452432632446,0.09903645515441895
1780853184470317800,47.74331787109375,0.7480039000511169,0.8190932869911194,-0.3872119188308716
1780853184518837500,47.79183740234375,0.21166464686393738,2.159559726715088,-0.9070578217506409
1780853184567357000,47.84035693359375,-0.25579962134361267,2.8261659145355225,0.13156500458717346
1780853184615876600,47.88887670898438,-0.23907721042633057,0.9369902014732361,0.681801438331604
1780853184664396000,47.93739599609375,-0.056428633630275726,0.6119337677955627,-1.1407135725021362
1780853184712915700,47.98591577148437,-0.4626537263393402,0.6952404975891113,-1.2030218839645386
1780853184761435000,48.03443481445313,-0.495258629322052,1.2774709463119507,-1.1270455121994019
1780853184809954300,48.08295434570312,0.8883501291275024,0.6358338594436646,0.8587231636047363
1780853184858474000,48.13147387695312,1.443168044090271,-0.40080365538597107,2.2188899517059326
1780853184906993400,48.179993408203124,1.1604139804840088,-1.782656192779541,2.930929183959961
1780853184955513000,48.22851318359375,0.807486891746521,-2.4398703575134277,0.0012980876490473747
1780853185004032500,48.277032470703126,-0.16768237948417664,-1.5543454885482788,-1.08100163936615
1780853185052552200,48.32555224609375,-0.8368847370147705,-0.9550870656967163,-0.7103593945503235
1780853185101071400,48.3740712890625,-0.41668614745140076,-0.9967786073684692,-0.04780016839504242
1780853185149590800,48.4225908203125,0.43547022342681885,-1.2790744304656982,-0.16103923320770264
1780853185198110500,48.4711103515625,0.9938769936561584,-0.49861836433410645,0.31520622968673706
1780853185246630000,48.5196298828125,0.6143009066581726,-1.1636210680007935,-0.185092031955719
1780853185295149600,48.568149658203126,-0.5134318470954895,-1.2875502109527588,0.11346813291311264
1780853185343669000,48.6166689453125,-0.5984947681427002,-0.2574795186519623,-0.05841394513845444
1780853185392188400,48.6651884765625,-1.2737294435501099,-0.7334958910942078,-0.9380592107772827
1780853185440707800,48.71370776367188,-0.6202568411827087,0.4385245442390442,-0.5601630210876465
1780853185489227300,48.76222729492188,0.5445859432220459,0.6036871075630188,-0.06940951198339462
1780853185537747000,48.81074682617187,0.418366014957428,1.986685037612915,-0.741818904876709
1780853185586266400,48.85926635742187,0.08093958348035812,2.5048511028289795,-0.87254399061203
1780853185634785800,48.907785888671874,-0.11980585753917694,1.8562653064727783,0.3626246154308319
1780853185683305500,48.956305419921875,-0.10903936624526978,0.9002619981765747,-0.03214675933122635
1780853185731825000,49.00482495117188,-0.2706131041049957,0.8917862176895142,-1.2499819993972778
1780853185780344300,49.05334423828125,-0.8991929292678833,1.3525309562683105,-1.2773182392120361
1780853185828863700,49.10186376953125,0.35934120416641235,0.898276686668396,0.2548069655895233
1780853185877383400,49.15038354492187,0.9270636439323425,-0.2698495090007782,0.08292489498853683
1780853185925902800,49.19890283203125,1.0013600587844849,-1.4188861846923828,2.8399102687835693
1780853185974422300,49.24742236328125,0.2974911332130432,-1.4689770936965942,1.2535709142684937
1780853186022941700,49.295941650390624,1.1109340190887451,-2.708116292953491,0.022067490965127945
1780853186071461000,49.344461181640625,-0.34666576981544495,-1.5956552028656006,0.3934732675552368
1780853186119980800,49.392980712890626,-1.1698824167251587,-0.8657481074333191,-0.5381718873977661
1780853186168500200,49.44150024414063,-0.1542433500289917,-2.0208933353424072,-0.02649625949561596
1780853186217019600,49.49001953125,0.6052906513214111,-1.3329832553863525,0.45883581042289734
1780853186265539000,49.5385390625,0.49312058091163635,-0.7610611319541931,0.552603542804718
1780853186314058500,49.58705859375,-0.34292420744895935,-1.492266297340393,-0.08368847519159317
1780853186362578200,49.635578125,-0.24923282861709595,-0.9579886794090271,-0.3032180070877075
1780853186411097600,49.68409765625,-0.4272235631942749,-1.4535527229309082,-0.7440332770347595
1780853186459617000,49.732616943359375,-0.383470356464386,0.47410741448402405,-0.2778671085834503
1780853186508136400,49.781136474609376,0.36827510595321655,0.6260600686073303,0.18180863559246063
1780853186556655900,49.82965576171875,0.8335250020027161,0.9208786487579346,-0.6503419280052185
1780853186605175600,49.87817553710938,0.3202458620071411,2.0410518646240234,-0.7769436240196228
1780853186653695000,49.92669506835937,0.20173808932304382,1.9436954259872437,-0.09827287495136261
1780853186702214400,49.97521435546875,0.0766635313630104,1.2523491382598877,0.7216603755950928
1780853186750733800,50.02373388671875,-0.35758498311042786,1.232037901878357,-0.3850739002227783
1780853186799253200,50.07225317382812,-0.38240134716033936,0.6415607333183289,-1.2182934284210205
1780853186847773000,50.12077294921875,-0.5787180066108704,1.5997021198272705,-0.4909062087535858
1780853186896292400,50.169292236328126,0.8262709975242615,0.44638943672180176,0.07765618711709976
1780853186944811800,50.21781176757813,0.9341649413108826,-0.249920055270195,-0.145614892244339
1780853186993331200,50.26633129882813,0.39332056045532227,-0.6504946351051331,1.2415063381195068
1780853187041851000,50.31485083007812,-0.19326233863830566,-0.5722275972366333,1.283808708190918
1780853187090370300,50.36337036132812,1.3312270641326904,-3.075016975402832,0.8131373524665833
1780853187138889700,50.4118896484375,0.12988512217998505,-1.5704569816589355,0.42478010058403015
1780853187187409200,50.4604091796875,-1.0231984853744507,-0.8623883724212646,-1.1099413633346558
1780853187235928600,50.508928466796874,-0.5946768522262573,-1.1268928050994873,-0.37201663851737976
1780853187284448300,50.5574482421875,0.5426006317138672,-0.9060651659965515,0.7175370454788208
1780853187332967400,50.605967529296876,0.6961567997932434,-0.6568323373794556,0.7993929386138916
1780853187381486800,50.65448681640625,0.6033053398132324,-1.252959966659546,-0.5487092733383179
1780853187430006500,50.70300659179688,-0.3156643807888031,-0.8202387094497681,-0.5199986696243286
1780853187478526000,50.75152587890625,-0.6328558921813965,-1.1373538970947266,-0.6611847877502441
1780853187527045400,50.80004541015625,-0.3601047992706299,-0.18035782873630524,-0.49808385968208313
1780853187575564800,50.84856469726562,-0.23304490745067596,0.006872228812426329,-0.16875138878822327
1780853187624084500,50.89708447265625,0.24671301245689392,0.8697950839996338,-0.29909467697143555
1780853187672603600,50.945603759765625,0.6262891292572021,1.431943416595459,-0.7259364128112793
1780853187721123000,50.994123046875,0.5269472599029541,1.9799654483795166,-0.203799769282341
1780853187769642800,51.04264282226563,0.10537417232990265,1.339931845664978,1.0680207014083862
1780853187818162200,51.091162109375,-0.2254091054201126,0.39713847637176514,0.11217004805803299
1780853187866681600,51.139681640625,-0.4848739206790924,0.7966440320014954,-1.2540290355682373
1780853187915201000,51.18820092773438,-0.8968258500099182,1.7317253351211548,-0.7842740416526794
1780853187963720400,51.23672045898437,0.43279770016670227,0.5232056975364685,0.2121991515159607
1780853188012240100,51.285240234375,1.3965896368026733,-0.6559160351753235,-0.1421024203300476
1780853188060759600,51.333759521484374,0.7472403645515442,-0.8446732759475708,1.3794090747833252
1780853188109279000,51.382279052734376,-0.20998476445674896,-0.2629773020744324,0.4551706314086914
1780853188157798400,51.43079833984375,0.8384119272232056,-2.2006404399871826,0.9743293523788452
1780853188206317800,51.47931787109375,-0.10430516302585602,-1.1238384246826172,0.7526617646217346
1780853188254837200,51.52783715820313,-1.0018945932388306,-0.168904110789299,-0.8045089244842529
1780853188303356700,51.57635668945313,-0.6032289862632751,-0.4623482823371887,-0.3064250349998474
1780853188351876000,51.6248759765625,0.37232208251953125,-0.6436987519264221,0.16821688413619995
1780853188400395500,51.6733955078125,0.825812816619873,-0.2738201320171356,0.822300374507904
1780853188448915200,51.721915283203124,0.4780016839504242,-1.1004729270935059,-0.2274707704782486
1780853188497434600,51.7704345703125,-0.5345066785812378,-0.8214604258537292,-0.25473061203956604
1780853188545954000,51.8189541015625,-1.3728421926498413,-0.8545234799385071,-0.6381246447563171
1780853188594473500,51.867473388671876,-0.6913462281227112,0.30367615818977356,-0.40523242950439453
1780853188642993000,51.91599291992188,0.06383536756038666,-0.14546217024326324,-0.20578506588935852
1780853188691512300,51.96451220703125,0.4745655655860901,0.9873101711273193,-0.8022181987762451
1780853188740031700,52.01303173828125,0.43004879355430603,2.0856449604034424,-0.8360447883605957
1780853188788551200,52.06155126953125,0.14691297709941864,3.1159448623657227,0.5064069032669067
1780853188837070600,52.11007055664062,-0.12736530601978302,0.7515164017677307,0.9925025701522827
1780853188885590000,52.15859008789062,-0.2516762912273407,0.7211259007453918,-0.9287435412406921
1780853188934109700,52.207109619140624,-0.4618137776851654,0.6292670965194702,-1.0985639095306396
1780853188982628900,52.25562890625,-0.7467821836471558,1.599549412727356,-1.1585813760757446
1780853189031148500,52.3041484375,1.1744638681411743,0.050778135657310486,0.1291215419769287
1780853189079668000,52.35266796875,1.2133301496505737,-0.5624537467956543,0.2618319094181061
1780853189128187400,52.4011875,0.8380300998687744,-0.893542468547821,1.8516075611114502
1780853189176706800,52.44970678710938,-0.029932374134659767,-0.6139954328536987,1.070006012916565
1780853189225226200,52.49822631835937,0.7757219076156616,-2.090913772583008,0.4972439408302307
1780853189273745700,52.54674560546875,-0.2026543915271759,-0.939662754535675,0.34231334924697876
1780853189322265000,52.59526513671875,-0.9218713045120239,-0.20189081132411957,-0.8238275051116943
1780853189370784500,52.64378442382812,-0.3712530732154846,-0.8465822339057922,-0.29619306325912476
1780853189419304000,52.692303955078124,0.6466767191886902,-0.8290961980819702,0.015271619893610477
1780853189467823400,52.7408232421875,1.0669517517089844,-0.2931387424468994,0.6352993845939636
1780853189516343000,52.789343017578126,0.4145480990409851,-0.7272345423698425,0.050778135657310486
1780853189564862200,52.8378623046875,-0.6532435417175293,-0.8999565243721008,-0.572151243686676
1780853189613381600,52.88638159179688,-0.8707113862037659,-1.0690897703170776,-0.11682789027690887
1780853189661901300,52.9349013671875,-0.9989929795265198,0.33276858925819397,-0.4271472096443176
1780853189710420700,52.98342065429687,-0.4926624298095703,0.3712530732154846,-0.17371466755867004
1780853189758940200,53.03194018554687,0.386601060628891,1.2073742151260376,-0.8282563090324402
1780853189807459600,53.08045947265625,0.5900954008102417,2.6024367809295654,-0.7511346340179443
1780853189855979000,53.12897900390625,0.1740964651107788,3.281489133834839,0.6890554428100586
1780853189904498400,53.17749853515625,-0.029932374134659767,0.8371901512145996,1.0191515684127808
1780853189953017900,53.226017822265625,-0.29733842611312866,0.7687733173370361,-0.8927025198936462
1780853190001537300,53.274537353515626,-0.6512582302093506,0.7818305492401123,-1.3056471347808838
1780853190050056700,53.323056640625,-0.7715222239494324,1.6716314554214478,-1.117653489112854
1780853190098576100,53.371576171875,1.2537999153137207,-0.25702136754989624,0.3782016634941101
1780853190147095600,53.42009545898438,1.2400555610656738,-0.44730573892593384,0.2966512143611908
1780853190195615000,53.46861499023437,0.7229584455490112,-0.578336238861084,1.7189735174179077
1780853190244134400,53.51713452148437,-0.010384701192378998,-0.7416661977767944,1.0064760446548462
1780853190292653800,53.56565380859375,0.548480212688446,-1.804800033569336,0.6294198036193848
1780853190341173200,53.61417333984375,-0.650189220905304,-0.5439751148223877,-0.18440480530261993
1780853190389692700,53.662692626953124,-0.882317841053009,0.150196373462677,-0.428139865398407
1780853190438212000,53.711212158203125,-0.2219729870557785,-0.385990172624588,0.07757982611656189
1780853190486731500,53.7597314453125,0.528092622756958,-0.43745553493499756,-0.011606430634856224
1780853190535251000,53.8082509765625,0.8415426015853882,-0.39102980494499207,0.7812960743904114
1780853190583770400,53.856770263671876,-0.14569124579429626,-0.693026065826416,0.32597270607948303
1780853190632289800,53.90528979492188,-0.6194932460784912,-0.8691078424453735,-0.7841212749481201
1780853190680809500,53.9538095703125,-1.2551743984222412,-0.539851725101471,-0.41867145895957947
1780853190729328600,54.00232861328125,-0.6945532560348511,0.19624030590057373,-0.4116465151309967
1780853190777848000,54.05084814453125,-0.043982263654470444,0.45967575907707214,-0.5435932874679565
1780853190826367500,54.09936743164062,0.6052906513214111,1.5974878072738647,-1.0109049081802368
1780853190874887000,54.147886962890624,0.3727802336215973,2.9856016635894775,-0.9134719371795654
1780853190923406300,54.19640625,-0.1971566081047058,3.219791889190674,0.6807324290275574
1780853190971925800,54.24492578125,-0.1178968995809555,0.5835285782814026,0.4298197329044342
1780853191020445200,54.293445068359375,-0.09964732080698013,0.48243045806884766,-1.0261764526367188
1780853191068964600,54.341964599609376,-0.6957749724388123,1.1055124998092651,-1.363373875617981
1780853191117484000,54.39048413085938,-0.4263836145401001,1.5533528327941895,-0.23762640357017517
1780853191166003500,54.43900341796875,1.1117738485336304,0.1663079410791397,0.12255474925041199
1780853191214523000,54.48752294921875,0.9563088417053223,-0.28176137804985046,0.31009024381637573
1780853191263042300,54.53604223632812,0.5814669132232666,-0.23548837006092072,1.6424627304077148
1780853191311561700,54.58456176757812,0.2813795804977417,-0.7053961157798767,0.9193515181541443
1780853191360081200,54.6330810546875,0.7024945020675659,-2.2637884616851807,0.7748056054115295
1780853191408600600,54.6816005859375,-0.5131264328956604,-1.1576651334762573,-0.12789981067180634
1780853191457120000,54.7301201171875,-0.845894992351532,-0.39675667881965637,-0.4770853817462921
1780853191505639400,54.778639404296875,-0.034208428114652634,-1.1422407627105713,0.013515383005142212
1780853191554158800,54.827158935546876,0.7596103549003601,-1.0326669216156006,-0.0513126403093338
1780853191602678300,54.87567822265625,0.8227584958076477,-0.446007639169693,0.24106250703334808
1780853191651197700,54.92419775390625,0.030466880649328232,-0.593684196472168,0.24701844155788422
1780853191699717000,54.97271704101563,-0.33253952860832214,-1.0862703323364258,-0.625907301902771
1780853191748236500,55.02123657226562,-0.8591049313545227,-0.6968439817428589,-0.24289511144161224
1780853191796756000,55.069755859375,-0.7465531229972839,0.4960985481739044,-0.5949822664260864
1780853191845275400,55.118275390625,-0.1153007298707962,0.28435754776000977,0.02237292192876339
1780853191893794800,55.166794921875,0.3295615613460541,1.4469859600067139,-0.7867174744606018
1780853191942314200,55.215314208984374,0.26358816027641296,2.4430010318756104,-1.2512801885604858
1780853191990833700,55.263833740234375,0.17256930470466614,3.684201955795288,0.6097193956375122
1780853192039352800,55.312352783203124,0.0524580143392086,0.249920055270195,1.1673625707626343
1780853192087872300,55.360872314453125,-0.2683987021446228,0.5883391499519348,-0.5759690999984741
1780853192136392000,55.40939184570313,-0.7386118769645691,1.282281517982483,-1.4791326522827148
1780853192184911400,55.45791137695313,-0.6630173325538635,1.9190317392349243,-0.7311288118362427
1780853192233430800,55.5064306640625,1.2666281461715698,0.03130681812763214,0.6979893445968628
1780853192281950200,55.5549501953125,0.8998038172721863,-0.3745364546775818,0.49915286898612976
1780853192330469600,55.6034697265625,0.18402300775051117,0.06101011857390404,0.9586759209632874
1780853192378988800,55.65198876953125,0.5460367798805237,-1.3022873401641846,1.4060579538345337
1780853192427508200,55.70050830078125,0.7333431839942932,-2.396498918533325,0.6886736750602722
1780853192476027600,55.74902758789062,-0.7272345423698425,-0.8310815095901489,-0.4635699987411499
1780853192524547000,55.797547119140624,-0.9134719371795654,-0.37316203117370605,-0.8930842876434326
1780853192573066500,55.84606640625,-0.07964149862527847,-0.9145409464836121,-0.033597562462091446
1780853192621586000,55.8945859375,0.7749583125114441,-0.8303179740905762,0.25961753726005554
1780853192670105300,55.943105224609376,0.8463531732559204,-0.4318050444126129,0.7986293435096741
1780853192718624800,55.99162475585938,-0.021685699000954628,-0.46051567792892456,0.20769402384757996
1780853192767144200,56.04014428710938,-0.45616328716278076,-0.9995275139808655,-0.9688315391540527
1780853192815663600,56.08866357421875,-0.5553524494171143,-0.9042325615882874,-0.8392518758773804
1780853192864182800,56.13718286132813,-0.742429792881012,0.21510076522827148,-0.25098907947540283
1780853192912702200,56.1857021484375,-0.4243983030319214,0.26396992802619934,0.04505127668380737
1780853192961221600,56.2342216796875,0.22815799713134766,1.1845431327819824,-0.16791145503520966
1780853193009741000,56.28274096679687,0.40378162264823914,1.9302563667297363,-0.7517454624176025
1780853193058260500,56.33126049804687,0.06406444311141968,2.344651699066162,0.32360562682151794
1780853193106780000,56.37977978515625,-0.022067490965127945,0.5731438994407654,1.0026581287384033
1780853193155299300,56.42829931640625,-0.10125083476305008,0.46479174494743347,-1.1777472496032715
1780853193203818800,56.47681884765625,-0.711962878704071,0.6659952998161316,-1.592448115348816
1780853193252338200,56.525338134765626,-0.8701004981994629,2.054032802581787,-0.7467058300971985
1780853193300857600,56.57385766601563,1.2925899028778076,-0.2886336147785187,0.036422811448574066
1780853193349377000,56.622376953125,1.059163212776184,-0.8540652990341187,0.2865719497203827
1780853193397896400,56.670896484375,0.7049379348754883,-0.5604684352874756,2.1416919231414795
1780853193446415600,56.71941552734375,0.04413498193025589,-0.8414662480354309,0.9541707634925842
1780853193494935000,56.76793505859375,0.4902953505516052,-2.069075345993042,0.4098902642726898
1780853193543454500,56.81645434570312,-0.4528798758983612,-1.006170630455017,0.12202023714780807
1780853193591974000,56.86497387695312,-0.6931788325309753,-0.38614290952682495,-0.7000510096549988
1780853193640493300,56.913493408203124,-0.025732679292559624,-1.128801703453064,0.03932442143559456
1780853193689012700,56.9620126953125,0.7183006405830383,-1.0067814588546753,0.0665842592716217
1780853193737532200,57.0105322265625,0.9022472500801086,-0.4949531853199005,0.6533962488174438
1780853193786051600,57.059051513671875,-0.034666575491428375,-0.6282744407653809,-0.20074543356895447
1780853193834571000,57.107571044921876,-0.610559344291687,-1.1035271883010864,-0.8547525405883789
1780853193883090400,57.15609033203125,-1.1294889450073242,-0.6011673212051392,-0.31207555532455444
1780853193931609600,57.204609619140626,-0.42966702580451965,0.0844520553946495,-0.6676751971244812
1780853193980129000,57.25312890625,0.0772743970155716,0.3935496211051941,0.09720385819673538
1780853194028648400,57.3016484375,0.5558869242668152,1.2035562992095947,-0.6425533890724182
1780853194077167900,57.35016796875,0.3341430425643921,2.334190607070923,-0.6498837471008301
1780853194125687300,57.39868725585937,0.0243582334369421,2.377943754196167,1.133001446723938
1780853194174206700,57.44720678710937,-0.1740964651107788,0.5676460862159729,0.884379506111145
1780853194222726100,57.49572607421875,-0.2407570779323578,0.7857248187065125,-1.2978585958480835
1780853194271245300,57.54424536132812,-0.5529089570045471,0.7333431839942932,-1.552207350730896
1780853194319764700,57.5927646484375,-0.1340848207473755,1.6300926208496094,-0.12705987691879272
1780853194368284200,57.6412841796875,1.16789710521698,-0.1037706509232521,-0.22624903917312622
1780853194416803600,57.689803466796874,0.7996219992637634,-0.7736602425575256,0.7412080764770508
1780853194465323000,57.738322998046876,0.4173733592033386,-0.27198755741119385,1.8277074098587036
1780853194513842400,57.78684252929688,0.21441353857517242,-1.474169373512268,1.0034217834472656
1780853194562361900,57.83536181640625,0.4035525321960449,-1.7402009963989258,0.628045380115509
1780853194610881000,57.88388110351563,-0.5982657074928284,-0.5207622051239014,-0.43608108162879944
1780853194659400400,57.932400390625,-0.813671886920929,-0.1778380125761032,-0.6334667801856995
1780853194707920000,57.980919921875,0.0461202897131443,-0.8296307325363159,-0.16485713422298431
1780853194756439300,58.02943920898438,0.975092887878418,-0.6453786492347717,0.10911571979522705
1780853194804958700,58.07795874023437,0.8862884640693665,-0.37988153100013733,0.43661558628082275
1780853194853478100,58.12647802734375,-0.37697991728782654,-0.4692968726158142,-0.12621992826461792
1780853194901997600,58.17499755859375,-0.7040216326713562,-0.7498365044593811,-0.5764272809028625
1780853194950517000,58.22351708984375,-1.0097594261169434,-0.5719221234321594,-0.5788707137107849
1780853194999036200,58.2720361328125,-0.24342961609363556,0.11759147047996521,-0.24182608723640442
1780853195047555600,58.3205556640625,0.10476330667734146,0.2747364342212677,-0.09521854668855667
1780853195096075000,58.369074951171875,0.30634868144989014,1.1880556344985962,-0.8519272804260254
1780853195144594400,58.417594482421876,0.38499751687049866,2.0446407794952393,-1.151021957397461
1780853195193113900,58.46611376953125,0.32612544298171997,2.4065017700195312,-0.21746785938739777
1780853195241633300,58.51463330078125,-0.07192932814359665,0.8235220909118652,1.218522548675537
1780853195290152400,58.56315234375,-0.21227550506591797,0.31719154119491577,-0.3381900191307068
1780853195338671900,58.611671875,-0.4479929506778717,0.9021708965301514,-1.3518437147140503
1780853195387191300,58.66019140625,-0.7827468514442444,2.0082180500030518,-0.9516509771347046
1780853195435710700,58.70871069335937,1.041066288948059,0.05940660089254379,0.37178757786750793
1780853195484230100,58.75723022460937,0.8063415288925171,-0.21548254787921906,0.5013672709465027
1780853195532749300,58.80574926757812,0.418366014957428,-0.2023489624261856,1.9059745073318481
1780853195581268700,58.85426879882812,0.1737910360097885,-1.0727548599243164,1.1659882068634033
1780853195629788200,58.9027880859375,0.9382883310317993,-2.2896738052368164,0.42340564727783203
1780853195678307600,58.9513076171875,-0.4182896614074707,-0.9503529071807861,-0.020998476073145866
1780853195726827000,58.999826904296874,-1.0193805694580078,-0.3012326955795288,-0.943786084651947
1780853195775346400,59.048346435546875,-0.1539379209280014,-1.00052011013031,-0.09407317638397217
1780853195823865600,59.096865478515625,0.7979421019554138,-1.1465167999267578,0.3459785282611847
1780853195872385000,59.145385009765626,1.0123556852340698,-0.7472403645515442,0.670576810836792
1780853195920904400,59.19390454101563,0.05345066636800766,-0.6463713049888611,-0.4168388545513153
1780853195969424000,59.242423828125,-0.672638475894928,-1.1727839708328247,-0.6575195789337158
1780853196017943000,59.29094311523438,-1.1425461769104004,-0.8593340516090393,-0.13645191490650177
1780853196066462500,59.33946240234375,-0.58039790391922,-0.10560324788093567,-0.25755587220191956
1780853196114982000,59.38798193359375,0.07635809481143951,0.22204934060573578,-0.19730933010578156
1780853196163501300,59.43650122070313,0.3477347791194916,1.441717267036438,-0.634230375289917
1780853196212020700,59.48502075195312,0.24228423833847046,2.4124577045440674,-0.49075350165367126
1780853196260540000,59.53353979492187,0.03520108386874199,2.521115303039551,0.8873574733734131
1780853196309059300,59.58205932617187,-0.07964149862527847,0.7899245023727417,0.7523563504219055
1780853196357578800,59.630578857421874,-0.17088942229747772,0.6446150541305542,-1.2886955738067627
1780853196406098000,59.67909790039062,-0.7210494875907898,0.8005383014678955,-1.4901282787322998
1780853196454617300,59.727617431640624,-0.5540543794631958,1.9066617488861084,-0.3044397234916687
1780853196503136800,59.77613671875,1.2172244787216187,-0.06666062027215958,-0.16814053058624268
1780853196551656200,59.82465625,1.0836740732192993,-0.8418480157852173,0.6007091403007507
1780853196600175600,59.873175537109375,0.7345649003982544,-0.45761406421661377,1.8896338939666748
1780853196648694800,59.92169482421875,0.1695149689912796,-1.2772419452667236,0.9419534802436829
1780853196697214200,59.970214111328126,0.5809323787689209,-1.9933280944824219,0.47609272599220276
1780853196745733600,60.01873364257813,-0.5696313977241516,-0.6993638277053833,-0.22533275187015533
1780853196794253000,60.06725317382813,-0.8240565657615662,-0.4260781705379486,-0.7318159937858582
1780853196842772500,60.1157724609375,-0.043982263654470444,-1.151403784751892,-0.04543306678533554
1780853196891291600,60.16429174804688,0.8100066781044006,-0.9430224895477295,0.1055268943309784
1780853196939811000,60.21281103515625,1.068937063217163,-0.47555822134017944,0.6955459117889404
1780853197036849700,60.309849609375,-0.49976375699043274,-0.9718095064163208,-0.8268818259239197
1780853197085369300,60.35836938476562,-0.7903063297271729,-0.9950223565101624,-0.20257803797721863
1780853197133888500,60.40688842773437,-0.7560978531837463,0.281455934047699,-0.6102539300918579
1780853197182408000,60.455407958984374,-0.247629314661026,0.21029019355773926,0.02306014485657215
1780853197230927400,60.50392724609375,0.406530499458313,1.4415645599365234,-0.5102248191833496
1780853197279446500,60.552446533203124,0.4641808867454529,2.1946845054626465,-0.8752928972244263
1780853197327966000,60.600966064453125,0.06467530876398087,2.711552381515503,0.5298488140106201
1780853197376485400,60.6494853515625,-0.35880669951438904,1.0888664722442627,1.0483202934265137
1780853197425004800,60.6980048828125,-0.23304490745067596,0.9925025701522827,-0.9938006401062012
1780853197473524000,60.74652392578125,-0.4699840843677521,0.9179770350456238,-1.3053417205810547
1780853197522043400,60.79504345703125,-0.6907353401184082,1.790902853012085,-1.26021409034729
1780853197570562800,60.84356274414063,1.1990512609481812,-0.15225805342197418,0.5697841048240662
1780853197619082000,60.89208203125,1.047785758972168,-0.5054906010627747,0.48586657643318176
1780853197667601700,60.9406015625,0.6609556674957275,-0.61201012134552,1.8782564401626587
1780853197716120800,60.98912084960938,0.25938844680786133,-1.3345868587493896,1.2144755125045776
1780853197764640300,61.03764013671875,0.376827210187912,-2.2069780826568604,0.14034618437290192
1780853197813159700,61.08615966796875,-0.6307178735733032,-0.8813251852989197,-0.11194097250699997
1780853197861678800,61.13467895507812,-0.6591231226921082,-0.6194932460784912,-0.41294458508491516
1780853197910198300,61.1831982421875,-0.05322159454226494,-1.0326669216156006,-0.03436114266514778
1780853197958717700,61.2317177734375,0.72173672914505,-0.9334777593612671,-0.04176788032054901
1780853198007237000,61.280237060546874,0.7221949100494385,-0.5163334608078003,0.4251618981361389
1780853198055756300,61.32875634765625,-0.10186170041561127,-0.856279730796814,-0.21090106666088104
1780853198152795100,61.425795166015625,-1.1020764112472534,-0.4883100390434265,-0.6186532974243164
1780853198201314300,61.474314208984374,-0.4657844007015228,0.08017600327730179,-0.11698060482740402
