time,seconds_elapsed,z,y,x
1780854539037572900,0.27657275390625,-0.06204232573509216,-0.04337882995605469,-0.046312928199768066
1780854539086477600,0.3254775390625,-0.019209176301956177,-0.013597488403320312,-0.02856987714767456
1780854539135964700,0.374964599609375,-0.01891237497329712,0.0025243759155273438,-0.016630947589874268
1780854539185451500,0.424451416015625,-0.032215416431427,-0.022553443908691406,0.011620581150054932
1780854539234938600,0.473938720703125,-0.018709301948547363,-0.0064525604248046875,-0.0030405521392822266
1780854539284148500,0.5231484375,-0.009835690259933472,-0.028772354125976562,0.013102829456329346
1780854539332831500,0.57183154296875,-0.017770826816558838,-0.006305694580078125,0.009740293025970459
1780854539381348000,0.62034814453125,-0.01324114203453064,-0.0058994293212890625,0.008234858512878418
1780854539429864700,0.66886474609375,-0.0031793415546417236,-0.023774147033691406,0.01596975326538086
1780854539478381600,0.717381591796875,0.0020166337490081787,-0.04639625549316406,0.01575791835784912
1780854539526898400,0.7658984375,0.05983477830886841,-0.009146690368652344,0.13302761316299438
1780854539575415000,0.8144150390625,0.05408331751823425,-0.02658843994140625,0.04744845628738403
1780854539623931600,0.862931640625,0.017769813537597656,-0.008853912353515625,0.028287053108215332
1780854539672448300,0.9114482421875,0.02528730034828186,0.014281272888183594,0.034758687019348145
1780854539720965000,0.959965087890625,-0.01938435435295105,-0.015522956848144531,-0.0063114166259765625
1780854539769481700,1.008481689453125,0.04960784316062927,-0.015375137329101562,0.0407329797744751
1780854539817998300,1.056998291015625,0.003621011972427368,-0.0063877105712890625,0.04213607311248779
1780854539866515000,1.105514892578125,0.05176851153373718,0.012345314025878906,0.04854106903076172
1780854539915031800,1.15403173828125,0.042975276708602905,-0.0070629119873046875,0.06497544050216675
1780854539963548400,1.20254833984375,0.013467803597450256,-0.023627281188964844,0.03004133701324463
1780854540012065000,1.25106494140625,0.030840963125228882,-0.03130626678466797,0.04910355806350708
1780854540060581600,1.29958154296875,0.013847500085830688,-0.0035867691040039062,0.06834405660629272
1780854540109098500,1.348098388671875,0.05915968120098114,-0.044236183166503906,0.03909921646118164
1780854540157615000,1.396614990234375,0.011726468801498413,-0.07097625732421875,-0.00926142930984497
1780854540206131700,1.445131591796875,-0.0014870911836624146,0.06529808044433594,0.08371204137802124
1780854540254648600,1.493648681640625,0.14303705096244812,0.05701160430908203,-0.011049330234527588
1780854540303165200,1.542165283203125,0.028330281376838684,0.120574951171875,-0.1531919240951538
1780854540351682000,1.59068212890625,-0.09822279959917068,0.09802818298339844,-0.1362152099609375
1780854540400198700,1.63919873046875,-0.07153909653425217,-0.008441925048828125,-0.09261810779571533
1780854540448715300,1.68771533203125,0.10804522782564163,-0.18811511993408203,-0.04641151428222656
1780854540497232000,1.73623193359375,0.2584593892097473,-0.11263275146484375,-0.022752881050109863
1780854540545748700,1.784748779296875,0.21028678119182587,0.2432537078857422,-0.12788748741149902
1780854540594265300,1.833265380859375,0.27563953399658203,0.1289215087890625,-0.015414834022521973
1780854540642782000,1.881781982421875,0.034869298338890076,0.13367557525634766,0.06107449531555176
1780854540691298600,1.930298583984375,-0.26389145851135254,0.23506736755371094,-0.134307861328125
1780854540739815400,1.9788154296875,-0.24543341994285583,-0.16065216064453125,0.28624069690704346
1780854540788332000,2.02733203125,-0.5658433437347412,0.3494453430175781,0.5038454532623291
1780854540836849000,2.075848876953125,0.40563949942588806,-0.17007827758789062,-0.012417197227478027
1780854540885365500,2.124365478515625,1.8135508298873901,-0.859858512878418,-1.4154402017593384
1780854540982399000,2.22139892578125,-0.6066617369651794,0.1065816879272461,0.3081912398338318
1780854541030915600,2.26991552734375,1.3644657135009766,0.1528339385986328,0.8194012641906738
1780854541079432200,2.31843212890625,1.3874282836914062,-0.057407379150390625,1.6469812393188477
1780854541127948800,2.36694873046875,0.5164334774017334,-1.2510576248168945,-0.07821023464202881
1780854541176465700,2.415465576171875,0.9942482709884644,0.5277748107910156,0.6084240674972534
1780854541224982300,2.463982177734375,1.6578890085220337,0.869898796081543,0.7551693916320801
1780854541273499000,2.512498779296875,2.014216899871826,0.20969486236572266,0.13425207138061523
1780854541322015500,2.561015380859375,1.1400575637817383,-0.8400392532348633,-0.007191479206085205
1780854541370532400,2.609532470703125,2.1245250701904297,-1.2810087203979492,-0.17619425058364868
1780854541419049000,2.658049072265625,2.6189610958099365,-1.4657354354858398,1.4461967945098877
1780854541467565600,2.706565673828125,0.9473069906234741,-1.4926929473876953,0.1141136884689331
1780854541516082200,2.755082275390625,-0.5584118962287903,-0.13455772399902344,-0.6111946702003479
1780854541564599000,2.80359912109375,-1.2095283269882202,1.8562407493591309,-0.7436079978942871
1780854541613116000,2.852115966796875,-1.965199589729309,0.23727893829345703,-0.5660055875778198
1780854541661632500,2.900632568359375,-2.1209917068481445,-1.474710464477539,1.9467343091964722
1780854541710149000,2.949149169921875,-1.745966911315918,-0.7398529052734375,1.35128915309906
1780854541758665700,2.997665771484375,-1.0805442333221436,0.5439634323120117,-0.4753381907939911
1780854541807182600,3.0461826171875,0.07767713069915771,1.0048799514770508,-0.5101242065429688
1780854541855699200,3.09469921875,-0.6435902118682861,1.0499029159545898,-1.0614662170410156
1780854541904215800,3.1432158203125,-0.6640313863754272,1.5862321853637695,-1.0730640888214111
1780854541952732400,3.191732421875,2.314685821533203,2.3883957862854004,0.9668073654174805
1780854542001249300,3.240249267578125,1.8127553462982178,0.6348934173583984,1.823427677154541
1780854542049766000,3.288765869140625,0.8212015628814697,-1.344334602355957,1.9395709037780762
1780854542098282500,3.337282470703125,2.1320817470550537,-3.852572441101074,3.230886936187744
1780854542146799000,3.385799072265625,-1.0254496335983276,-4.902918815612793,-0.9888324737548828
1780854542195315700,3.434315673828125,-0.5246128439903259,0.2779073715209961,-4.465677261352539
1780854542243832600,3.48283251953125,0.2221369743347168,2.104428291320801,-1.086930274963379
1780854542292349200,3.53134912109375,-2.824268341064453,-2.334132194519043,-1.2599565982818604
1780854542340865800,3.57986572265625,-1.0456751585006714,0.6158332824707031,-1.7451581954956055
1780854542389382700,3.628382568359375,-0.09925699234008789,1.517155647277832,-2.174058198928833
1780854542437899500,3.6768994140625,1.0182417631149292,0.9137468338012695,-0.41335970163345337
1780854542486416100,3.725416015625,-0.4275798797607422,0.9329490661621094,0.47338998317718506
1780854542534932700,3.7739326171875,-0.18911242485046387,1.1474409103393555,0.9170385599136353
1780854542631966200,3.87096630859375,0.5742595791816711,2.376068592071533,1.409014105796814
1780854542680482800,3.91948291015625,2.2773962020874023,0.2325296401977539,-0.7927355766296387
1780854542728999400,3.96799951171875,1.3429641723632812,-2.077342987060547,-3.4642436504364014
1780854542777516000,4.01651611328125,3.0859861373901367,-0.9171047210693359,-1.376111388206482
1780854542826032600,4.06503271484375,1.9825316667556763,-2.992015838623047,2.3154211044311523
1780854542874549500,4.113549560546875,-1.3099207878112793,-1.7701301574707031,2.5663533210754395
1780854542923066000,4.162066162109375,-2.5490965843200684,1.9174842834472656,-0.3512149751186371
1780854542971582700,4.210582763671875,-1.0759145021438599,-0.5061101913452148,-2.5927529335021973
1780854543020099300,4.259099365234375,-2.521693706512451,-4.156336784362793,2.48065185546875
1780854543068616200,4.3076162109375,-3.2185111045837402,-0.4637737274169922,3.329287528991699
1780854543117132800,4.3561328125,-0.7134909629821777,1.841231346130371,-1.5926624536514282
1780854543165649400,4.4046494140625,1.3583381175994873,2.655313491821289,-2.107428789138794
1780854543214166000,4.453166015625,-0.9360177516937256,2.0405192375183105,-1.1106550693511963
1780854543262683000,4.501682861328125,0.6787881851196289,2.578249931335449,0.12280169129371643
1780854543311199500,4.550199462890625,1.516674518585205,0.7235298156738281,2.9802145957946777
1780854543359716000,4.598716064453125,0.8655378818511963,-2.8071794509887695,1.1857165098190308
1780854543408232700,4.647232666015625,2.1790478229522705,-3.4410934448242188,3.0058889389038086
1780854543456749300,4.695749267578125,-1.0157592296600342,-5.189276695251465,-0.34828445315361023
1780854543505266200,4.74426611328125,-2.050032377243042,2.5498266220092773,-4.102889537811279
1780854543553782800,4.79278271484375,-0.4865109920501709,-0.3763303756713867,-1.733299970626831
1780854543602299400,4.84129931640625,-1.7893880605697632,-2.863964080810547,-2.6525778770446777
1780854543650816000,4.88981591796875,-1.318508267402649,1.71551513671875,-3.0148279666900635
1780854543699332900,4.938332763671875,0.8924516439437866,1.8154726028442383,-0.9699940085411072
1780854543747849500,4.986849365234375,1.4374033212661743,2.697782039642334,0.8276042342185974
1780854543796366000,5.035365966796875,-0.3773059844970703,1.1013565063476562,1.4863513708114624
1780854543844882700,5.083882568359375,-0.3823191821575165,0.5557165145874023,1.938854694366455
1780854543893399600,5.132399658203125,1.9302469491958618,2.0440797805786133,1.5205079317092896
1780854543941916400,5.18091650390625,3.2280211448669434,-0.6109418869018555,-2.0996904373168945
1780854543990433000,5.22943310546875,2.2124252319335938,-1.680455207824707,-3.931685209274292
1780854544038949600,5.27794970703125,0.7541961073875427,-3.2704267501831055,0.3498336672782898
1780854544087466200,5.32646630859375,0.13942909240722656,-3.2643184661865234,2.4154610633850098
1780854544135983000,5.374983154296875,-2.187256097793579,2.0187435150146484,0.6772048473358154
1780854544184499700,5.423499755859375,-1.3795239925384521,-0.7164745330810547,-0.051736533641815186
1780854544281533000,5.520532958984375,-2.9940762519836426,-0.5361089706420898,0.6204219460487366
1780854544330049800,5.5690498046875,-1.687117338180542,1.6227989196777344,-1.5098127126693726
1780854544378566400,5.61756640625,0.9467651844024658,3.347376823425293,-1.289910078048706
1780854544427083000,5.6660830078125,-0.151342511177063,2.975508689880371,-0.5572212934494019
1780854544475599600,5.714599609375,1.5008721351623535,3.728428363800049,0.6792858839035034
1780854544524116200,5.7631162109375,0.41197657585144043,-1.1582555770874023,2.5824804306030273
1780854544572633000,5.811633056640625,1.3882720470428467,-3.699748992919922,1.5996830463409424
1780854544621149700,5.860149658203125,2.6025495529174805,-3.9910669326782227,4.845760345458984
1780854544669666300,5.908666259765625,-1.213303565979004,-3.3057126998901367,-2.4677586555480957
1780854544718183000,5.957182861328125,-1.1501567363739014,2.929048538208008,-4.303379058837891
1780854544766699800,6.00569970703125,-0.7839524745941162,-2.0202369689941406,-1.3025825023651123
1780854544815216400,6.05421630859375,-1.8992184400558472,-2.00876522064209,-2.9001922607421875
1780854544863733000,6.10273291015625,-1.041035532951355,1.987043857574463,-3.0508065223693848
1780854544912249600,6.15124951171875,1.3754347562789917,2.333922863006592,-0.49370110034942627
1780854544960766500,6.199766357421875,0.5080314874649048,2.998289108276367,0.8816075921058655
1780854545009283000,6.248282958984375,-1.4814022779464722,0.8376140594482422,1.6095895767211914
1780854545057799700,6.296799560546875,0.33460181951522827,1.0347700119018555,1.729972004890442
1780854545106316300,6.34531640625,2.452974796295166,-0.14918804168701172,-0.6937080025672913
1780854545154833000,6.3938330078125,4.115713119506836,-0.12754535675048828,-3.548905849456787
1780854545203349800,6.442349853515625,2.156463623046875,-2.5515308380126953,-1.307685375213623
1780854545251866400,6.490866455078125,1.505707025527954,-3.8298349380493164,2.8195834159851074
1780854545300383000,6.539383056640625,-1.461546540260315,-0.45013904571533203,2.247514247894287
1780854545348899600,6.587899658203125,-1.955831527709961,1.9998698234558105,-0.9445565342903137
1780854545397416200,6.636416259765625,-1.017462968826294,-3.963730812072754,-0.750043511390686
1780854545445932800,6.684932861328125,-3.6217098236083984,-2.477301597595215,3.0190036296844482
1780854545494449400,6.733449462890625,-3.9498093128204346,0.7789449691772461,1.0752136707305908
1780854545542966000,6.781966064453125,1.0500202178955078,3.1155238151550293,-1.4569590091705322
1780854545591483000,6.83048291015625,2.222543239593506,4.047711372375488,-2.1675374507904053
1780854545639999500,6.87899951171875,-1.109296441078186,2.683835983276367,-1.4311978816986084
1780854545688516000,6.92751611328125,1.678743839263916,2.0982818603515625,2.3878419399261475
1780854545737032700,6.97603271484375,0.49741506576538086,-3.710808753967285,3.0072591304779053
1780854545785549300,7.02454931640625,1.9906551837921143,-3.724252700805664,2.602513313293457
1780854545834066200,7.073066162109375,1.837276577949524,-3.9609498977661133,0.8608846068382263
1780854545931099400,7.170099365234375,-1.2007349729537964,1.4247112274169922,-1.6902090311050415
1780854545979616000,7.218615966796875,-1.595029592514038,-4.163383483886719,-1.0732741355895996
1780854546028132900,7.2671328125,-1.5068718194961548,0.9734487533569336,-2.709146738052368
1780854546076649500,7.3156494140625,0.8914061784744263,2.100919723510742,-1.2299433946609497
1780854546125166000,7.364166015625,1.5195525884628296,2.966083526611328,0.4130781888961792
1780854546173682700,7.4126826171875,-0.9983503818511963,2.338675022125244,1.4296976327896118
1780854546222199300,7.46119921875,-0.8229050636291504,1.0508785247802734,1.6260316371917725
1780854546270716200,7.509716064453125,2.652909278869629,1.2339468002319336,0.4039260745048523
1780854546319232800,7.558232666015625,4.340759754180908,-0.3398714065551758,-1.854315996170044
1780854546367749400,7.606749267578125,1.468833565711975,-3.6225481033325195,-2.2599353790283203
1780854546416266000,7.655265869140625,0.5476588606834412,-4.2050628662109375,2.2877821922302246
1780854546464782800,7.703782958984375,-1.2466435432434082,0.07454299926757812,1.4699053764343262
1780854546513299500,7.752299560546875,-0.8849475383758545,2.4121084213256836,-1.2672741413116455
1780854546561816000,7.800816162109375,-1.4489085674285889,-5.515490531921387,0.9030027985572815
1780854546610332700,7.849332763671875,-4.319924831390381,-1.415238380432129,3.1618692874908447
1780854546658849300,7.897849365234375,-3.3092095851898193,1.7594985961914062,-0.5557676553726196
1780854546707366000,7.946365966796875,0.6590001583099365,3.2946715354919434,-1.3103573322296143
1780854546755882500,7.994882568359375,1.557636022567749,3.4425573348999023,-0.991000771522522
1780854546804399000,8.043399169921875,-0.28731441497802734,3.1657700538635254,0.15395021438598633
1780854546852915700,8.091915771484375,1.7318956851959229,0.4881010055541992,3.6274142265319824
1780854546901432600,8.1404326171875,1.3699333667755127,-4.458600997924805,2.6528027057647705
1780854546949949200,8.18894921875,1.3421456813812256,-4.322148323059082,2.6013569831848145
1780854546998465800,8.2374658203125,-1.3919403553009033,-2.717926025390625,-4.663345813751221
1780854547046982400,8.285982421875,-0.7278516292572021,1.5769996643066406,-1.7695974111557007
1780854547095499300,8.334499267578124,-0.827796459197998,-3.191887855529785,-1.4002208709716797
1780854547144016000,8.383015869140625,-2.6812193393707275,-0.18367290496826172,-4.243259906768799
1780854547192532500,8.431532470703125,-0.24226224422454834,2.2663540840148926,-2.549715042114258
1780854547241049000,8.480049072265626,2.2282590866088867,3.503403663635254,-0.12852820754051208
1780854547289566000,8.52856591796875,0.26574206352233887,2.95279598236084,0.8074339628219604
1780854547338082300,8.577082275390625,-1.3635978698730469,-0.17642974853515625,2.051360607147217
1780854547386599000,8.625598876953125,1.3277060985565186,0.6508092880249023,0.9895628690719604
1780854547435115500,8.674115478515626,3.353806495666504,0.6156997680664062,-0.9014776945114136
1780854547532149000,8.77114892578125,-0.723499596118927,-5.727994918823242,0.10659345239400864
1780854547580665600,8.81966552734375,0.029094457626342773,-0.6641855239868164,2.045192241668701
1780854547629182200,8.86818212890625,-1.3420015573501587,2.3904685974121094,-0.6008775234222412
1780854547677698800,8.91669873046875,-0.595341682434082,-3.3918867111206055,-1.2442653179168701
1780854547726215700,8.965215576171875,-4.24495792388916,-5.056507110595703,3.558204174041748
1780854547774732300,9.013732177734376,-3.699146270751953,0.7206192016601562,1.7161777019500732
1780854547823249000,9.062248779296874,0.16262567043304443,2.5958218574523926,-1.6833360195159912
1780854547871765500,9.110765625,1.116445779800415,4.021133899688721,-2.519447088241577
1780854547920281900,9.15928173828125,0.222206711769104,3.813058853149414,-1.484370231628418
1780854547968798700,9.207798828125,1.7240941524505615,2.930624008178711,2.3855128288269043
1780854548017315300,9.2563154296875,-0.5348796844482422,-4.693474769592285,2.252441644668579
1780854548065832000,9.30483203125,2.666834831237793,-2.2227067947387695,2.6354117393493652
1780854548114348500,9.3533486328125,3.530902624130249,-4.401547431945801,1.8804434537887573
1780854548162865400,9.401865478515624,-3.0512478351593018,-1.8993806838989258,-6.39690637588501
1780854548211382000,9.450382080078125,-1.9514952898025513,2.2771425247192383,-0.35198476910591125
1780854548259898600,9.498898681640625,-0.7738328576087952,-3.1068954467773438,-1.869900107383728
1780854548308415200,9.547415283203126,-1.5480343103408813,0.6880636215209961,-3.8307394981384277
1780854548356932000,9.59593212890625,0.3541218042373657,2.2607107162475586,-1.1774134635925293
1780854548405448400,9.644448486328125,1.9628791809082031,3.2796244621276855,0.5644593834877014
1780854548453965000,9.692965087890625,-1.3749008178710938,1.603118896484375,1.019113302230835
1780854548502481700,9.741481689453124,-0.6156891584396362,0.7502384185791016,1.8106316328048706
1780854548550998300,9.789998291015625,2.1701571941375732,1.0090084075927734,0.583763837814331
1780854548599515100,9.83851513671875,4.250126838684082,-0.075469970703125,-2.8219525814056396
1780854548648031700,9.88703173828125,3.887493133544922,-2.0684032440185547,-0.3824194073677063
1780854548696548400,9.93554833984375,0.690316915512085,-5.212214469909668,2.906599521636963
1780854548745065000,9.98406494140625,-1.6135824918746948,-1.3003559112548828,1.5934736728668213
1780854548793581600,10.03258154296875,-1.3031055927276611,3.021963119506836,-2.3667752742767334
1780854548842098200,10.08109814453125,-0.9096425771713257,-2.17425537109375,-2.4302923679351807
1780854548890614800,10.12961474609375,-3.9595086574554443,-4.007493019104004,4.304379463195801
1780854548939131400,10.17813134765625,-3.4698710441589355,0.7532930374145508,2.3532960414886475
1780854548987648000,10.22664794921875,0.25307607650756836,2.7198052406311035,-1.2332764863967896
1780854549036164900,10.275164794921874,1.6998370885849,4.01681661605835,-1.9671528339385986
1780854549084681500,10.323681396484375,-0.396337628364563,3.4054784774780273,-0.8124730587005615
1780854549181714700,10.420714599609376,-0.4850510358810425,-4.369546890258789,2.6846230030059814
1780854549230231300,10.469231201171874,1.9859751462936401,-3.4386301040649414,2.087135076522827
1780854549278748000,10.517747802734375,0.4169173240661621,-6.48328971862793,-0.6604979038238525
1780854549327264500,10.566264404296875,-2.3914036750793457,2.672407627105713,-4.998259544372559
1780854549375781000,10.614781005859374,-0.1254211664199829,-0.23182201385498047,-0.43700021505355835
1780854549424298000,10.663298095703125,-1.8320552110671997,-3.515054702758789,-2.0071754455566406
1780854549472814600,10.711814697265625,-1.408783197402954,2.3143348693847656,-2.4715185165405273
1780854549521331000,10.7603310546875,2.6772260665893555,2.2518386840820312,-0.6419668793678284
1780854549569847600,10.80884765625,0.6196978092193604,2.9452948570251465,0.292309045791626
1780854549618364200,10.8573642578125,-2.4126319885253906,1.1711139678955078,1.274609088897705
1780854549666881000,10.905881103515625,0.8485828638076782,1.3553600311279297,1.9549955129623413
1780854549715397600,10.954397705078126,2.6933276653289795,1.0092296600341797,0.3867553472518921
1780854549763914200,11.002914306640625,3.3968513011932373,-0.4954395294189453,-2.84251070022583
1780854549812430800,11.051430908203125,3.6856565475463867,-2.7292394638061523,-1.21724271774292
1780854549860947500,11.099947509765625,1.589979887008667,-3.662295341491699,2.4596915245056152
1780854549909464000,11.148464111328124,-2.0029706954956055,-0.42925357818603516,1.7485005855560303
1780854549957980700,11.196980712890625,-2.1604764461517334,1.8871774673461914,-2.1961727142333984
1780854550006497300,11.245497314453125,-1.638070821762085,-4.686847686767578,-1.961738109588623
1780854550055014000,11.294013916015626,-3.795707941055298,-3.0379648208618164,5.033672332763672
1780854550103530800,11.34253076171875,-2.1359190940856934,1.5302104949951172,1.8915719985961914
1780854550152047000,11.391047119140625,1.091249942779541,2.797935962677002,-1.5642690658569336
1780854550200563700,11.439563720703125,0.7392309904098511,3.9432764053344727,-2.050196409225464
1780854550249080300,11.488080322265626,0.4984729290008545,3.918272018432617,-0.3894723653793335
1780854550297597200,11.53659716796875,0.9566559791564941,1.828664779663086,3.2418394088745117
1780854550346113800,11.58511376953125,0.5025628805160522,-4.285500526428223,1.5276464223861694
1780854550394630100,11.633630126953125,3.9596476554870605,-2.5981664657592773,3.7256157398223877
1780854550443146800,11.682146728515624,-0.36167776584625244,-3.4920387268066406,-1.2281359434127808
1780854550491663400,11.730663330078125,-3.669883966445923,-2.313579559326172,-5.440699100494385
1780854550540180200,11.77918017578125,-0.9463571310043335,0.0125885009765625,-0.6587274074554443
1780854550588696800,11.82769677734375,-0.9691410660743713,-1.9348316192626953,-3.8847124576568604
1780854550637213400,11.87621337890625,-0.30738794803619385,2.2739524841308594,-3.502056121826172
1780854550685729800,11.924729736328125,1.6576436758041382,2.8488473892211914,-0.1051134467124939
1780854550782763300,12.02176318359375,-1.6644036769866943,0.3828554153442383,1.620895266532898
1780854550831279900,12.07027978515625,1.7415368556976318,0.861058235168457,1.8682003021240234
1780854550879796500,12.11879638671875,1.1304384469985962,0.9401187896728516,-0.4281213879585266
1780854550928313000,12.16731298828125,7.177254676818848,0.35553550720214844,-0.5976978540420532
1780854550976829700,12.21582958984375,1.011556625366211,-4.9820451736450195,-0.1676335334777832
1780854551025346300,12.26434619140625,0.5849594473838806,-2.6824426651000977,1.654278039932251
1780854551073863000,12.31286279296875,-1.5653984546661377,2.080472469329834,0.9007799625396729
1780854551122379500,12.361379638671876,-0.26470959186553955,-0.3350334167480469,-2.221973419189453
1780854551170896100,12.409896240234374,-2.84928035736084,-5.630655288696289,1.2360053062438965
1780854551219412700,12.458412841796875,-4.775637626647949,-0.6576976776123047,2.4528307914733887
1780854551267929300,12.506929443359375,-0.4790533781051636,1.9134950637817383,-0.23454341292381287
1780854551316446000,12.555446044921876,1.4695730209350586,3.634510040283203,-1.6747078895568848
1780854551364962600,12.603962646484375,-0.04448342323303223,3.969170093536377,-1.9823055267333984
1780854551413479200,12.652479248046875,1.3760879039764404,3.9014577865600586,0.48026251792907715
1780854551461995800,12.700995849609376,-0.2760862112045288,-1.783517837524414,2.8773014545440674
1780854551510512400,12.749512451171874,1.5849850177764893,-4.116843223571777,1.9102116823196411
1780854551559028700,12.79802880859375,3.165971040725708,-2.936028480529785,4.14410924911499
1780854551607545600,12.846545654296875,-1.266190528869629,-4.177484512329102,-3.667776584625244
1780854551656062200,12.895062255859376,-2.259465217590332,2.205195426940918,-3.920651912689209
1780854551704578800,12.943578857421874,-0.11862576007843018,-0.7183656692504883,-0.1981540471315384
1780854551753095400,12.992095458984375,-1.4691145420074463,-1.755812644958496,-3.5966858863830566
1780854551801612000,13.040612060546875,-0.7624331116676331,2.065770149230957,-2.548659086227417
1780854551850128600,13.089128662109376,1.4930610656738281,2.226621627807617,0.44105610251426697
1780854551898645200,13.137645263671875,-0.13111364841461182,2.359762191772461,0.7221016883850098
1780854551947161600,13.18616162109375,-1.2000877857208252,0.6076593399047852,1.5419106483459473
1780854551995678200,13.23467822265625,1.6721960306167603,1.3503055572509766,1.320887565612793
1780854552044195000,13.283195068359374,2.3947269916534424,0.45477962493896484,-1.2072569131851196
1780854552092711700,13.331711669921875,5.054421424865723,-0.3113746643066406,-1.6737849712371826
1780854552141228300,13.380228271484375,1.1509182453155518,-3.5772628784179688,-0.07587674260139465
1780854552189744600,13.42874462890625,1.1999516487121582,-2.3539505004882812,2.2580227851867676
1780854552238261500,13.477261474609374,-2.744415283203125,0.565037727355957,1.2212408781051636
1780854552286778000,13.525778076171875,-1.154212236404419,0.4859151840209961,-2.4190480709075928
1780854552383811000,13.62281103515625,-3.8189234733581543,-1.0839929580688477,3.9833996295928955
1780854552432327700,13.67132763671875,-1.9758460521697998,1.5927915573120117,0.22361372411251068
1780854552480844500,13.719844482421875,1.5562427043914795,3.203889846801758,-1.7654668092727661
1780854552529361200,13.768361083984376,0.16104090213775635,3.5237793922424316,-2.0438106060028076
1780854552577877500,13.81687744140625,1.633751392364502,3.500833034515381,0.42362913489341736
1780854552626394000,13.86539404296875,0.11733675003051758,-0.40167808532714844,4.245735168457031
1780854552674910700,13.91391064453125,1.2432246208190918,-4.445372581481934,1.4794691801071167
1780854552723427300,13.96242724609375,3.321284055709839,-2.7687883377075195,3.2056620121002197
1780854552771944000,14.01094384765625,-1.3322932720184326,-3.2044153213500977,-3.0991742610931396
1780854552820460500,14.05946044921875,-3.00895357131958,1.6603517532348633,-2.6848981380462646
1780854552868977200,14.10797705078125,-0.5307400226593018,-2.0169124603271484,-1.029391884803772
1780854552917493800,14.15649365234375,-1.1847970485687256,-1.0426998138427734,-4.518188953399658
1780854552966010400,14.20501025390625,-0.06025099754333496,1.8740530014038086,-2.6146938800811768
1780854553014527000,14.25352685546875,1.908527135848999,2.6956167221069336,0.43729159235954285
1780854553063043300,14.302043212890625,0.14687049388885498,2.073237419128418,1.0921673774719238
1780854553111560200,14.350560302734374,-1.3334581851959229,0.3695259094238281,1.5794843435287476
1780854553160076800,14.399076904296875,1.9622544050216675,1.4330053329467773,1.9070615768432617
1780854553208593400,14.447593505859375,2.236544132232666,0.8045578002929688,-0.8123582601547241
1780854553257109800,14.49610986328125,5.400307655334473,-0.34163475036621094,-1.5027437210083008
1780854553305626600,14.544626708984374,1.7694995403289795,-4.173832893371582,1.3842523097991943
1780854553354143200,14.593143310546875,-0.10213422775268555,-1.634079933166504,2.688776731491089
1780854553402659600,14.64165966796875,-2.612858772277832,0.6613168716430664,-0.7052052617073059
1780854553451176200,14.69017626953125,-0.9115433692932129,-2.8242673873901367,-2.9234962463378906
1780854553499692800,14.73869287109375,-3.036403179168701,-4.195823669433594,3.0569472312927246
1780854553548209700,14.787209716796875,-4.145450115203857,0.21584224700927734,2.939964771270752
1780854553596726000,14.83572607421875,-0.16366910934448242,2.716987133026123,-1.6589703559875488
1780854553645242600,14.88424267578125,1.7045522928237915,3.7749714851379395,-2.4748454093933105
1780854553693759200,14.93275927734375,0.3848867416381836,4.218844413757324,-1.425464153289795
1780854553742275800,14.98127587890625,0.6319305896759033,2.3978257179260254,3.439626932144165
1780854553790792400,15.02979248046875,0.013126134872436523,-4.320799827575684,1.1288126707077026
1780854553839309000,15.07830908203125,2.7671542167663574,-1.7510089874267578,1.9065289497375488
1780854553936342000,15.175342041015625,-4.042707920074463,-2.072077751159668,-5.322709083557129
1780854553984859000,15.22385888671875,-1.565077304840088,1.1016454696655273,-0.304813027381897
1780854554033375200,15.272375244140624,-0.16504478454589844,-2.6843366622924805,-2.454146146774292
1780854554081891800,15.320891845703125,-1.3579390048980713,0.4566936492919922,-4.195340633392334
1780854554130408400,15.369408447265625,0.2645930051803589,1.491434097290039,-0.6592482328414917
1780854554178925300,15.41792529296875,1.7649329900741577,2.9099888801574707,0.545889675617218
1780854554227441700,15.466441650390625,-1.3865975141525269,1.719773292541504,0.8720842599868774
1780854554275958300,15.514958251953125,0.03210270404815674,0.6314249038696289,1.3395416736602783
1780854554324475000,15.563474853515626,3.13439679145813,1.8804378509521484,1.3071411848068237
1780854554372991500,15.611991455078124,3.631207227706909,0.4971752166748047,-1.497963547706604
1780854554421508000,15.660508056640625,3.1831934452056885,-2.2120018005371094,-1.9510743618011475
1780854554470024700,15.709024658203125,1.0577378273010254,-3.5146217346191406,2.451404094696045
1780854554518541300,15.757541259765626,-1.2128863334655762,-1.8150005340576172,2.0392322540283203
1780854554567057700,15.8060576171875,-2.2485435009002686,1.7691144943237305,-1.9854891300201416
1780854554615574500,15.854574462890625,-1.589776635169983,-3.786550521850586,-1.5509763956069946
1780854554664091100,15.903091064453125,-2.531489849090576,-2.571664810180664,3.940247058868408
1780854554712607500,15.951607421875,-3.3519349098205566,0.5870170593261719,2.2825841903686523
1780854554761124000,16.0001240234375,-0.06302714347839355,2.7972002029418945,-1.8984230756759644
1780854554809640700,16.048640625,1.7498936653137207,3.601828098297119,-1.9833760261535645
1780854554858157300,16.0971572265625,0.2905536890029907,3.3484067916870117,-0.552405834197998
1780854554906674000,16.145673828125,1.467452049255371,1.9037971496582031,4.2210235595703125
1780854554955190500,16.1941904296875,0.6214921474456787,-3.490875244140625,1.3065135478973389
1780854555003707100,16.24270703125,2.9250648021698,-2.054647445678711,2.430389642715454
1780854555052223700,16.2912236328125,1.196094274520874,-4.446939468383789,1.7039949893951416
1780854555100740400,16.339740234375,-4.222795486450195,-0.12727642059326172,-4.3167266845703125
1780854555149256700,16.388256591796875,-0.6755806803703308,-0.6397609710693359,-1.5784465074539185
1780854555197773300,16.436773193359375,-0.6271727085113525,-2.949965476989746,-3.974876880645752
1780854555246290000,16.4852900390625,-0.9092339277267456,1.6336250305175781,-3.676814556121826
1780854555294806500,16.533806640625,1.5781306028366089,2.3763856887817383,-0.3923035264015198
1780854555343323100,16.5823232421875,0.4590620994567871,2.874875068664551,0.7246167659759521
1780854555391839700,16.63083984375,-1.7195751667022705,0.4546070098876953,1.7719264030456543
1780854555440356400,16.6793564453125,1.8438845872879028,1.1388463973999023,1.4492287635803223
1780854555537389600,16.7763896484375,5.633030414581299,1.1652326583862305,-0.5634468197822571
1780854555585906200,16.82490625,1.174393892288208,-3.847783088684082,0.010510891675949097
1780854555634422500,16.873422607421876,1.7064361572265625,-1.0988969802856445,1.6943645477294922
1780854555682939400,16.921939453125,-1.4452356100082397,1.0377616882324219,0.831076979637146
1780854555731455700,16.970455810546873,-2.0198252201080322,-4.185869216918945,-2.1994175910949707
1780854555779972400,17.018972412109374,-2.2917933464050293,-5.060524940490723,1.5711464881896973
1780854555828489000,17.067489013671874,-3.5744965076446533,0.5165004730224609,2.59818696975708
1780854555877005600,17.116005615234375,-0.35733532905578613,2.3623948097229004,-0.9779934287071228
1780854555925522200,17.164522216796875,1.082460880279541,3.692836284637451,-1.721081256866455
1780854555974038800,17.213038818359376,-0.14897513389587402,3.3300833702087402,-1.6764510869979858
1780854556022555400,17.261555419921876,2.156261682510376,3.9675841331481934,2.719417095184326
1780854556071071700,17.31007177734375,-0.5122616291046143,-2.4410324096679688,2.205923557281494
1780854556119588600,17.358588623046874,3.079514503479004,-3.214752197265625,0.7447079420089722
1780854556168105200,17.407105224609374,2.168134927749634,-4.811192512512207,1.7957971096038818
1780854556216621600,17.45562158203125,-4.792434215545654,-1.5477313995361328,-4.2489142417907715
1780854556265138200,17.50413818359375,-0.7649620175361633,-0.8508405685424805,-1.6145905256271362
1780854556313654800,17.55265478515625,-0.1316930055618286,-2.521677017211914,-4.5540361404418945
1780854556362171400,17.60117138671875,-0.9303320646286011,1.9991865158081055,-3.8932785987854004
1780854556410688000,17.64968798828125,1.5165904760360718,2.8379926681518555,0.03479930758476257
1780854556459204600,17.69820458984375,0.3033186197280884,2.9934849739074707,1.0146833658218384
1780854556507721000,17.746720947265626,-2.415433883666992,0.37859535217285156,1.2281724214553833
1780854556556237800,17.79523779296875,2.1516613960266113,0.5707626342773438,1.132644534111023
1780854556604754400,17.84375439453125,2.2723898887634277,1.4432621002197266,0.058372706174850464
1780854556653270800,17.892270751953124,6.539834499359131,1.8734021186828613,-1.4481298923492432
1780854556701787400,17.940787353515624,1.9763946533203125,-3.8209571838378906,-0.7393132448196411
1780854556750304000,17.989303955078125,0.26114100217819214,-2.792348861694336,1.6743998527526855
1780854556798820600,18.037820556640625,-2.4661972522735596,0.7413082122802734,1.0405340194702148
1780854556847337200,18.086337158203126,-1.9371634721755981,-2.138075828552246,-3.35135555267334
1780854556895853800,18.134853759765626,-2.7989935874938965,-5.720730781555176,1.3722115755081177
1780854556944370400,18.183370361328127,-3.494379997253418,-0.5619850158691406,4.655187606811523
1780854556992887000,18.231886962890623,0.2383725643157959,2.3280200958251953,0.17202267050743103
1780854557041403600,18.280403564453124,2.0949912071228027,3.7340259552001953,-2.6804375648498535
1780854557138436600,18.3774365234375,1.1301836967468262,3.545254707336426,1.4705920219421387
1780854557186953200,18.425953125,-0.08348691463470459,-1.6701278686523438,3.443049192428589
1780854557235469800,18.4744697265625,1.525442361831665,-3.5389585494995117,0.3478039801120758
1780854557283986400,18.522986328125,2.481027126312256,-4.844079971313477,3.113037109375
1780854557332503000,18.5715029296875,-1.7725540399551392,-1.0145797729492188,-2.666571855545044
1780854557381019400,18.620019287109375,-2.2978010177612305,-0.046217918395996094,-1.953401803970337
1780854557429536300,18.668536376953124,-1.2353272438049316,-3.210942268371582,-3.7761893272399902
1780854557478052900,18.717052978515625,-0.5042078495025635,2.094597339630127,-3.78670072555542
1780854557526569200,18.7655693359375,2.125872850418091,2.222165107727051,-1.1913468837738037
1780854557575085800,18.8140859375,0.4079173803329468,2.3904247283935547,0.3926883935928345
1780854557623602400,18.8626025390625,-2.0786125659942627,0.9785947799682617,1.0835940837860107
1780854557672119000,18.911119140625,0.823650598526001,0.2069721221923828,1.3400330543518066
1780854557720635600,18.9596357421875,2.9903781414031982,1.7375497817993164,1.2728121280670166
1780854557769152300,19.00815234375,3.8548831939697266,1.7305002212524414,-1.3218801021575928
1780854557817668600,19.056668701171876,4.1967363357543945,-0.9689092636108398,-0.426297664642334
1780854557866185500,19.105185546875,1.4590892791748047,-4.075092315673828,1.298424482345581
1780854557914701800,19.153701904296874,-1.027479648590088,-2.041964530944824,1.7912378311157227
1780854557963218400,19.202218505859374,-2.2026805877685547,1.274057388305664,-2.4487791061401367
1780854558011735000,19.250735107421875,-1.176220178604126,-4.04274845123291,-1.931429147720337
1780854558060251400,19.29925146484375,-3.330296516418457,-3.261185646057129,4.675065040588379
1780854558108768300,19.347768310546876,-2.882622003555298,0.8672447204589844,2.15012788772583
1780854558157284600,19.39628466796875,0.48084306716918945,3.160914421081543,-1.8746517896652222
1780854558205801200,19.44480126953125,1.4865399599075317,4.164557456970215,-2.4585914611816406
1780854558254317800,19.49331787109375,1.2484863996505737,3.7519350051879883,-0.06950664520263672
1780854558302834400,19.54183447265625,0.0007020235061645508,1.156407356262207,3.2247049808502197
1780854558351351000,19.59035107421875,1.325073480606079,-4.022488594055176,1.6735000610351562
1780854558399867600,19.63886767578125,3.775792360305786,-2.603896141052246,1.697886347770691
1780854558448384300,19.68738427734375,-0.5056328773498535,-4.398496627807617,-1.7830289602279663
1780854558496900600,19.735900634765624,-2.7831578254699707,1.3859119415283203,-1.8155566453933716
1780854558545417200,19.784417236328125,-0.33411502838134766,-2.304506301879883,-0.9796779155731201
1780854558593933800,19.832933837890625,-1.9912669658660889,-2.306385040283203,-3.936084032058716
1780854558690967000,19.929967041015626,2.049774169921875,3.3994226455688477,0.071231409907341
1780854558739483600,19.978483642578126,-0.786616325378418,2.508121967315674,1.1820822954177856
1780854558788000000,20.027,-1.5587294101715088,0.3119945526123047,0.8824231624603271
1780854558836516600,20.0755166015625,2.02620005607605,1.2130393981933594,0.7590290307998657
1780854558885033200,20.124033203125,5.105327606201172,1.3784675598144531,-0.28143689036369324
1780854558933549800,20.1725498046875,6.356635093688965,-0.6805152893066406,0.11286097764968872
1780854558982066400,20.22106640625,-0.2491033971309662,-5.051733016967773,0.8047727942466736
1780854559030583000,20.2695830078125,-0.2814953327178955,0.7723731994628906,1.4228785037994385
1780854559079099400,20.318099365234374,-1.6141513586044312,-0.2425079345703125,-2.444671392440796
1780854559127616000,20.366615966796875,-2.7660024166107178,-7.412667274475098,-0.6964216828346252
1780854559176132600,20.415132568359375,-4.644652843475342,-2.7603139877319336,5.343400478363037
1780854559224649200,20.463649169921876,-2.3492870330810547,2.265610694885254,0.49002736806869507
1780854559273165800,20.512165771484376,2.3019676208496094,3.72324800491333,-2.6580991744995117
1780854559321682400,20.560682373046873,0.7001559734344482,4.07300329208374,-3.2762138843536377
1780854559370198800,20.60919873046875,-0.3230832815170288,3.9602394104003906,-0.9803223609924316
1780854559418715600,20.657715576171874,-0.9766960740089417,-0.15950870513916016,4.213202953338623
1780854559467232000,20.70623193359375,1.6541001796722412,-4.707831382751465,2.2278366088867188
1780854559515748600,20.75474853515625,4.2786173820495605,-2.3216018676757812,3.5216119289398193
1780854559564265000,20.803264892578124,0.04207003116607666,-3.694973945617676,-2.300776481628418
1780854559612781800,20.85178173828125,-4.399937152862549,-1.3103904724121094,-2.759415626525879
1780854559661298400,20.90029833984375,-0.832862138748169,-1.2694692611694336,-1.6341979503631592
1780854559709814800,20.948814697265625,-0.7530628442764282,-0.6418647766113281,-5.107754230499268
1780854559758331400,20.997331298828126,0.7852433919906616,2.7435431480407715,-2.617030143737793
1780854559806848000,21.045847900390626,2.5748348236083984,3.805880069732666,0.7461973428726196
1780854559855364600,21.094364501953127,-0.8691082000732422,2.0618858337402344,1.5665626525878906
1780854559903881200,21.142881103515624,-1.0779237747192383,-0.1107025146484375,1.1670209169387817
1780854559952397600,21.1913974609375,2.406035900115967,0.6466903686523438,1.070368766784668
1780854560000914200,21.2399140625,2.6939210891723633,1.9978704452514648,0.7497593760490417
1780854560049430800,21.2884306640625,6.8349175453186035,-0.350555419921875,0.020936965942382812
1780854560097947400,21.336947509765626,-0.27725517749786377,-6.0460920333862305,-1.5333802700042725
1780854560146463700,21.385463623046874,1.957478404045105,1.288203239440918,2.4935221672058105
1780854560194980400,21.43398046875,-0.7996138334274292,0.9768686294555664,0.6585208773612976
1780854560292013600,21.531013671875,-4.732438087463379,-4.059688568115234,3.2137086391448975
1780854560340530200,21.5795302734375,-2.212313652038574,1.319319725036621,2.107307195663452
1780854560389046800,21.628046875,1.2766335010528564,2.7904510498046875,-1.5014419555664062
1780854560437563100,21.676563232421874,0.4409254789352417,3.8434829711914062,-2.3715481758117676
1780854560486079700,21.725079833984374,0.2999528646469116,3.7777819633483887,-1.248990535736084
1780854560534596400,21.773596435546875,0.12107658386230469,1.0197172164916992,2.3655924797058105
1780854560583113000,21.822113037109375,1.6300724744796753,-1.9460906982421875,0.5114628076553345
1780854560631629300,21.87062939453125,5.469209671020508,-1.460592269897461,3.2676148414611816
1780854560680146000,21.91914599609375,-1.7285100221633911,-4.152068138122559,-1.8350876569747925
1780854560728662500,21.96766259765625,-3.8740921020507812,-2.0526838302612305,-0.5030235648155212
1780854560777179100,22.01617919921875,2.5289206504821777,-1.4398298263549805,-4.039652347564697
1780854560825695500,22.064695556640626,-2.3145999908447266,-1.9013547897338867,-5.469697952270508
1780854560874212000,22.113212158203126,-0.7416930794715881,1.27532958984375,1.802506685256958
1780854560922729000,22.16172900390625,1.1048266887664795,3.669565200805664,-0.9666759967803955
1780854560971245300,22.210245361328123,-0.7867370843887329,3.206590175628662,0.26008445024490356
1780854561019762000,22.258761962890624,0.11732345819473267,1.8667106628417969,1.1279983520507812
1780854561068278300,22.3072783203125,1.7153440713882446,1.031416893005371,1.271963357925415
1780854561116795000,22.355794921875,3.846292734146118,-0.08762073516845703,0.1928003877401352
1780854561165311500,22.4043115234375,5.760434627532959,-2.505251884460449,-0.9745821952819824
1780854561213828000,22.452828125,0.9365948438644409,-3.782343864440918,-0.18086862564086914
1780854561262344400,22.501344482421874,0.09769606590270996,1.3790063858032227,2.4433932304382324
1780854561310861000,22.549861083984375,-2.9547295570373535,-0.7468624114990234,-0.796955406665802
1780854561359377700,22.598377685546875,-2.885674476623535,-5.598030090332031,-1.1545846462249756
1780854561407894300,22.646894287109376,-3.4494268894195557,-1.5657739639282227,2.7292068004608154
1780854561456410600,22.69541064453125,-1.1618313789367676,0.9581985473632812,1.8450243473052979
1780854561504927200,22.74392724609375,0.04028737545013428,2.991858959197998,-1.3875964879989624
1780854561553443800,22.79244384765625,-0.4330103397369385,3.2544126510620117,-1.8451166152954102
1780854561601960400,22.84096044921875,0.4330350160598755,3.598665237426758,-1.629638671875
1780854561650476800,22.889476806640626,0.7630864381790161,2.900178909301758,3.1942224502563477
1780854561698993400,22.937993408203123,0.9412112236022949,-3.0666275024414062,1.5233906507492065
1780854561747510000,22.986510009765624,4.85786247253418,-3.936497688293457,2.4360432624816895
1780854561796026600,23.035026611328124,-0.3744802474975586,-4.371230125427246,0.27393490076065063
1780854561844543000,23.08354296875,-5.49493408203125,-0.39125919342041016,-2.236708164215088
1780854561941576200,23.180576171875,-1.3460005521774292,-2.554454803466797,-5.403905868530273
1780854561990092500,23.229092529296874,-1.2166943550109863,1.4697837829589844,-1.9577107429504395
1780854562038609200,23.277609130859375,2.7908239364624023,3.8107967376708984,0.46220168471336365
1780854562087125800,23.326125732421875,0.9011273384094238,3.6410703659057617,0.8506710529327393
1780854562135642400,23.374642333984376,-1.6328485012054443,0.8797178268432617,1.5280616283416748
1780854562184158700,23.42315869140625,0.7947834730148315,0.2648782730102539,1.7268850803375244
1780854562232675300,23.47167529296875,3.9277772903442383,1.0741920471191406,-0.37276706099510193
1780854562281192000,23.52019189453125,7.250650405883789,-0.3877553939819336,-0.9802789688110352
1780854562329708500,23.56870849609375,-0.5829809904098511,-5.635036468505859,0.9029026627540588
1780854562378225000,23.617224853515626,-0.3359845280647278,-1.3390874862670898,1.9509992599487305
1780854562426741500,23.665741455078123,-2.2252614498138428,1.0947751998901367,-2.0403194427490234
1780854562475258000,23.714258056640624,-1.1986842155456543,-2.133441925048828,-1.5889501571655273
1780854562523774700,23.762774658203124,-4.080665111541748,-4.951946258544922,4.483095169067383
1780854562572291000,23.811291015625,-3.766965866088867,0.5292634963989258,2.310593605041504
1780854562620807700,23.8598076171875,-0.1811584234237671,2.4335145950317383,-1.911953330039978
1780854562669324300,23.90832421875,1.674587368965149,4.0292816162109375,-2.4697041511535645
1780854562717841000,23.9568408203125,-0.10838592052459717,3.1364378929138184,-1.0514014959335327
1780854562766357200,24.005357177734375,1.3703079223632812,3.7861385345458984,2.585076093673706
1780854562814873900,24.053873779296875,-0.6490964889526367,-3.6485986709594727,3.3223583698272705
1780854562863390200,24.10239013671875,3.703155040740967,-4.041256904602051,2.251434326171875
1780854562911907000,24.150906982421876,1.0274877548217773,-2.2766780853271484,1.440430760383606
1780854562960423400,24.19942333984375,-4.177825927734375,-1.6786832809448242,-3.7906992435455322
1780854563008940000,24.24793994140625,0.5569280385971069,-1.9411754608154297,-1.777198076248169
1780854563057456400,24.296456298828126,-1.2014522552490234,-1.7661447525024414,-4.995669841766357
1780854563105973000,24.344972900390626,-1.0199781656265259,0.8857450485229492,-3.2512176036834717
1780854563154489600,24.393489501953123,1.6963526010513306,3.023000717163086,-0.2519468665122986
1780854563203006000,24.442005859375,1.2929730415344238,4.161755561828613,1.0855183601379395
1780854563251522600,24.4905224609375,-1.024179458618164,0.9698829650878906,2.084888219833374
1780854563300039200,24.5390390625,0.9780718088150024,-0.08940601348876953,1.9396896362304688
1780854563348555800,24.5875556640625,1.1463513374328613,0.5390233993530273,-0.46021395921707153
1780854563445588700,24.684588623046874,1.4976415634155273,-4.46433162689209,-1.6102757453918457
1780854563542621700,24.78162158203125,-1.8489596843719482,1.3110504150390625,1.5962077379226685
1780854563591138300,24.83013818359375,-0.8623460531234741,-0.3168525695800781,-1.6936053037643433
1780854563639655000,24.878655029296876,-3.219611644744873,-7.086212158203125,1.1477389335632324
1780854563688171300,24.927171142578125,-4.559293746948242,-1.8998851776123047,4.169856548309326
1780854563736687900,24.97568798828125,-1.1546180248260498,2.0714426040649414,-0.23659056425094604
1780854563785204500,25.02420458984375,1.8312761783599854,4.287035942077637,-2.8014585971832275
1780854563833721000,25.07272119140625,0.8038822412490845,3.9985861778259277,-2.6207938194274902
1780854563882237400,25.121237548828127,1.7075655460357666,4.138753414154053,-0.016892313957214355
1780854563930754000,25.169754150390624,-0.88661789894104,-1.5114507675170898,3.480334758758545
1780854563979270400,25.2182705078125,1.0696531534194946,-5.100832939147949,1.392467737197876
1780854564027787000,25.266787109375,4.20278787612915,-2.9497671127319336,5.90648889541626
1780854564076303600,25.3153037109375,-1.811163067817688,-1.7908496856689453,-4.057905197143555
1780854564124820000,25.363820068359374,-1.31637704372406,0.5191612243652344,-3.2817084789276123
1780854564173336600,25.412336669921874,-0.32850682735443115,-1.3444643020629883,-1.5785603523254395
1780854564221853200,25.460853271484375,-1.3729841709136963,-1.0051507949829102,-3.796865224838257
1780854564270369800,25.509369873046875,-0.2426130175590515,1.2858314514160156,-2.185077667236328
1780854564318886100,25.55788623046875,2.2191872596740723,2.6563377380371094,0.044826969504356384
1780854564367402500,25.606402587890624,0.6806261539459229,3.0956578254699707,0.16200050711631775
1780854564415919000,25.654919189453125,-1.4751313924789429,-0.0014324188232421875,1.2882434129714966
1780854564464435700,25.703435791015625,2.0291197299957275,1.3596725463867188,1.219604253768921
1780854564512952300,25.751952392578126,2.338042736053467,0.8157987594604492,-0.7546713352203369
1780854564561468700,25.80046875,6.1392059326171875,-0.31813526153564453,-2.4517009258270264
1780854564609985300,25.8489853515625,2.08585524559021,-4.197837829589844,0.23747047781944275
1780854564658502000,25.897501953125,-0.4827841520309448,-1.9945354461669922,3.5213418006896973
1780854564707018200,25.946018310546876,-3.2579798698425293,0.6436519622802734,-1.077681303024292
1780854564755534800,25.994534912109376,-0.9073030948638916,-1.3863449096679688,-2.82273268699646
1780854564804051500,26.043051513671877,-3.4425787925720215,-5.539463996887207,4.0339813232421875
1780854564852567800,26.09156787109375,-3.511826515197754,0.4231233596801758,2.748760938644409
1780854564901084400,26.14008447265625,0.08605051040649414,2.9651832580566406,-0.7391119003295898
1780854564949600800,26.188600830078126,1.6234536170959473,4.064404487609863,-3.14334774017334
1780854564998117400,26.237117431640623,0.17117762565612793,3.854918956756592,-1.9803619384765625
1780854565046634000,26.285634033203124,1.8986587524414062,3.6146469116210938,2.3309812545776367
1780854565143667000,26.3826669921875,2.024456024169922,-3.4476137161254883,1.7352495193481445
1780854565192183600,26.43118359375,2.128408670425415,-2.4125499725341797,1.7666022777557373
1780854565240700000,26.479699951171874,-3.1572482585906982,-1.3662853240966797,-3.6489827632904053
1780854565289216500,26.528216552734374,-2.262491464614868,0.20441818237304688,-1.2318562269210815
1780854565337732900,26.57673291015625,-0.8841797709465027,-2.806886672973633,-6.026419162750244
1780854565386249500,26.62524951171875,-0.7848637700080872,0.3773775100708008,-3.755775213241577
1780854565434766000,26.67376611328125,3.2164549827575684,2.3606252670288086,0.6254607439041138
1780854565483282400,26.722282470703124,1.181237816810608,3.17935848236084,1.246845006942749
1780854565531799000,26.770799072265625,-1.6808547973632812,0.7102565765380859,2.639873743057251
1780854565580315600,26.819315673828125,1.194483757019043,1.320206642150879,2.679628610610962
1780854565628832000,26.86783203125,1.542387843132019,1.2595176696777344,1.3022619485855103
1780854565677348600,26.9163486328125,5.126150131225586,0.9843235015869141,-1.9453566074371338
1780854565725865000,26.964864990234375,3.4309794902801514,-3.3607959747314453,-0.11430773138999939
1780854565774381600,27.013381591796875,1.9514658451080322,-2.7304439544677734,2.412775993347168
1780854565822898200,27.061898193359376,-2.432898998260498,-0.5659217834472656,0.5990575551986694
1780854565871414500,27.11041455078125,-2.271843433380127,1.5145378112792969,-1.9845985174179077
1780854565919931100,27.15893115234375,-1.7684080600738525,-4.65257453918457,-0.18849551677703857
1780854565968447700,27.20744775390625,-3.2650110721588135,-2.3781967163085938,4.011682033538818
1780854566016964000,27.255964111328126,-1.845671534538269,1.267685890197754,-0.3665091395378113
1780854566065480700,27.304480712890626,-0.014371037483215332,3.232746124267578,-1.6873633861541748
1780854566113997000,27.3529970703125,0.6389261484146118,3.0586485862731934,-1.544033408164978
1780854566162513700,27.401513671875,1.1753357648849487,4.099706172943115,-0.014712810516357422
1780854566211030300,27.4500302734375,-0.12045204639434814,0.8878679275512695,3.5567824840545654
1780854566259546600,27.498546630859376,1.8054561614990234,-4.809505462646484,0.8620193004608154
1780854566308063000,27.54706298828125,3.4002442359924316,-3.9010963439941406,4.964200973510742
1780854566356579600,27.59557958984375,-2.3734774589538574,-2.783867835998535,-4.09056282043457
1780854566405096200,27.64409619140625,-1.3276928663253784,0.4567708969116211,-2.1996917724609375
1780854566453612500,27.692612548828127,-0.5655819773674011,-2.282841682434082,-2.556084632873535
1780854566502129200,27.741129150390623,-1.9434840679168701,-0.02399921417236328,-3.9968197345733643
1780854566599162000,27.838162109375,2.197664260864258,3.1651735305786133,0.42278870940208435
1780854566696195000,27.935195068359373,-1.4743213653564453,0.02194499969482422,1.9624241590499878
1780854566744711700,27.983711669921874,2.0734193325042725,1.1236686706542969,0.34353482723236084
1780854566793228000,28.03222802734375,3.274070978164673,1.2509346008300781,-1.6843068599700928
1780854566841744600,28.08074462890625,6.831770420074463,-0.8274049758911133,-0.7258481979370117
1780854566890261000,28.129260986328124,0.5917409062385559,-4.455377578735352,0.5458576679229736
1780854566938777600,28.177777587890624,-1.3693369626998901,-0.4748878479003906,1.8065887689590454
1780854566987294200,28.226294189453125,-2.032316207885742,1.761077880859375,-1.6458073854446411
1780854567035810600,28.274810546875,-1.1435308456420898,-3.8512468338012695,-1.302103042602539
1780854567084327200,28.3233271484375,-3.924283027648926,-4.693948745727539,4.664592742919922
1780854567132843800,28.37184375,-2.989590644836426,0.09324169158935547,1.461850881576538
1780854567181360000,28.420360107421875,0.623645544052124,2.5301804542541504,-1.6823242902755737
1780854567229876500,28.46887646484375,0.918724775314331,3.60589599609375,-2.7327921390533447
1780854567278393000,28.51739306640625,0.5691393613815308,4.273833751678467,-1.0915520191192627
1780854567326909700,28.56590966796875,0.80983567237854,2.9170093536376953,3.2913966178894043
1780854567375426000,28.614426025390625,0.4872767925262451,-5.190186500549316,0.1856357753276825
1780854567423942400,28.6629423828125,3.787553310394287,-2.958876609802246,3.41274094581604
1780854567472459000,28.711458984375,0.25144076347351074,-2.8485116958618164,0.37053877115249634
1780854567520975600,28.7599755859375,-3.0498085021972656,-0.10955047607421875,-4.2334089279174805
1780854567569492000,28.808491943359375,-0.024109244346618652,-0.8004951477050781,-1.5462980270385742
1780854567618008600,28.857008544921875,-1.7505590915679932,-2.508878707885742,-4.440936088562012
1780854567666525000,28.90552490234375,-1.444555640220642,1.3337516784667969,-3.358814239501953
1780854567715041500,28.95404150390625,1.8350521326065063,2.641573905944824,-0.65375816822052
1780854567763558100,29.00255810546875,2.584277629852295,2.966585159301758,0.8757166266441345
1780854567812074500,29.051074462890625,-1.379960298538208,0.9738121032714844,1.7722992897033691
1780854567860590800,29.0995908203125,1.1481983661651611,1.4225196838378906,2.3904378414154053
1780854567909107200,29.148107177734374,2.1013853549957275,0.9225883483886719,-0.2901619076728821
1780854567957623800,29.196623779296875,6.251408576965332,0.8648176193237305,-2.8026106357574463
1780854568006140400,29.245140380859375,3.6303536891937256,-4.26047420501709,0.037039756774902344
1780854568054656800,29.29365673828125,0.7455628514289856,-2.8979673385620117,3.5724337100982666
1780854568103173400,29.34217333984375,-3.9319207668304443,0.5039644241333008,0.2215479612350464
1780854568151689700,29.390689697265625,-1.5671195983886719,0.10499095916748047,-3.082275629043579
1780854568200206300,29.439206298828125,-2.7401747703552246,-6.2331342697143555,1.998528242111206
1780854568297239300,29.5362392578125,-0.2681068181991577,2.432094097137451,-0.6167522668838501
1780854568345756000,29.584755859375,1.6974018812179565,4.059891700744629,-2.964478015899658
1780854568394272300,29.633272216796875,-0.38178491592407227,3.34251070022583,-2.324723720550537
1780854568442788600,29.68178857421875,2.0985875129699707,4.372466087341309,1.3461047410964966
1780854568491305200,29.73030517578125,-0.4020650386810303,-2.9732751846313477,3.6842763423919678
1780854568539821800,29.77882177734375,2.1207656860351562,-4.621604919433594,0.11974585056304932
1780854568636854500,29.8758544921875,-4.249837398529053,-0.7472209930419922,-3.528677225112915
1780854568733887700,29.9728876953125,-1.2536792755126953,-4.1771650314331055,-4.624963283538818
1780854568782404000,30.021404052734376,-2.865647792816162,0.9662456512451172,-3.643278121948242
1780854568830920400,30.06992041015625,1.938699722290039,2.9032812118530273,-0.20546460151672363
1780854568879437000,30.11843701171875,2.014207363128662,2.9576549530029297,1.0805346965789795
1780854568927953700,30.16695361328125,-0.8098177909851074,1.6156339645385742,1.6535468101501465
1780854568976470000,30.215469970703126,0.6109066009521484,1.9465465545654297,1.4948853254318237
1780854569024986400,30.263986328125,2.7165586948394775,0.9434108734130859,0.3261831998825073
1780854569073502700,30.312502685546875,6.857306957244873,0.43797969818115234,-1.0204312801361084
1780854569122019600,30.36101953125,1.6737055778503418,-4.718866348266602,0.2878419756889343
1780854569170536000,30.409535888671876,-1.0752296447753906,-2.4403858184814453,2.8042192459106445
1780854569219052300,30.45805224609375,-2.6310415267944336,0.12114906311035156,-2.5842769145965576
1780854569267569000,30.50656884765625,-1.2162187099456787,-3.0767250061035156,-3.034479856491089
1780854569316085200,30.555085205078125,-4.389377593994141,-5.536642074584961,5.876211643218994
1780854569364601900,30.603601806640626,-3.809986114501953,0.5909385681152344,2.501354694366455
1780854569413118200,30.6521181640625,1.067182183265686,3.277860164642334,-2.202627182006836
1780854569461634600,30.700634521484375,0.5797297954559326,4.551052093505859,-2.3734946250915527
1780854569510151200,30.749151123046875,-0.01077890396118164,3.8952441215515137,-0.9101738929748535
1780854569558667800,30.797667724609376,1.3116860389709473,3.3141651153564453,3.1662864685058594
1780854569607184100,30.84618408203125,-1.0158185958862305,-6.472779273986816,1.7745332717895508
1780854569655700500,30.894700439453125,4.115750789642334,-1.9429798126220703,2.5413427352905273
1780854569704217000,30.943217041015625,2.888324737548828,-1.3635988235473633,1.726311206817627
1780854569752733400,30.9917333984375,-6.0820112228393555,-2.683987617492676,-3.8777427673339844
1780854569801250000,31.04025,-0.39791786670684814,-0.9285211563110352,-0.8129832744598389
1780854569898283000,31.137282958984375,-1.9567499160766602,0.5137596130371094,-2.8113417625427246
1780854569946799400,31.18579931640625,2.090609073638916,2.694601535797119,0.31623053550720215
1780854569995315700,31.234315673828124,1.5925989151000977,3.357121467590332,0.8441471457481384
1780854570043832300,31.282832275390625,-0.8786731958389282,1.4036569595336914,2.030818223953247
1780854570092349000,31.331348876953125,0.3004855215549469,1.4129247665405273,2.0010128021240234
1780854570140865300,31.379865234375,2.5307862758636475,0.19649505615234375,0.5823891162872314
1780854570189381600,31.428381591796875,7.370450973510742,0.3693399429321289,-1.2222776412963867
1780854570237898000,31.47689794921875,1.2837451696395874,-4.832280158996582,0.6522192358970642
1780854570286414600,31.52541455078125,0.38378816843032837,-0.7062864303588867,2.758662223815918
1780854570334931000,31.573930908203124,-3.1083829402923584,0.3554506301879883,-0.9978148341178894
1780854570383447600,31.622447509765625,-2.2279012203216553,-2.856668472290039,-2.418581485748291
1780854570431964000,31.6709638671875,-4.07683801651001,-5.780631065368652,4.182164192199707
1780854570480480500,31.71948046875,-2.692324161529541,0.36217212677001953,1.917858600616455
1780854570528996900,31.767996826171874,1.3847054243087769,2.9396133422851562,-1.250227928161621
1780854570577513200,31.81651318359375,0.19780635833740234,3.558422088623047,-2.184309959411621
1780854570626029600,31.865029541015623,-0.4671229124069214,3.41464900970459,-1.24196457862854
1780854570674546400,31.91354638671875,2.2956600189208984,4.862003803253174,2.023144245147705
1780854570723062800,31.962062744140624,-0.6410614252090454,-4.033597946166992,2.916471242904663
1780854570771579100,32.0105791015625,2.837954044342041,-4.67056941986084,3.2541134357452393
1780854570820095500,32.05909545898437,0.3335456848144531,-3.236729621887207,0.14098843932151794
1780854570868612000,32.10761206054688,-3.725210189819336,-1.2073421478271484,-4.8447418212890625
1780854570917128400,32.15612841796875,0.02626824378967285,-1.3341131210327148,-1.8217864036560059
1780854570965644800,32.204644775390626,-0.8966071009635925,-1.763636589050293,-3.672914505004883
1780854571014161400,32.25316137695312,-1.132146954536438,1.5274629592895508,-3.078305959701538
1780854571062677800,32.301677734375,2.1098499298095703,3.281816005706787,-0.989078164100647
1780854571111194400,32.3501943359375,3.0854039192199707,3.564009189605713,1.0665757656097412
1780854571159710700,32.39871069335938,-1.7945657968521118,0.09568023681640625,2.2562217712402344
1780854571208227000,32.44722705078125,0.4024336338043213,0.13022994995117188,2.0840795040130615
1780854571256743700,32.49574365234375,3.596599578857422,1.8925251960754395,0.3864841163158417
1780854571305260000,32.54426000976562,6.9833478927612305,1.4534378051757812,0.3393744230270386
1780854571353776600,32.59277661132813,0.4671311676502228,-5.763340950012207,-0.9763047695159912
1780854571402293000,32.64129296875,0.7371850609779358,0.4134845733642578,1.232712745666504
1780854571499326000,32.73832592773437,-1.4062347412109375,-4.809808731079102,-1.9477293491363525
1780854571547842300,32.78684228515625,-4.884613037109375,-5.964296340942383,4.386626720428467
1780854571596358700,32.83535864257812,-2.3414103984832764,1.3417730331420898,1.322613000869751
1780854571644875000,32.883875,1.4305346012115479,3.5401124954223633,-1.7185238599777222
1780854571741908000,32.980907958984375,-0.39997398853302,3.6248698234558105,-1.8191239833831787
1780854571790424600,33.02942456054687,1.408117413520813,3.922488212585449,2.7762863636016846
1780854571838941000,33.07794091796875,1.2884368896484375,-4.500819206237793,1.430582880973816
1780854571887457500,33.12645751953125,1.1295554637908936,-5.889240264892578,3.311551570892334
1780854571935974000,33.174973876953125,-0.5560420155525208,-4.32740592956543,0.7740246057510376
1780854571984490200,33.223490234375,-0.5664264559745789,1.570688247680664,-3.7531793117523193
1780854572033006600,33.272006591796874,0.3395644426345825,-2.501516342163086,-3.506002902984619
1780854572081523200,33.32052319335938,-3.4838457107543945,-1.497452735900879,-4.182124137878418
1780854572130039600,33.36903955078125,-0.12740808725357056,2.7897396087646484,-2.2743759155273438
1780854572178556000,33.41755590820313,2.6055777072906494,3.2261853218078613,0.2055962085723877
1780854572227072300,33.466072265625,2.410240650177002,3.0443081855773926,1.128167986869812
1780854572275588900,33.5145888671875,-1.7099295854568481,0.16133403778076172,1.7419726848602295
1780854572324105500,33.56310546875,0.9229850769042969,1.106515884399414,1.3474299907684326
1780854572372621800,33.61162182617188,4.262783050537109,1.073404312133789,-0.16737592220306396
1780854572421138200,33.66013818359375,5.975741386413574,0.29430389404296875,0.2677958309650421
1780854572469654800,33.70865478515625,0.8791484236717224,-4.66975212097168,-0.6933976411819458
1780854572518171100,33.75717114257812,-0.16037744283676147,0.5118598937988281,1.551682472229004
1780854572566687500,33.8056875,-1.7604713439941406,0.5498104095458984,-1.36301851272583
1780854572615203800,33.85420385742187,-2.408482789993286,-6.668808937072754,-1.7745692729949951
1780854572663720400,33.902720458984376,-3.9628541469573975,-4.423742294311523,4.490251064300537
1780854572712236800,33.95123681640625,-2.495424747467041,0.8593778610229492,1.217517375946045
1780854572760753200,33.999753173828125,1.5547250509262085,3.4837708473205566,-2.02445650100708
1780854572809269500,34.04826953125,0.0043135881423950195,4.78475284576416,-2.1020495891571045
1780854572857786000,34.0967861328125,0.8672351837158203,4.865599155426025,-0.2701162099838257
1780854572906302500,34.14530249023438,-0.6919877529144287,1.5758161544799805,2.4451985359191895
1780854572954819000,34.193819091796875,2.3665194511413574,-6.132282257080078,-0.03199028968811035
1780854573051851800,34.290851806640624,-3.386660575866699,-2.319112777709961,-3.7670867443084717
1780854573100368100,34.3393681640625,-0.5449498891830444,0.27742862701416016,-2.8166093826293945
1780854573148884700,34.387884765625,0.16878890991210938,-2.8013830184936523,-2.8995158672332764
1780854573245917700,34.484917724609375,0.5591368675231934,2.3109397888183594,-1.889887809753418
1780854573294434000,34.53343408203125,3.1954593658447266,3.640615940093994,0.6810016632080078
1780854573342950400,34.581950439453124,-1.1344608068466187,2.238443374633789,2.2448482513427734
1780854573391466800,34.630466796875,-0.6910482048988342,0.09421920776367188,2.082120418548584
1780854573439983400,34.6789833984375,2.1830177307128906,0.8342761993408203,0.2705898880958557
1780854573488499700,34.72749975585938,6.262048721313477,2.6685566902160645,-0.350411057472229
1780854573537016000,34.77601611328125,2.2104833126068115,-2.5768966674804688,-1.6637275218963623
1780854573585532400,34.824532470703126,1.2863770723342896,-5.029936790466309,1.1192419528961182
1780854573682565400,34.9215654296875,-2.137986421585083,1.3020973205566406,-1.9880989789962769
1780854573731081700,34.97008178710937,-1.0716252326965332,-4.826381683349609,-1.453405737876892
1780854573779598000,35.01859814453125,-4.418501377105713,-3.9806604385375977,4.50950813293457
1780854573828114400,35.06711450195313,-3.2752444744110107,1.1414470672607422,1.2707346677780151
1780854573876631000,35.115631103515625,0.7603328227996826,3.277472972869873,-1.0175220966339111
1780854573925147400,35.1641474609375,1.1101700067520142,3.8910140991210938,-2.017338991165161
1780854573973663700,35.212663818359374,-0.05488872528076172,3.9004158973693848,-0.7200933694839478
1780854574022180400,35.26118041992188,0.8948421478271484,2.102804183959961,3.1874618530273438
1780854574070696700,35.30969677734375,1.4537103176116943,-4.481793403625488,0.7633194327354431
1780854574119213000,35.35821313476563,2.6664721965789795,-3.4261837005615234,5.2749505043029785
1780854574167729400,35.4067294921875,-1.172593593597412,-3.033193588256836,-0.4775536358356476
1780854574216245800,35.455245849609376,-2.1907529830932617,-0.5743131637573242,-4.064223289489746
1780854574264762400,35.50376245117187,0.04552733898162842,-2.216829299926758,-2.651473045349121
1780854574313278700,35.55227880859375,-1.5575284957885742,-0.6766519546508789,-4.878323078155518
1780854574410311400,35.6493115234375,2.0985004901885986,2.284437656402588,-0.050679825246334076
1780854574458828000,35.697828125,1.6202632188796997,3.162271022796631,1.236627221107483
1780854574507344400,35.746344482421875,-1.697251558303833,0.5000782012939453,1.6294888257980347
1780854574555860700,35.79486083984375,1.3494727611541748,1.306264877319336,1.8043732643127441
1780854574652893700,35.89189379882812,4.143331527709961,-0.24082660675048828,-2.865427255630493
1780854574701410000,35.94041015625,2.91623854637146,-3.6085615158081055,-0.24838989973068237
1780854574749926400,35.98892651367188,1.6942670345306396,-2.1550445556640625,3.7530758380889893
1780854574798442800,36.03744287109375,-2.8265624046325684,0.42975330352783203,0.6043264269828796
1780854574846959400,36.08595947265625,-1.771761417388916,1.2127742767333984,-2.4604897499084473
1780854574895475700,36.134475830078124,-2.318915605545044,-6.401029586791992,0.42217957973480225
1780854574943992000,36.182991943359376,-3.3410048484802246,-1.8666276931762695,3.463209629058838
1780854574992508400,36.23150830078125,-0.8365470767021179,2.4860706329345703,0.1431303173303604
1780854575041025000,36.28002490234375,2.3305282592773438,4.096717834472656,-2.264967441558838
1780854575089541400,36.32854125976562,0.2267916202545166,3.9010167121887207,-2.1254541873931885
1780854575138057700,36.3770576171875,1.742623209953308,4.173371315002441,0.9636831879615784
1780854575186574000,36.42557397460938,0.032570600509643555,-1.4137773513793945,3.0579748153686523
1780854575235090700,36.474090576171875,2.3959100246429443,-4.3262739181518555,1.745918869972229
1780854575283606800,36.52260668945313,0.868781566619873,-5.20557975769043,4.003243446350098
1780854575332123100,36.571123046875,-3.3669188022613525,-0.587010383605957,-3.793721914291382
1780854575380639500,36.619639404296876,0.4538004398345947,-0.18580150604248047,-2.4214701652526855
1780854575429155800,36.66815576171875,-0.9143496155738831,-3.3231143951416016,-4.710964202880859
1780854575477672400,36.71667236328125,-1.4552147388458252,1.6851615905761719,-4.361838340759277
1780854575526188800,36.76518872070312,1.3707256317138672,2.2247157096862793,-1.077447772026062
1780854575574705200,36.813705078125,2.677140474319458,3.0475330352783203,1.532536268234253
1780854575623221800,36.8622216796875,-1.656305193901062,1.7317543029785156,1.6568912267684937
1780854575671738000,36.910738037109375,0.18173938989639282,0.6252460479736328,1.7080000638961792
1780854575720254500,36.95925439453125,2.082608699798584,1.1105937957763672,0.1983342170715332
1780854575768770800,37.007770751953124,5.8927178382873535,0.9126930236816406,-2.7819883823394775
1780854575817287200,37.056287109375,3.4130091667175293,-3.3029069900512695,-0.4767957329750061
1780854575865803800,37.1048037109375,1.810128927230835,-3.976994514465332,3.6188743114471436
1780854575914320000,37.15331982421875,-2.9447903633117676,-0.39072513580322266,1.039299726486206
1780854575962836500,37.20183642578125,-2.3178536891937256,2.092787742614746,-3.6216883659362793
1780854576011352800,37.25035278320313,-0.7593867778778076,-5.553353309631348,-0.4352768063545227
1780854576059869200,37.298869140625,-3.5368690490722656,-2.1564931869506836,5.740819931030273
1780854576108385500,37.347385498046876,-3.282005786895752,1.7955589294433594,1.0756906270980835
1780854576205418200,37.444418212890625,2.1155643463134766,4.26222038269043,-2.808074474334717
1780854576253934800,37.49293481445312,2.0247888565063477,4.624560356140137,0.4106684625148773
1780854576302451200,37.541451171875,-1.528831958770752,-2.4520626068115234,2.559809684753418
1780854576350967600,37.58996752929688,1.928525447845459,-4.3251190185546875,1.4849400520324707
1780854576399484000,37.63848388671875,4.464105129241943,-3.311446189880371,6.252162456512451
1780854576448000500,37.68700048828125,-4.1402997970581055,-3.0847978591918945,-5.8261189460754395
1780854576496516900,37.735516845703124,-0.9074084758758545,0.6282796859741211,-2.3509585857391357
1780854576545033000,37.784032958984376,-0.11475133895874023,-1.9072046279907227,-3.128363609313965
1780854576593549300,37.83254931640625,-2.971041679382324,-0.20321083068847656,-4.094898700714111
1780854576642066000,37.88106591796875,-0.053506433963775635,2.2737789154052734,-1.4093459844589233
1780854576690582300,37.92958227539062,3.0204410552978516,3.242084503173828,0.15757136046886444
1780854576739098600,37.9780986328125,-0.11126339435577393,2.1103601455688477,1.2019612789154053
1780854576787615000,38.02661499023438,-1.384621024131775,0.5225582122802734,1.9430797100067139
1780854576836131600,38.075131591796875,1.3206452131271362,1.2153491973876953,1.3356666564941406
1780854576884648000,38.12364794921875,5.374812126159668,0.5538215637207031,-1.6292130947113037
1780854576981680600,38.2206806640625,2.530263900756836,-2.5134382247924805,1.869185447692871
1780854577030197000,38.26919702148437,-1.2868638038635254,-0.554905891418457,2.6036407947540283
1780854577127229700,38.36622973632812,-1.5901416540145874,-4.812997817993164,-0.8790936470031738
1780854577175746000,38.41474609375,-3.5228524208068848,-3.4730653762817383,4.619873523712158
1780854577224262400,38.46326245117187,-2.997129440307617,0.8661489486694336,1.3944147825241089
1780854577272779000,38.511779052734376,0.6612412929534912,3.1215925216674805,-1.9543343782424927
1780854577321295400,38.56029541015625,1.4724998474121094,4.339650630950928,-2.3404104709625244
1780854577369811700,38.608811767578125,1.0937631130218506,4.060590744018555,-1.0757653713226318
1780854577418328000,38.657328125,-0.3683887720108032,1.3155155181884766,2.637570381164551
1780854577466844400,38.705844482421874,0.9336628913879395,-4.7267045974731445,1.9974592924118042
1780854577515360800,38.75436083984375,4.506133079528809,-3.532135009765625,4.451352596282959
1780854577563877000,38.80287719726562,-1.9592446088790894,-3.5523529052734375,-2.394021987915039
1780854577612393500,38.8513935546875,-2.989427328109741,0.8527364730834961,-3.5874693393707275
1780854577660910000,38.89991015625,0.867878794670105,-1.7822504043579102,-1.8884133100509644
1780854577709426400,38.948426513671876,-2.489841938018799,-1.3446474075317383,-3.8899102210998535
1780854577806459000,39.045458984375,1.6167020797729492,2.5963354110717773,-0.11735697835683823
1780854577854975500,39.0939755859375,0.9214409589767456,3.248960018157959,0.42823752760887146
1780854577903491800,39.142491943359374,-1.4861149787902832,0.6518440246582031,1.4046359062194824
1780854578000524500,39.23952465820312,2.2630014419555664,1.114119529724121,-0.0875437930226326
1780854578049041000,39.288041015625,6.799317359924316,1.5891237258911133,-1.0334446430206299
1780854578097557500,39.3365576171875,1.685010552406311,-4.7382049560546875,-0.5647701621055603
1780854578146073600,39.385073486328125,-0.8687534332275391,-4.338553428649902,3.050246238708496
1780854578194590000,39.43358984375,-2.6277270317077637,1.9460368156433105,-0.7613418102264404
1780854578291623000,39.53062280273438,-2.068955183029175,-6.569791793823242,3.78552508354187
1780854578340139300,39.57913916015625,-5.276325225830078,-1.2300090789794922,4.275430679321289
1780854578388655400,39.6276552734375,-1.1287729740142822,2.3314504623413086,-1.952683925628662
1780854578437172000,39.676171875,2.763310432434082,3.8210530281066895,-1.2678344249725342
1780854578485688300,39.724688232421876,0.7325421571731567,4.1523919105529785,-0.14946752786636353
1780854578534204700,39.77320458984375,1.195501446723938,3.7330427169799805,2.154120445251465
1780854578582721000,39.821720947265625,-0.34403014183044434,-2.2347593307495117,2.8909449577331543
1780854578631237000,39.87023706054688,1.6913468837738037,-3.4237241744995117,2.5127604007720947
1780854578679753700,39.918753662109374,0.7627313137054443,-5.841853141784668,5.387090682983398
1780854578728270000,39.96727001953125,-3.19464373588562,-2.2938852310180664,-3.929534435272217
1780854578776786400,40.01578637695312,-0.013900160789489746,0.861149787902832,-4.48777437210083
1780854578825302800,40.064302734375,1.5886473655700684,-1.199519157409668,-7.729206085205078
1780854578873819100,40.11281909179687,0.22753119468688965,-0.10088157653808594,-3.8086419105529785
1780854578922335500,40.16133544921875,0.09223687648773193,1.2591400146484375,1.1317321062088013
1780854578970851800,40.20985180664063,0.33733606338500977,2.7389845848083496,1.8888819217681885
1780854579019368200,40.2583681640625,-0.01572054624557495,1.9274053573608398,0.5231884717941284
1780854579067884500,40.30688452148438,0.5336022973060608,1.4776115417480469,1.061549425125122
1780854579116401000,40.35540087890625,1.5493788719177246,0.4662017822265625,0.1931004375219345
1780854579164917200,40.40391723632813,6.99806547164917,2.301596164703369,2.2213830947875977
1780854579213433600,40.45243359375,2.0786643028259277,-4.7081499099731445,1.0526094436645508
1780854579261950000,40.500949951171876,0.08666795492172241,-3.023853302001953,0.5294548869132996
1780854579310466600,40.54946655273437,-2.0320723056793213,2.1541948318481445,-1.1089714765548706
1780854579407499000,40.6464990234375,-2.1736624240875244,-7.763358116149902,4.581225395202637
1780854579456015600,40.695015625,-5.725746154785156,0.6621685028076172,5.189094543457031
1780854579504532000,40.74353198242188,-1.2873258590698242,3.78024959564209,-0.16114112734794617
1780854579553048300,40.79204833984375,2.0406713485717773,3.8388242721557617,-1.5592352151870728
1780854579601564400,40.840564453125,1.1260130405426025,3.442905902862549,-2.0497963428497314
1780854579650080800,40.88908081054687,0.8175709247589111,2.599050998687744,1.8522030115127563
1780854579698597400,40.937597412109376,0.2944052219390869,-2.4079999923706055,3.313472032546997
1780854579747113500,40.98611352539063,1.7827403545379639,-5.025043487548828,2.925001382827759
1780854579795629800,41.0346298828125,0.15103864669799805,-4.871356010437012,-0.7394992709159851
1780854579892662800,41.131662841796874,0.10534870624542236,-2.3227882385253906,-3.5870234966278076
1780854579941179100,41.18017919921875,-1.6928794384002686,-2.2753639221191406,-3.9082517623901367
1780854579989695500,41.22869555664062,-0.14100760221481323,2.438638687133789,-3.0376381874084473
1780854580038211600,41.277211669921876,1.592070460319519,3.278792381286621,-1.979096531867981
1780854580086728200,41.32572827148437,2.466022253036499,3.4150333404541016,0.1349090337753296
1780854580135244500,41.37424462890625,0.2623978853225708,1.5856208801269531,2.27378249168396
1780854580183761000,41.42276098632812,0.20607656240463257,0.4973936080932617,2.982501268386841
1780854580232277000,41.471277099609374,1.0515025854110718,0.42454051971435547,0.3368804454803467
1780854580280793300,41.51979345703125,5.507205963134766,1.5124177932739258,-0.9883486032485962
1780854580329310000,41.56831005859375,6.213919639587402,-3.215548515319824,-0.9839659333229065
1780854580377826000,41.616825927734375,-0.011535197496414185,-4.6435747146606445,2.111774206161499
1780854580426342400,41.66534228515625,-2.073714256286621,1.3603382110595703,1.1188522577285767
1780854580474858800,41.713858642578124,-1.51750910282135,0.8598136901855469,-4.044384002685547
1780854580523375400,41.76237524414063,-2.5958991050720215,-7.285274505615234,1.6332520246505737
1780854580571891500,41.81089135742187,-3.670207977294922,-1.5489444732666016,5.336892604827881
1780854580620407800,41.85940771484375,-1.9251749515533447,2.640089511871338,-0.0019375383853912354
1780854580668924200,41.90792407226562,1.3557332754135132,4.2888264656066895,-1.78318452835083
1780854580717440500,41.9564404296875,0.8959842920303345,3.872624397277832,-1.8447389602661133
1780854580765956900,42.00495678710938,1.8191026449203491,4.298257827758789,0.2373681664466858
1780854580814473200,42.05347314453125,-1.1493017673492432,-1.8806371688842773,3.2443761825561523
1780854580862989600,42.10198950195313,1.7518390417099,-4.391298294067383,1.0745470523834229
1780854580911506200,42.150506103515625,4.178710460662842,-4.423688888549805,4.120847702026367
1780854581008538600,42.24753857421875,-0.35291457176208496,-1.3838605880737305,-1.8372573852539062
1780854581057055000,42.296054931640626,-1.4130754470825195,-3.9968128204345703,-5.064834117889404
1780854581105571300,42.3445712890625,-1.3414784669876099,1.529855728149414,-3.9101994037628174
1780854581154087700,42.393087646484375,0.9055984020233154,3.264092445373535,-1.0250203609466553
1780854581202604000,42.44160400390625,1.8653326034545898,4.14329195022583,1.1840143203735352
1780854581251120400,42.490120361328124,0.34067302942276,2.501631259918213,1.7670828104019165
1780854581299636700,42.53863671875,-0.9176639914512634,-0.15436458587646484,1.5845222473144531
1780854581348153000,42.58715307617187,2.1896603107452393,0.3598823547363281,-0.23747661709785461
1780854581396669400,42.63566943359375,7.100941181182861,2.2200002670288086,-1.1314160823822021
1780854581445185500,42.684185546875,2.73091459274292,-4.627727508544922,-1.3523688316345215
1780854581493702000,42.732701904296874,0.9559047818183899,-3.7742767333984375,2.4876720905303955
1780854581542218500,42.78121850585938,-2.8746132850646973,0.6600446701049805,1.4948066473007202
1780854581590734800,42.82973486328125,-0.9451356530189514,-0.7495384216308594,-3.0399584770202637
1780854581639251000,42.8782509765625,-2.2872531414031982,-5.808673858642578,1.3136236667633057
1780854581687767300,42.92676733398437,-4.984689712524414,-0.7209749221801758,3.4409055709838867
1780854581736284000,42.97528393554688,-1.5386686325073242,2.7955260276794434,0.030944406986236572
1780854581784800000,43.02380004882812,1.4636858701705933,4.313455581665039,-2.0148866176605225
1780854581833316400,43.07231640625,0.6427603960037231,3.982365608215332,-1.8898426294326782
1780854581881832700,43.12083276367188,1.4133700132369995,3.6934242248535156,0.9116470217704773
1780854581930349000,43.16934912109375,-0.7350848913192749,-2.055662155151367,3.8051631450653076
1780854581978865400,43.21786547851563,1.1645739078521729,-4.676339149475098,1.6224229335784912
1780854582027381800,43.2663818359375,2.9230403900146484,-4.636483192443848,3.2643275260925293
1780854582075898000,43.314898193359376,-3.2116034030914307,-0.6316375732421875,-4.664093017578125
1780854582124414500,43.36341455078125,0.00022161006927490234,0.28601646423339844,-0.986592173576355
1780854582172930800,43.411930908203125,-0.6498497724533081,-3.879157066345215,-3.592120885848999
1780854582221447000,43.46044702148438,-2.3780617713928223,0.6934890747070312,-3.4088823795318604
1780854582269963300,43.50896337890625,0.27186137437820435,2.3825459480285645,-1.0568296909332275
1780854582318480000,43.55747998046875,2.0383050441741943,3.237217903137207,0.3982296586036682
1780854582366996000,43.60599584960938,1.1004865169525146,2.3741488456726074,1.0233694314956665
1780854582415512300,43.65451220703125,-0.8490719795227051,0.3080778121948242,1.5860693454742432
1780854582464028700,43.70302856445313,1.7570358514785767,1.3176279067993164,0.7030777335166931
1780854582512545000,43.751544921875,4.783486366271973,1.3487625122070312,-1.0077341794967651
1780854582609577700,43.84857763671875,0.9032370448112488,-4.309481620788574,2.100576877593994
1780854582658093800,43.89709375,-2.47664737701416,-1.3530941009521484,1.5393028259277344
1780854582706610200,43.94561010742188,-1.4128177165985107,1.2902774810791016,-2.693359613418579
1780854582755126500,43.99412646484375,-2.090282678604126,-4.475130081176758,0.057665884494781494
1780854582803643000,44.04264282226563,-4.3413848876953125,-1.7416057586669922,3.9736387729644775
1780854582852159200,44.0911591796875,-2.451766014099121,1.2226476669311523,0.8111592531204224
1780854582900675600,44.139675537109376,0.43219995498657227,3.139068603515625,-1.5547950267791748
1780854582949192000,44.18819189453125,0.8685640096664429,3.2802953720092773,-1.8568155765533447
1780854582997708300,44.236708251953125,1.0966471433639526,3.565143585205078,-0.9030188918113708
1780854583046224600,44.285224609375,-0.20996999740600586,1.0903663635253906,4.123330593109131
1780854583094740700,44.33374072265625,1.2406600713729858,-4.225435256958008,0.7455202341079712
1780854583143257000,44.382257080078126,4.782853603363037,-3.7141008377075195,4.689761161804199
1780854583191773700,44.43077368164062,-1.8679759502410889,-2.5765933990478516,-2.516749382019043
1780854583240289800,44.479289794921876,-2.9784021377563477,-0.11971092224121094,-3.178187608718872
1780854583288806100,44.52780615234375,-0.058977603912353516,-3.550281524658203,-2.700258731842041
1780854583337322200,44.576322265625,-2.803750991821289,-0.35489368438720703,-3.9348604679107666
1780854583385838800,44.6248388671875,-0.09330105781555176,1.9141921997070312,-2.407315254211426
1780854583434355200,44.673355224609374,3.648176908493042,3.473376750946045,-0.09364262223243713
1780854583482871300,44.721871337890626,0.2661612629890442,3.222090721130371,0.5487258434295654
1780854583531387600,44.7703876953125,-0.8627830743789673,0.209075927734375,2.016568422317505
1780854583628420400,44.86742041015625,3.260850667953491,1.3337373733520508,-0.36330610513687134
1780854583676936700,44.915936767578124,6.061744213104248,0.021421432495117188,-1.2590241432189941
1780854583773969400,45.01296948242187,0.48956114053726196,-0.011156082153320312,2.882506847381592
1780854583822485800,45.06148583984375,-2.7532694339752197,0.1135244369506836,-0.06019693613052368
1780854583871002000,45.11000219726562,-2.0414540767669678,-5.158745765686035,-2.231260299682617
1780854583919518200,45.158518310546874,-4.04978609085083,-4.2899274826049805,3.32770037651062
1780854583968034600,45.20703466796875,-3.0177509784698486,0.18974685668945312,2.395683765411377
1780854584016551000,45.25555102539062,0.5559893846511841,3.4747161865234375,-1.2965354919433594
1780854584065067000,45.30406689453125,1.1861618757247925,4.225006580352783,-2.588243246078491
1780854584113583400,45.35258325195313,0.9131081104278564,4.432834625244141,-2.543839454650879
1780854584210616000,45.44961596679688,-0.9196966886520386,-4.558016777038574,1.9576289653778076
1780854584259132400,45.49813232421875,3.2854020595550537,-4.539023399353027,3.115034341812134
1780854584307648800,45.546648681640626,1.7843406200408936,-3.784419059753418,3.5495731830596924
1780854584356164900,45.59516479492188,-4.110076904296875,0.3153057098388672,-5.855041027069092
1780854584404681200,45.64368115234375,0.7281982898712158,-2.3074378967285156,-2.073049306869507
1780854584453197600,45.69219750976563,-2.1801042556762695,-2.493682861328125,-4.397370338439941
1780854584501714000,45.7407138671875,-0.9901716709136963,1.2158727645874023,-3.5753402709960938
1780854584598746600,45.83774658203125,1.615514874458313,3.6932759284973145,0.526736855506897
1780854584647263000,45.886262939453125,-1.2491858005523682,1.068873405456543,2.871506452560425
1780854584744295400,45.98329541015625,2.6311395168304443,1.6410551071166992,0.2983894944190979
1780854584792811800,46.03181176757813,6.187855243682861,1.737837791442871,-0.8225643634796143
1780854584841328000,46.080328125,1.9157618284225464,-5.179828643798828,-0.8727322816848755
1780854584889844200,46.12884423828125,1.8239096403121948,-2.146336555480957,1.7075839042663574
1780854584938360600,46.17736059570313,-2.2590930461883545,0.8107280731201172,1.9203649759292603
1780854584986877000,46.225876953125,-0.5080193281173706,0.14176654815673828,-1.8291289806365967
1780854585035393300,46.27439331054688,-1.819385290145874,-6.444808006286621,0.6438308358192444
1780854585083909600,46.32290966796875,-5.4475321769714355,-1.6721725463867188,3.3250813484191895
1780854585132425700,46.37142578125,-1.7737585306167603,1.9681892395019531,-0.5392111539840698
1780854585180942300,46.4199423828125,1.4674421548843384,4.0440778732299805,-1.97316312789917
1780854585229458400,46.46845849609375,1.1411556005477905,4.438257217407227,-2.081610679626465
1780854585277974800,46.51697485351563,1.641716480255127,4.570045471191406,0.35811883211135864
1780854585326491000,46.56549096679687,-0.8047038316726685,-1.3429841995239258,3.105790138244629
1780854585375007200,46.61400732421875,0.9522006511688232,-6.580752372741699,2.6750965118408203
1780854585423523800,46.66252392578125,1.8328871726989746,-6.116968154907227,4.167647361755371
1780854585472040000,46.7110400390625,-1.9952882528305054,0.9732704162597656,-6.099606037139893
1780854585520556300,46.75955639648438,2.33416748046875,1.1328248977661133,-2.5089845657348633
1780854585569072400,46.808072265625,-2.6377696990966797,-5.343538284301758,-2.934419631958008
1780854585617589000,46.85658911132813,-2.4594805240631104,0.9522647857666016,-3.173222541809082
1780854585714621400,46.953621337890624,2.4543027877807617,3.6531858444213867,-0.5079883337020874
1780854585763137500,47.002137451171876,0.46925121545791626,2.846792221069336,1.3740872144699097
1780854585811654100,47.05065405273437,-0.0463087260723114,0.5529413223266602,2.763531446456909
1780854585860170200,47.099170166015625,1.3138115406036377,1.270634651184082,1.7285211086273193
1780854585908686600,47.1476865234375,3.8720173835754395,-0.013764381408691406,-3.210907220840454
1780854585957203000,47.196202880859374,6.139144420623779,-1.8275184631347656,-1.5565248727798462
1780854586005719000,47.24471899414063,2.4812986850738525,-3.8046483993530273,2.713809013366699
1780854586054235400,47.2932353515625,-2.5847530364990234,-0.6426000595092773,2.255894422531128
1780854586102751700,47.341751708984376,-2.825005292892456,2.046515464782715,-2.8406782150268555
1780854586151268000,47.39026806640625,-1.2605137825012207,-5.97039794921875,-1.887908697128296
1780854586199784200,47.4387841796875,-4.581671714782715,-4.7867326736450195,6.347954750061035
1780854586248300500,47.48730053710938,-3.636737823486328,1.3038969039916992,2.35215425491333
1780854586296817000,47.53581689453125,0.5410302877426147,3.022599220275879,-0.8812709450721741
1780854586345333000,47.5843330078125,1.677979588508606,4.3812174797058105,-3.213719367980957
1780854586442366000,47.681365966796875,0.8904484510421753,3.3635849952697754,2.7101969718933105
1780854586490882000,47.72988208007813,0.5665335655212402,-5.163381576538086,1.5489952564239502
1780854586539398400,47.7783984375,3.3089048862457275,-4.5078582763671875,4.958771705627441
1780854586587914500,47.82691455078125,-0.09086167812347412,-3.669430732727051,0.247717946767807
1780854586636430800,47.87543090820313,-3.9676828384399414,-0.4161663055419922,-4.800037860870361
1780854586684947200,47.923947265625,-0.3685694932937622,-1.7841920852661133,-1.973884105682373
1780854586733463300,47.97246337890625,-2.251922607421875,-1.6940593719482422,-4.272776126861572
1780854586781979600,48.02097973632812,-0.626101553440094,1.2110834121704102,-4.242563724517822
1780854586830496000,48.06949609375,2.959677219390869,2.9871225357055664,-1.0240825414657593
1780854586879012400,48.11801245117187,1.7843289375305176,3.463407516479492,0.8098656535148621
1780854586927528700,48.16652880859375,-1.0849632024765015,0.8273067474365234,3.0093321800231934
1780854586976045000,48.21504516601563,1.535646677017212,0.5707530975341797,3.135099172592163
1780854587024561200,48.26356103515625,1.8640239238739014,1.0687332153320312,0.8252050876617432
1780854587073077500,48.312077392578125,4.846883773803711,0.46613121032714844,-3.2953855991363525
1780854587121593600,48.36059350585938,4.167365074157715,-3.4174633026123047,-0.9167218208312988
1780854587170110000,48.40910986328125,1.1412079334259033,-2.6045427322387695,2.792604923248291
1780854587218626300,48.457626220703126,-2.4253194332122803,0.3163623809814453,1.046797513961792
1780854587315658800,48.55465869140625,-2.05930495262146,-6.79841423034668,1.1793854236602783
1780854587364175000,48.60317504882813,-4.564095973968506,-2.372243881225586,3.6469533443450928
1780854587412691200,48.65169116210937,-1.8288389444351196,1.3986701965332031,-0.10596131533384323
1780854587461207600,48.70020751953125,2.4456539154052734,3.6389966011047363,-2.1371450424194336
1780854587509724000,48.74872387695312,0.3503117561340332,4.067511081695557,-3.0938470363616943
1780854587558240000,48.797239990234374,0.5772223472595215,4.334628105163574,-1.1256885528564453
1780854587655272700,48.89427270507812,0.8077280521392822,-5.660346984863281,0.22631022334098816
1780854587703789000,48.9427890625,4.426659107208252,-4.519684791564941,4.944324016571045
1780854587752305400,48.99130541992187,-1.4640032052993774,-1.9677114486694336,-2.1582155227661133
1780854587800821500,49.039821533203124,-1.8810681104660034,1.3973426818847656,-2.5449650287628174
1780854587849337900,49.088337890625,-0.2809906005859375,-3.589634895324707,-2.6741580963134766
1780854587897854200,49.13685424804687,-2.387643337249756,-0.5158901214599609,-3.566863536834717
1780854587946370600,49.18537060546875,0.12926989793777466,2.1678857803344727,-2.6493844985961914
1780854587994886700,49.23388671875,2.8409242630004883,2.758641242980957,-0.22074589133262634
1780854588043402800,49.28240283203125,0.14722013473510742,2.785315990447998,0.926184892654419
1780854588091919400,49.33091943359375,-1.0706971883773804,0.754796028137207,2.607927083969116
1780854588140435500,49.379435546875,2.012406349182129,1.5632286071777344,1.3859131336212158
1780854588188951800,49.427951904296876,2.779301404953003,0.2961101531982422,-1.4059174060821533
1780854588237468000,49.47646801757813,5.985095977783203,-0.8836469650268555,-1.9574757814407349
1780854588285984300,49.524984375,1.388929843902588,-4.094570159912109,0.9326488971710205
1780854588334500600,49.57350048828125,0.06965780258178711,-1.2756614685058594,3.3908581733703613
1780854588431533000,49.670532958984374,-0.5652265548706055,-3.0760908126831055,-2.56693696975708
1780854588528565800,49.76756567382812,-4.4842119216918945,0.12149810791015625,3.0736985206604004
1780854588577081900,49.816081787109376,0.7626807689666748,3.133333206176758,-0.3618037700653076
1780854588625598200,49.86459814453125,2.319957733154297,4.678740501403809,-3.025665521621704
1780854588674114300,49.9131142578125,0.13970839977264404,3.7972965240478516,-2.61830997467041
1780854588722630700,49.96163061523438,1.0681779384613037,3.3386483192443848,1.5360724925994873
1780854588771147000,50.01014697265625,-0.5019900798797607,-4.790156364440918,2.0855343341827393
1780854588819663000,50.0586630859375,4.655463218688965,-4.9341630935668945,3.534583806991577
1780854588916695800,50.15569580078125,-3.709782361984253,1.1274299621582031,-4.311434745788574
1780854588965212000,50.2042119140625,0.47411084175109863,-0.22183990478515625,-1.0418412685394287
1780854589013728300,50.25272827148437,-2.221714973449707,-3.810519218444824,-3.1438839435577393
1780854589062244600,50.30124462890625,-2.0895214080810547,1.833669662475586,-2.6948556900024414
1780854589110760700,50.3497607421875,1.1419823169708252,2.7592411041259766,-1.0062177181243896
1780854589159277000,50.39827709960937,2.143132448196411,3.129164695739746,0.27813106775283813
1780854589207793200,50.446793212890626,-0.6533869504928589,1.3196830749511719,1.857560396194458
1780854589256309500,50.4953095703125,0.5321695804595947,1.4648027420043945,1.7763328552246094
1780854589304825600,50.54382568359375,2.8223257064819336,0.7779960632324219,-0.41367411613464355
1780854589353342000,50.59234204101563,5.55329704284668,-0.47200870513916016,-3.2900006771087646
1780854589401858300,50.6408583984375,1.5300811529159546,-5.404221534729004,0.5184093117713928
1780854589450374700,50.689374755859376,0.19141030311584473,-2.385930061340332,3.7808496952056885
1780854589498890800,50.73789086914063,-1.7728368043899536,1.5119953155517578,0.2308502048254013
1780854589547407400,50.786407470703125,-0.5606064796447754,0.42778682708740234,-3.0834081172943115
1780854589595923500,50.83492333984375,-2.5957984924316406,-5.783236503601074,2.254326105117798
1780854589644439600,50.883439453125,-5.152532577514648,-1.311833381652832,4.25525426864624
1780854589692956000,50.931955810546874,-1.7659196853637695,2.284787654876709,-0.3229508101940155
1780854589741472000,50.98047192382813,1.6716006994247437,4.038608074188232,-1.7751656770706177
1780854589789988400,51.02898828125,1.4605779647827148,4.332292079925537,-2.0182015895843506
1780854589838504700,51.077504638671876,2.08664608001709,4.150969505310059,0.1894882321357727
1780854589887020800,51.12602075195313,-0.8510719537734985,-3.034369468688965,3.0948874950408936
1780854589935537200,51.174537109375,1.513887882232666,-4.668475151062012,2.543156147003174
1780854590032569600,51.27156958007812,-3.9061830043792725,-1.578141212463379,-5.595127105712891
1780854590081086000,51.3200859375,-0.9700062274932861,0.42169666290283203,-2.89711594581604
1780854590129602000,51.36860205078125,-1.7787264585494995,-3.852579116821289,-3.194328546524048
1780854590178118400,51.41711840820312,-1.774471402168274,1.0261163711547852,-3.5808908939361572
1780854590226634500,51.465634521484375,2.082664966583252,2.220102310180664,-1.3483976125717163
1780854590275150800,51.51415087890625,1.3833036422729492,3.0272741317749023,-0.024494707584381104
1780854590323667200,51.562667236328124,-0.42152589559555054,2.009960174560547,1.8169324398040771
1780854590372183300,51.61118334960938,0.4057798385620117,0.9041957855224609,2.9223506450653076
1780854590420699600,51.65969970703125,2.5577805042266846,1.3658246994018555,1.56279456615448
1780854590517732000,51.75673217773438,5.092512607574463,-2.121175765991211,-1.6516985893249512
1780854590566248400,51.80524853515625,1.3454616069793701,-3.3383588790893555,1.394193172454834
1780854590614764500,51.8537646484375,-0.07789397239685059,-0.2034139633178711,2.8798844814300537
1780854590663281000,51.90228100585937,-2.1310510635375977,2.1632699966430664,-0.8618719577789307
1780854590711797200,51.95079736328125,-1.1873573064804077,-3.016789436340332,-2.203925848007202
1780854590760313300,51.999313232421876,-3.7591042518615723,-4.868512153625488,2.8048148155212402
1780854590808829400,52.04782934570313,-3.652656078338623,0.05267810821533203,2.66644549369812
1780854590857346000,52.096345947265625,0.6305712461471558,2.7843122482299805,-0.5792136192321777
1780854590905862100,52.14486206054688,1.6120765209197998,4.136451244354248,-1.9229540824890137
1780854590954378200,52.19337817382812,0.9100382328033447,3.667064666748047,-0.812469482421875
1780854591002894600,52.24189453125,1.3432453870773315,2.851224422454834,2.260301113128662
1780854591051410700,52.29041064453125,-0.20360493659973145,-4.622494697570801,0.6434423923492432
1780854591099927000,52.338927001953124,3.6362743377685547,-3.8225202560424805,4.952451705932617
1780854591148443400,52.387443359375,-0.1423708200454712,-3.348658561706543,-0.9905653595924377
1780854591196959500,52.43595947265625,-1.8943595886230469,0.4146842956542969,-4.100491523742676
1780854591245475800,52.484475830078125,-1.001889705657959,-1.7327346801757812,-2.099209785461426
1780854591293992200,52.5329921875,-1.803721308708191,-1.1298255920410156,-3.7955482006073
1780854591342508300,52.58150830078125,-0.24193835258483887,2.1129441261291504,-2.562433958053589
1780854591391024400,52.6300244140625,3.49552321434021,2.9267096519470215,-0.1254759579896927
1780854591439540700,52.67854077148438,-0.5580500364303589,2.4356417655944824,1.2770206928253174
1780854591488057000,52.72705712890625,-1.9002938270568848,-0.020753860473632812,0.6541461944580078
1780854591536573200,52.7755732421875,2.5645971298217773,0.8907661437988281,1.3371467590332031
1780854591585089300,52.82408935546875,3.092496871948242,1.298426628112793,0.3552743196487427
1780854591633605600,52.872605712890625,7.253164291381836,0.3191976547241211,-1.3125429153442383
1780854591682122000,52.9211220703125,0.8665070533752441,-4.908260345458984,-0.24489372968673706
1780854591730638000,52.96963818359375,0.04019427299499512,-0.45583438873291016,3.0215659141540527
1780854591779154400,53.018154541015626,-2.0901520252227783,0.9332256317138672,-1.1912591457366943
1780854591876187000,53.11518676757812,-4.887816429138184,-4.667351722717285,3.4490809440612793
1780854591924703000,53.163702880859375,-3.077176094055176,0.8608770370483398,1.4306479692459106
1780854591973219300,53.21221923828125,1.0263481140136719,3.2194223403930664,-0.7218321561813354
1780854592021735700,53.260735595703125,1.2977497577667236,4.525875091552734,-2.237905979156494
1780854592070251800,53.30925170898438,0.751684308052063,4.430925369262695,-1.5148389339447021
1780854592167284500,53.406284423828126,0.10477137565612793,-4.465976715087891,1.0892326831817627
1780854592215800600,53.45480053710938,4.260951995849609,-4.104469299316406,5.100876808166504
1780854592264316700,53.50331665039062,-0.41197001934051514,-3.414463996887207,-0.17719203233718872
1780854592312833000,53.5518330078125,-2.799785614013672,0.0742034912109375,-4.8067851066589355
1780854592361349000,53.60034912109375,0.08518898487091064,-2.245372772216797,-1.878139615058899
1780854592409865500,53.648865478515624,-2.145862340927124,-1.1426334381103516,-3.3076140880584717
1780854592458381600,53.697381591796876,-0.1325441598892212,1.2935676574707031,-3.002882480621338
1780854592506898000,53.74589794921875,1.9791358709335327,2.423673629760742,-0.6008422374725342
1780854592555414300,53.794414306640626,0.6360874176025391,3.369403839111328,0.6862333416938782
1780854592603930400,53.84293041992188,-1.3328585624694824,1.0475730895996094,2.211726188659668
1780854592652446500,53.89144653320312,1.0039805173873901,1.0959711074829102,2.0236330032348633
1780854592700962800,53.939962890625,1.7935404777526855,0.9086551666259766,-0.45467105507850647
1780854592749479200,53.98847924804687,6.878183841705322,0.2963390350341797,-3.1737921237945557
1780854592797995300,54.036995361328124,2.19254732131958,-5.16357421875,0.2828235328197479
1780854592846511400,54.085511474609376,0.3615782856941223,-2.581012725830078,4.040497779846191
1780854592895027700,54.13402783203125,-2.888061046600342,0.28759288787841797,0.513235330581665
1780854592943544000,54.1825439453125,-0.5143826007843018,0.2405405044555664,-2.8892505168914795
1780854592992060200,54.23106005859375,-2.311152696609497,-4.930809020996094,1.7640340328216553
1780854593040576500,54.27957641601562,-4.9958415031433105,-0.923675537109375,4.013975620269775
1780854593089092600,54.328092529296875,-1.552121877670288,1.8258752822875977,-0.5405641794204712
1780854593137609000,54.37660888671875,2.0029149055480957,4.049886703491211,-2.3086273670196533
1780854593186125000,54.425125,0.2023029327392578,3.750387668609619,-2.1391026973724365
1780854593234641400,54.473641357421876,1.680598258972168,4.1890411376953125,0.4143613874912262
1780854593283157500,54.52215747070313,-0.9895257949829102,-1.821547508239746,4.002587795257568
1780854593331673900,54.570673828125,2.357675552368164,-4.377236366271973,1.5825729370117188
1780854593380190000,54.61918994140625,4.412351608276367,-3.043458938598633,4.6630120277404785
1780854593428706000,54.6677060546875,-5.029055595397949,-2.279132843017578,-4.997973918914795
1780854593477222400,54.716222412109374,-0.37226784229278564,0.41788196563720703,-0.6876358985900879
1780854593525738800,54.76473876953125,0.548184871673584,-2.175922393798828,-2.7983779907226562
1780854593574254800,54.8132548828125,-3.7194156646728516,-1.8112754821777344,-5.052593231201172
1780854593671287300,54.91028735351563,2.7260706424713135,3.0140938758850098,0.0036589205265045166
1780854593719803400,54.95880346679687,0.952873706817627,2.7319560050964355,1.1548413038253784
1780854593768319700,55.00731982421875,-1.31760835647583,1.0435428619384766,1.3225483894348145
1780854593816835800,55.0558359375,1.0322753190994263,1.903106689453125,1.6047019958496094
1780854593865352200,55.104352294921874,4.247903823852539,0.15048885345458984,-1.4307056665420532
1780854593913868500,55.15286865234375,5.916428089141846,-1.5793838500976562,-0.9434158802032471
1780854593962384600,55.20138452148438,1.5315097570419312,-3.6546812057495117,2.475780725479126
1780854594010901000,55.24990087890625,-0.3476121425628662,-0.7081584930419922,2.5624523162841797
1780854594059417000,55.2984169921875,-2.017063617706299,0.3551006317138672,-1.8486700057983398
1780854594107933200,55.34693310546875,-2.092597007751465,-5.10842227935791,-1.7114758491516113
1780854594156449500,55.395449462890625,-4.581663608551025,-3.8498878479003906,4.764363765716553
1780854594204965600,55.44396557617188,-3.1800951957702637,1.0274534225463867,2.2182528972625732
1780854594253482000,55.49248193359375,1.110824465751648,3.789809226989746,-1.723160982131958
1780854594301998000,55.540998046875,1.5635219812393188,4.611202239990234,-2.923391103744507
1780854594350514200,55.58951416015625,1.1222811937332153,4.369034767150879,-1.7033400535583496
1780854594399030800,55.63803076171875,0.5658600330352783,1.8941926956176758,3.0512309074401855
1780854594447547000,55.686546875,-0.4989001750946045,-6.500680923461914,0.8832292556762695
1780854594496063000,55.73506298828125,4.213585376739502,-2.2536821365356445,4.626128673553467
1780854594544579000,55.7835791015625,1.4487048387527466,-2.471787452697754,0.3660779893398285
1780854594593095400,55.83209545898438,-4.2955098152160645,-1.1028223037719727,-5.0943827629089355
1780854594641611800,55.88061181640625,-0.2558465003967285,-0.8189983367919922,-1.090423583984375
1780854594690128000,55.9291279296875,-1.993092656135559,-2.3075037002563477,-4.5633368492126465
1780854594738644000,55.97764404296875,-1.416828989982605,1.1036767959594727,-2.826486587524414
1780854594787160300,56.02616040039062,2.210434913635254,2.875664710998535,-0.35532888770103455
1780854594835676700,56.0746767578125,1.972564935684204,3.5303831100463867,0.6652485728263855
1780854594884192800,56.12319287109375,-0.7227332592010498,0.7946100234985352,2.2209601402282715
1780854594932708900,56.171708984375,0.700027585029602,0.25858116149902344,1.3201911449432373
1780854594981225000,56.220224853515624,2.7697408199310303,1.5376701354980469,-0.17534548044204712
1780854595029741300,56.2687412109375,6.898801803588867,2.089949131011963,-2.0153615474700928
1780854595078257700,56.31725756835937,2.5434298515319824,-4.8916473388671875,-0.28328537940979004
1780854595126773800,56.365773681640626,0.3597346544265747,-3.001917839050293,3.9733352661132812
1780854595175290000,56.4142900390625,-3.8918848037719727,-0.45204734802246094,-0.6015020608901978
1780854595272322600,56.51132250976563,-3.003526210784912,-5.771153450012207,2.479059934616089
1780854595320838700,56.55983862304687,-3.366163969039917,-0.8701286315917969,4.793184757232666
1780854595369354800,56.608354736328124,-0.7603922486305237,2.6732687950134277,-1.0417062044143677
1780854595466387200,56.70538720703125,0.6530238389968872,3.712475299835205,-1.8602476119995117
1780854595514903300,56.7539033203125,2.1579508781433105,4.175058841705322,1.2311816215515137
1780854595563419600,56.80241967773438,-0.807101845741272,-2.7395830154418945,3.7122132778167725
1780854595611936000,56.85093603515625,2.2383227348327637,-3.4828872680664062,0.621282696723938
1780854595660452000,56.8994521484375,4.1471967697143555,-3.318319320678711,6.157009601593018
1780854595708968400,56.94796850585937,-5.363741874694824,-2.561070442199707,-4.620192050933838
1780854595757484500,56.996484619140624,-0.6419151425361633,-0.6965627670288086,-2.880552053451538
1780854595806000600,57.045000732421876,0.027051806449890137,-3.2116098403930664,-6.220605850219727
1780854595854516700,57.09351684570313,-2.098527193069458,0.44855308532714844,-3.605407953262329
1780854595903033300,57.142033447265625,1.219081163406372,2.559774398803711,-0.537714421749115
1780854595951549200,57.190549072265625,1.4198983907699585,3.686520576477051,0.8431628346443176
1780854596000065500,57.2390654296875,-1.2720308303833008,1.4671907424926758,2.03973126411438
1780854596048581600,57.28758154296875,1.115286111831665,0.7659549713134766,2.1088054180145264
1780854596145614000,57.38461401367187,6.662326812744141,0.8215255737304688,-3.917287826538086
1780854596194130400,57.43313037109375,2.312594413757324,-3.5703201293945312,-0.9817477464675903
1780854596242646500,57.481646484375,1.8604984283447266,-2.255070686340332,3.833735704421997
1780854596291163000,57.53016284179687,-2.1489596366882324,-0.28537940979003906,2.3813977241516113
1780854596339679000,57.578678955078125,-1.8545883893966675,-0.6877479553222656,-1.5974526405334473
1780854596388195000,57.62719506835938,-2.901789665222168,-6.8054914474487305,1.1206026077270508
1780854596436711200,57.67571118164062,-3.829479455947876,-1.5991325378417969,3.3267829418182373
1780854596485227500,57.7242275390625,-1.5842831134796143,2.365558624267578,-0.442747563123703
1780854596533743900,57.77274389648438,1.0627318620681763,4.51301908493042,-2.0447912216186523
1780854596582260000,57.82126000976562,0.40601181983947754,4.0796637535095215,-2.439533233642578
1780854596630776000,57.869776123046876,1.5896897315979004,4.463421821594238,-0.08581292629241943
1780854596679292400,57.91829248046875,-0.4664616584777832,-1.5254192352294922,3.731823444366455
1780854596727808500,57.96680859375,0.45084166526794434,-5.7232160568237305,1.741573691368103
1780854596776324600,58.01532470703125,3.8232498168945312,-2.066342353820801,5.09140682220459
1780854596873357300,58.112357421875,-2.6184186935424805,0.22241973876953125,-3.741088628768921
1780854596921873400,58.160873291015626,-0.03361654281616211,-2.2661123275756836,-2.3694870471954346
1780854596970389500,58.20938940429688,-2.2445428371429443,-0.7040634155273438,-4.352638244628906
1780854597018905900,58.25790576171875,0.9878504276275635,1.799036979675293,-2.2997658252716064
1780854597067422000,58.306421875,2.4059152603149414,2.723527431488037,0.36551526188850403
1780854597164454400,58.403454345703125,0.08057540655136108,0.5856838226318359,2.4311158657073975
1780854597212970800,58.451970703125,1.9820356369018555,1.4216480255126953,1.3368866443634033
1780854597261486600,58.50048657226562,2.319601535797119,1.2499513626098633,-1.2097303867340088
1780854597310003000,58.5490029296875,6.522698402404785,0.13421249389648438,-1.9761499166488647
1780854597358519000,58.59751904296875,2.228480339050293,-4.212606430053711,1.8682441711425781
1780854597407035400,58.64603540039062,0.05847430229187012,-1.9923019409179688,3.084819793701172
1780854597455551500,58.694551513671875,-2.856729507446289,-0.4048585891723633,-1.4871935844421387
1780854597504067600,58.74306762695313,-1.6781504154205322,-2.0111522674560547,-2.3153316974639893
1780854597552584000,58.791583984375,-3.001375198364258,-4.277621269226074,4.121184825897217
1780854597649616100,58.8886162109375,-0.6918382048606873,3.2298684120178223,-1.6133224964141846
1780854597698132500,58.937132568359374,1.3882592916488647,4.228780746459961,-2.651477098464966
1780854597746648600,58.985648681640626,0.4846324920654297,3.5466041564941406,-1.9704780578613281
1780854597795165000,59.0341650390625,1.7370636463165283,3.263233184814453,2.112628221511841
1780854597843681000,59.08268090820312,-0.14716887474060059,-3.848761558532715,2.995779037475586
1780854597892197000,59.131197021484375,2.9059109687805176,-3.685272216796875,3.099181890487671
1780854597940713500,59.17971337890625,2.2499208450317383,-3.440363883972168,3.4268412590026855
1780854597989229600,59.2282294921875,-5.932723522186279,-2.3081798553466797,-7.191394805908203
1780854598037745700,59.27674560546875,0.3693978786468506,-1.380777359008789,-2.9964327812194824
1780854598086262000,59.32526196289062,-1.1256752014160156,-2.114522933959961,-5.567490577697754
1780854598134778000,59.373778076171874,-1.0703151226043701,0.5927228927612305,-2.8993327617645264
1780854598183294200,59.422294189453126,2.7800607681274414,2.983114242553711,-0.45844465494155884
1780854598231810600,59.470810546875,1.3434531688690186,3.523139476776123,0.7098972797393799
1780854598280326700,59.51932666015625,-1.241134524345398,0.8514137268066406,2.318197250366211
1780854598328843000,59.56784301757813,2.003923177719116,0.6755924224853516,2.4218382835388184
1780854598377359000,59.61635913085937,3.277895450592041,1.7906837463378906,-0.025228381156921387
1780854598474391600,59.7133916015625,2.4722256660461426,-4.518816947937012,0.010869927704334259
1780854598522907600,59.76190771484375,0.6244613528251648,-2.4260425567626953,3.799729824066162
1780854598571423700,59.810423828125,-2.8615665435791016,0.3888225555419922,-0.08042389154434204
1780854598619940000,59.85894018554688,-0.689994215965271,0.081268310546875,-3.2650697231292725
1780854598668456200,59.90745629882812,-2.676449775695801,-6.291811943054199,2.582437753677368
1780854598716972500,59.95597265625,-4.7510786056518555,-1.4640302658081055,3.8584964275360107
1780854598765488600,60.00448852539063,-1.5847362279891968,2.5605392456054688,-1.8642948865890503
1780854598814004500,60.05300439453125,1.9510267972946167,4.5121660232543945,-1.3372310400009155
1780854598862520800,60.101520751953124,1.1149576902389526,3.8111958503723145,-2.3866424560546875
1780854598911037200,60.150037109375,1.6396727561950684,3.7296981811523438,-0.21453207731246948
1780854598959553300,60.19855322265625,-0.984542727470398,-1.675119400024414,4.14146089553833
1780854599008070000,60.24706982421875,2.0856542587280273,-3.641556739807129,1.3365706205368042
1780854599056585700,60.29558569335938,4.848379135131836,-3.8162031173706055,4.445697784423828
1780854599105101800,60.34410180664062,-3.0674476623535156,-2.509446144104004,-4.274978160858154
1780854599153618000,60.392617919921875,-2.20277738571167,0.7421865463256836,-1.2889657020568848
1780854599202134000,60.44113403320313,0.030146241188049316,-3.77764892578125,-4.4389238357543945
1780854599250650000,60.48965014648437,-2.599165439605713,0.5363492965698242,-5.191666126251221
1780854599299166700,60.538166748046876,1.1478326320648193,2.439565658569336,-1.618636131286621
1780854599347682800,60.58668286132813,2.3975272178649902,3.034613609313965,0.27977514266967773
1780854599396199000,60.635198974609374,-2.3797638416290283,1.2862062454223633,1.411813735961914
1780854599444715000,60.683715087890626,0.0016061961650848389,0.5405540466308594,0.6601371765136719
1780854599493231400,60.7322314453125,2.741666555404663,2.0275039672851562,1.0857471227645874
1780854599541747500,60.78074755859375,6.838404178619385,1.2161340713500977,-1.924318552017212
1780854599590263600,60.829263671875,2.715667247772217,-4.665997505187988,-0.7528198957443237
1780854599638779600,60.87777954101563,2.168955087661743,-2.223385810852051,3.20292592048645
1780854599687296000,60.9262958984375,-1.9535932540893555,-0.4432334899902344,1.3170101642608643
1780854599735812000,60.97481201171875,-1.8289984464645386,-0.2163076400756836,-3.433846950531006
1780854599784328200,61.023328125,-3.215503215789795,-5.316239356994629,0.6715328693389893
1780854599832844500,61.071844482421874,-3.8790416717529297,-1.6639728546142578,4.981686115264893
1780854599881360600,61.120360595703126,-1.637298822402954,1.4098129272460938,0.035610124468803406
1780854599978393000,61.21739306640625,0.5932375192642212,3.6930761337280273,-2.5172879695892334
1780854600026909200,61.2659091796875,1.3339810371398926,4.051401615142822,-1.3254071474075317
1780854600123941600,61.362941650390624,0.8637946844100952,-5.862884521484375,0.8513267040252686
1780854600172457700,61.411457763671876,5.10575532913208,-3.085516929626465,4.816076278686523
1780854600220974000,61.45997412109375,-1.1460521221160889,-2.279290199279785,-3.226400375366211
1780854600269490200,61.508490234375,-2.861732006072998,1.6735162734985352,-3.0885813236236572
1780854600318006300,61.55700634765625,0.12920737266540527,-2.2172679901123047,-2.077514171600342
1780854600366522600,61.60552270507812,-2.2407307624816895,-1.3270483016967773,-3.3080358505249023
1780854600415038700,61.654038818359375,-1.3359148502349854,2.147724151611328,-2.0507771968841553
1780854600463554800,61.70255493164063,3.0759878158569336,2.3630218505859375,-0.9879379272460938
1780854600512071000,61.75107080078125,1.203489899635315,2.3785696029663086,0.9013961553573608
1780854600560587000,61.7995869140625,-1.627690315246582,0.34813880920410156,2.3554694652557373
1780854600609103400,61.848103271484376,1.2334837913513184,1.796875,0.8232944011688232
1780854600657619500,61.89661938476563,3.697580337524414,0.8067359924316406,-1.5963054895401
1780854600706135600,61.945135498046874,5.782496929168701,-1.113875389099121,-3.045386552810669
1780854600754652000,61.99365185546875,1.3397639989852905,-4.064972877502441,1.9204165935516357
1780854600803168000,62.04216796875,0.2937394976615906,-1.4256763458251953,4.255476951599121
1780854600851684000,62.09068408203125,-2.8601653575897217,0.8676271438598633,-1.057624340057373
1780854600900200200,62.1392001953125,-1.6950905323028564,-2.803041458129883,-2.348548173904419
1780854600948716500,62.18771655273437,-3.971907138824463,-4.090690612792969,3.3299789428710938
1780854600997232600,62.236232666015624,-3.1867361068725586,0.18445682525634766,2.842391014099121
1780854601045748700,62.284748779296876,-0.5093735456466675,2.305960178375244,-0.7043306827545166
1780854601094264800,62.33326489257813,1.521848201751709,3.9317445755004883,-2.5355710983276367
1780854601142781200,62.38178125,0.6229556798934937,3.6502861976623535,-1.5728050470352173
1780854601191297300,62.43029736328125,1.0726854801177979,3.727372169494629,1.840808391571045
1780854601239813400,62.4788134765625,-0.10509109497070312,-3.2102108001708984,1.8464136123657227
1780854601288329700,62.527329833984375,2.6991374492645264,-4.844857215881348,2.805415630340576
1780854601336845800,62.575845703125,2.4862940311431885,-4.9209394454956055,4.4509453773498535
1780854601385362000,62.62436181640625,-4.359134674072266,0.085662841796875,-5.838858127593994
1780854601433878000,62.6728779296875,-0.18514668941497803,-1.0441036224365234,-3.2110416889190674
1780854601482394000,62.72139404296875,-1.713424801826477,-2.6870927810668945,-3.9048211574554443
1780854601579426600,62.818426513671874,2.2754666805267334,2.408729076385498,-1.42326021194458
1780854601627942700,62.866942626953126,1.5180082321166992,3.0906176567077637,0.5436351299285889
1780854601676458800,62.91545874023438,-0.9586839079856873,1.420323371887207,2.4501161575317383
1780854601724975000,62.96397509765625,0.613720178604126,0.45822811126708984,2.539574146270752
1780854601773491200,63.0124912109375,2.5702152252197266,1.5335569381713867,1.0485440492630005
1780854601822007300,63.06100732421875,4.350090980529785,1.010523796081543,-3.2442774772644043
1780854601870523600,63.109523681640624,4.858774662017822,-2.588711738586426,-1.779477834701538
1780854601919039700,63.158039794921876,1.5810832977294922,-3.0874929428100586,3.2140233516693115
1780854601967555800,63.20655590820313,-1.7832127809524536,-0.35912132263183594,2.332014560699463
1780854602016072000,63.255072021484374,-1.8265067338943481,0.6778573989868164,-2.7778677940368652
1780854602064588000,63.303588134765626,-2.6291236877441406,-6.035452842712402,-0.614173412322998
1780854602161620500,63.40062036132812,-2.104739189147949,1.138361930847168,1.4846078157424927
1780854602210136600,63.449136474609375,1.2446287870407104,3.454008102416992,-2.1395857334136963
1780854602258653000,63.49765283203125,1.0622284412384033,4.161294937133789,-3.4098026752471924
1780854602307169000,63.5461689453125,0.6336618661880493,4.2079997062683105,-1.5619783401489258
1780854602355685000,63.59468505859375,-0.3090146780014038,1.6811323165893555,3.4122607707977295
1780854602404201200,63.643201171875,0.9298605918884277,-5.314167022705078,1.83482027053833
1780854602452717300,63.69171728515625,4.056430816650391,-3.7872676849365234,5.324166297912598
1780854602501233700,63.740233642578126,-1.759782314300537,-3.4083995819091797,-2.784022569656372
1780854602549749800,63.78874975585938,-1.9144428968429565,0.40311336517333984,-4.373991012573242
1780854602598265900,63.83726586914062,0.1564805507659912,-3.0594654083251953,-3.2719411849975586
1780854602646782200,63.8857822265625,-3.142730712890625,-0.33930397033691406,-4.411814212799072
1780854602695298300,63.93429833984375,0.28511327505111694,2.265094757080078,-2.8814752101898193
1780854602743814400,63.982814453125,3.0784473419189453,2.9016847610473633,-0.6303072571754456
1780854602792330500,64.03133056640625,0.06438255310058594,2.373206615447998,1.3407809734344482
1780854602840846800,64.07984692382813,-1.0741147994995117,0.22194290161132812,2.6779558658599854
1780854602889363000,64.12836303710938,2.0112411975860596,0.5307941436767578,1.946886420249939
1780854602937879000,64.17687915039062,2.9376416206359863,1.9015779495239258,-0.9677847623825073
1780854602986395100,64.22539501953125,6.473366737365723,1.4010028839111328,-2.430522918701172
1780854603034911500,64.27391137695312,2.4696743488311768,-4.849767684936523,0.33626633882522583
1780854603131943700,64.37094360351563,-2.8018813133239746,0.5213813781738281,-0.8376298546791077
1780854603180459800,64.41945971679688,-1.2416555881500244,-1.7778387069702148,-2.9804630279541016
1780854603228976000,64.46797607421875,-3.7193870544433594,-7.092469215393066,4.357152938842773
1780854603277492200,64.5164921875,-4.713769435882568,-0.2913980484008789,3.935760974884033
