time,seconds_elapsed,z,y,x
1780854539059506400,0.29850634765625,0.3810569941997528,-9.906285285949707,-0.8763712644577026
1780854539108799500,0.347799560546875,0.36999019980430603,-9.88086223602295,-0.8733802437782288
1780854539158286300,0.397286376953125,0.35802608728408813,-9.90688419342041,-0.841675341129303
1780854539207773400,0.4467734375,0.3595215976238251,-9.900004386901855,-0.8359923958778381
1780854539257260300,0.49626025390625,0.36191442608833313,-9.912567138671875,-0.8383852243423462
1780854539306193000,0.54519287109375,0.353240430355072,-9.912567138671875,-0.8261220455169678
1780854539354765000,0.59376513671875,0.353240430355072,-9.89970588684082,-0.8189435601234436
1780854539403281700,0.64228173828125,0.35832518339157104,-9.910472869873047,-0.8222336769104004
1780854539451798500,0.690798583984375,0.353240430355072,-9.941579818725586,-0.8216354846954346
1780854539500315400,0.7393154296875,0.38703906536102295,-9.92124080657959,-0.7124629616737366
1780854539548832000,0.78783203125,0.41874396800994873,-9.919745445251465,-0.7603194117546082
1780854539597348600,0.8363486328125,0.3406781256198883,-9.932008743286133,-0.8093722462654114
1780854539645865500,0.884865478515625,0.373878538608551,-9.888040542602539,-0.7962117195129395
1780854539694382000,0.933382080078125,0.2967100143432617,-9.91107177734375,-0.857228696346283
1780854539742898700,0.981898681640625,0.3475574851036072,-9.914959907531738,-0.8288139700889587
1780854539791415300,1.030415283203125,0.3116651475429535,-9.921540260314941,-0.8222336769104004
1780854539839932000,1.078931884765625,0.30957141518592834,-9.884750366210938,-0.8404789566993713
1780854539888448800,1.12744873046875,0.3287140130996704,-9.907182693481445,-0.8189435601234436
1780854539985482000,1.22448193359375,0.2602194547653198,-9.942177772521973,-0.8823533654212952
1780854540033998600,1.27299853515625,0.21296121180057526,-9.905388832092285,-0.8632107973098755
1780854540082515500,1.321515380859375,0.23300109803676605,-9.943673133850098,-0.8943174481391907
1780854540131032000,1.370031982421875,0.17766708135604858,-9.979565620422363,-0.981655478477478
1780854540179548700,1.418548583984375,0.0975075215101242,-9.866206169128418,-0.9203394055366516
1780854540228065500,1.4670654296875,0.2063809484243393,-9.845867156982422,-0.9595218896865845
1780854540276582400,1.51558251953125,0.15553347766399384,-9.768997192382812,-1.1676974296569824
1780854540325099000,1.56409912109375,0.006580262444913387,-9.783653259277344,-1.165902853012085
1780854540373615600,1.61261572265625,-0.005383851006627083,-9.843474388122559,-1.1491531133651733
1780854540422132200,1.66113232421875,0.14416755735874176,-10.047462463378906,-1.111167073249817
1780854540470648800,1.70964892578125,0.32542386651039124,-10.069596290588379,-1.1069796085357666
1780854540519165700,1.758165771484375,0.25423741340637207,-9.685248374938965,-1.230808138847351
1780854540567682300,1.806682373046875,0.4130610227584839,-9.75224781036377,-1.1356934309005737
1780854540616199000,1.855198974609375,0.2234298139810562,-9.65085220336914,-1.1216355562210083
1780854540713232400,1.952232421875,-0.29042884707450867,-9.911968231201172,-1.179661512374878
1780854540761749000,2.0007490234375,-0.36191442608833313,-9.598508834838867,-0.494716078042984
1780854540810265600,2.049265625,0.0891326442360878,-9.6795654296875,-1.0082756280899048
1780854540858782500,2.097782470703125,1.3845469951629639,-10.85563850402832,-2.1741783618927
1780854540907299300,2.14629931640625,1.6660027503967285,-9.667003631591797,-2.557927370071411
1780854540955816000,2.19481591796875,-0.357128769159317,-9.725926399230957,-0.9083753228187561
1780854541004332500,2.24333251953125,1.6854444742202759,-9.641579627990723,-0.7603194117546082
1780854541052849200,2.29184912109375,1.8768702745437622,-9.528818130493164,0.1498505175113678
1780854541101365800,2.34036572265625,1.0055837631225586,-11.234302520751953,-1.059422254562378
1780854541149882600,2.388882568359375,1.1527422666549683,-9.610174179077148,-0.9418748021125793
1780854541198399200,2.437399169921875,1.588834285736084,-8.866305351257324,-0.32691940665245056
1780854541246915800,2.485915771484375,2.2372891902923584,-9.436694145202637,-0.8192426562309265
1780854541295432400,2.534432373046875,1.4820544719696045,-10.502696990966797,-0.9337990283966064
1780854541343949300,2.58294921875,2.026122570037842,-11.113763809204102,-1.3127623796463013
1780854541392466000,2.6314658203125,2.895315408706665,-11.386844635009766,0.5733801126480103
1780854541440982500,2.679982421875,1.688435435295105,-11.451151847839355,-0.5431707501411438
1780854541489499100,2.7284990234375,0.25274190306663513,-10.582856178283691,-1.236491084098816
1780854541538016000,2.77701611328125,-0.07417750358581543,-8.038089752197266,-1.578664779663086
1780854541586532600,2.82553271484375,-0.14027923345565796,-9.147761344909668,-1.7353945970535278
1780854541635049500,2.874049560546875,-0.5174478888511658,-11.08056354522705,0.6502495408058167
1780854541683566000,2.922566162109375,0.243469700217247,-10.721639633178711,1.1748759746551514
1780854541732082700,2.971082763671875,0.4292125701904297,-9.452547073364258,-0.7016952633857727
1780854541780599600,3.019599609375,1.80508553981781,-8.757730484008789,-0.6933203339576721
1780854541829116200,3.0681162109375,1.6253247261047363,-8.745168685913086,-1.0686944723129272
1780854541877632800,3.1166328125,0.9729815125465393,-8.23130989074707,-1.397408366203308
1780854541926149400,3.1651494140625,3.697509288787842,-7.4240312576293945,-0.0008973084622994065
1780854541974666200,3.213666259765625,4.111766815185547,-8.50588607788086,1.5966109037399292
1780854542023182800,3.262182861328125,2.935096025466919,-10.558928489685059,1.449153184890747
1780854542071699500,3.310699462890625,4.18355131149292,-12.828520774841309,2.752643346786499
1780854542120216000,3.359216064453125,1.944467544555664,-14.854044914245605,0.6227321028709412
1780854542168733000,3.40773291015625,0.129810631275177,-11.337193489074707,-4.465904235839844
1780854542217249500,3.45624951171875,2.4684956073760986,-6.838686943054199,-1.1868400573730469
1780854542265766100,3.50476611328125,-0.7887341380119324,-11.931510925292969,-0.9595218896865845
1780854542362799400,3.60179931640625,1.1102696657180786,-8.383553504943848,-2.1098713874816895
1780854542411316500,3.65031640625,2.4430718421936035,-8.771489143371582,-0.7950153350830078
1780854542459833000,3.6988330078125,1.3495519161224365,-8.962018013000488,0.23629122972488403
1780854542508349700,3.747349609375,1.2529417276382446,-8.720342636108398,0.600000262260437
1780854542556866300,3.7958662109375,1.2011969089508057,-8.969795227050781,0.5440680384635925
1780854542605383200,3.844383056640625,1.1748759746551514,-7.734499931335449,1.2831511497497559
1780854542653899800,3.892899658203125,2.6066811084747314,-8.863912582397461,0.06999006122350693
1780854542702416400,3.94141650390625,2.4604198932647705,-11.85583782196045,-3.384946823120117
1780854542750933000,3.98993310546875,3.289233922958374,-10.918449401855469,-2.1113669872283936
1780854542799449900,4.038449951171875,3.059821844100952,-12.396615982055664,1.474876046180725
1780854542847966500,4.086966552734375,0.7160521745681763,-12.425928115844727,2.4134607315063477
1780854542896483000,4.135483154296875,-0.8297112584114075,-8.400602340698242,0.11874382197856903
1780854542944999700,4.183999755859375,0.9882357716560364,-8.88544750213623,-3.0340991020202637
1780854542993516300,4.232516357421875,0.6954140663146973,-13.816756248474121,0.7244270443916321
1780854543042033200,4.281033203125,-0.8644071817398071,-10.971092224121094,3.791128396987915
1780854543090549800,4.3295498046875,0.8431708812713623,-8.227421760559082,-0.7585247755050659
1780854543139066400,4.37806640625,3.272484064102173,-7.107580661773682,-2.2764716148376465
1780854543187583000,4.4265830078125,1.8861424922943115,-7.435995578765869,-1.3824533224105835
1780854543236099800,4.475099853515625,2.0889341831207275,-7.254439830780029,-0.8608179688453674
1780854543284616400,4.523616455078125,3.586242914199829,-8.014460563659668,2.4038894176483154
1780854543333133000,4.572133056640625,3.2165517807006836,-12.116655349731445,0.8341978192329407
1780854543381649700,4.620649658203125,4.086941242218018,-12.874282836914062,2.1281166076660156
1780854543430166500,4.66916650390625,2.2244277000427246,-15.326028823852539,1.552343726158142
1780854543478683100,4.71768310546875,-0.6756733059883118,-8.617152214050293,-4.209573268890381
1780854543527199700,4.76619970703125,1.1335997581481934,-8.70927619934082,-1.4300106763839722
1780854543575716400,4.81471630859375,0.31405797600746155,-13.335799217224121,-1.950150489807129
1780854543624233000,4.86323291015625,-0.1698904037475586,-8.643473625183105,-2.7798616886138916
1780854543672749800,4.911749755859375,1.7533408403396606,-8.059624671936035,-1.4859428405761719
1780854543721266400,4.960266357421875,2.8292136192321777,-7.271788120269775,0.5805585980415344
1780854543769783000,5.008782958984375,1.5080764293670654,-8.207381248474121,0.986740231513977
1780854543818299600,5.057299560546875,0.1947159469127655,-9.564111709594727,1.6959130764007568
1780854543866816500,5.10581640625,1.8831514120101929,-7.81974458694458,1.724327802658081
1780854543963850000,5.20285009765625,3.4345977306365967,-11.251649856567383,-4.101297855377197
1780854544012366600,5.25136669921875,1.3567304611206055,-12.881162643432617,-1.1048858165740967
1780854544060883200,5.29988330078125,1.745265007019043,-13.753944396972656,2.1352951526641846
1780854544109400000,5.348400146484375,-0.023330021649599075,-8.642875671386719,0.6628118753433228
1780854544157916700,5.396916748046875,0.6514459848403931,-8.777471542358398,-0.6900302171707153
1780854544206433300,5.445433349609375,0.7603194117546082,-13.863117218017578,1.3543375730514526
1780854544254950000,5.493949951171875,-0.26979073882102966,-10.625029563903809,1.059422254562378
1780854544303466800,5.542466796875,-0.17617157101631165,-8.650651931762695,-1.1874382495880127
1780854544351983400,5.5909833984375,2.6386852264404297,-6.572186470031738,-1.4964114427566528
1780854544400500000,5.6395,2.17836594581604,-6.600003242492676,-0.7360920906066895
1780854544449016600,5.6880166015625,3.2120652198791504,-6.069993019104004,-0.29730820655822754
1780854544497533400,5.736533447265625,2.934497833251953,-9.323932647705078,2.2172493934631348
1780854544546050000,5.785050048828125,3.1983065605163574,-13.542778015136719,1.083350419998169
1780854544594566700,5.833566650390625,4.525425910949707,-13.200304985046387,4.362713813781738
1780854544643083300,5.882083251953125,1.7338991165161133,-14.05394458770752,0.014955141581594944
1780854544691600000,5.930599853515625,0.20817556977272034,-7.5412797927856445,-4.641477584838867
1780854544740116700,5.97911669921875,1.212562918663025,-10.361519813537598,-0.8422735929489136
1780854544788633300,6.02763330078125,0.07836493849754333,-12.92602825164795,-2.0186450481414795
1780854544837150000,6.07614990234375,0.0038883367087692022,-8.071588516235352,-2.9934210777282715
1780854544885666600,6.12466650390625,2.6386852264404297,-7.809575080871582,-0.9212366938591003
1780854544934183400,6.173183349609375,2.312962293624878,-6.600302219390869,0.5964110493659973
1780854544982700000,6.221699951171875,0.1501496136188507,-8.623732566833496,1.2643076181411743
1780854545031216600,6.270216552734375,0.6421737670898438,-9.032307624816895,1.6525431871414185
1780854545079733200,6.318733154296875,2.6928226947784424,-9.509675025939941,0.39062830805778503
1780854545128250000,6.36725,4.235296249389648,-10.216754913330078,-3.4881372451782227
1780854545176766700,6.4157666015625,3.2599217891693115,-11.74726390838623,-2.144866466522217
1780854545225283300,6.464283447265625,2.36081862449646,-13.857732772827148,1.831107497215271
1780854545273800000,6.512800048828125,0.659521758556366,-11.26929759979248,2.2076780796051025
1780854545322316500,6.561316650390625,-0.38344982266426086,-7.762914657592773,-0.6972087025642395
1780854545370833200,6.609833251953125,1.5152549743652344,-12.308679580688477,-2.013859272003174
1780854545419349800,6.658349853515625,-0.5210371017456055,-12.998709678649902,2.1098713874816895
1780854545467866400,6.706866455078125,-2.1583259105682373,-9.51057243347168,1.4207384586334229
1780854545516383000,6.755383056640625,1.6621143817901611,-7.11565637588501,-1.181157112121582
1780854545613416400,6.85241650390625,1.1015957593917847,-6.7917280197143555,-2.131406784057617
1780854545661933000,6.90093310546875,3.3020951747894287,-7.0893354415893555,0.8368897438049316
1780854545710449700,6.94944970703125,2.9542386531829834,-12.219547271728516,2.699702262878418
1780854545758966300,6.99796630859375,3.5718860626220703,-13.789238929748535,1.8592232465744019
1780854545807483100,7.046483154296875,4.3447675704956055,-13.795519828796387,2.3410778045654297
1780854545855999700,7.094999755859375,0.7498508095741272,-10.660922050476074,-4.410869598388672
1780854545904516400,7.143516357421875,0.5685944557189941,-7.354938507080078,-2.0330018997192383
1780854545953033000,7.192032958984375,0.389431893825531,-13.769797325134277,-0.4049852192401886
1780854546001549800,7.2405498046875,-0.10857433080673218,-9.957432746887207,-2.0895323753356934
1780854546050066400,7.28906640625,2.0129621028900146,-7.778468132019043,-1.5337992906570435
1780854546098583000,7.3375830078125,3.109772205352783,-7.081857681274414,0.15942180156707764
1780854546147099600,7.386099609375,1.2074781656265259,-7.051648139953613,0.9421738982200623
1780854546195616500,7.434616455078125,-0.3930211067199707,-8.752047538757324,1.4644074440002441
1780854546244133000,7.483133056640625,2.6901309490203857,-8.531310081481934,0.5464608669281006
1780854546292649700,7.531649658203125,4.292723655700684,-9.944570541381836,-1.4581263065338135
1780854546341166300,7.580166259765625,2.775674343109131,-12.824931144714355,-2.8929226398468018
1780854546389683000,7.628682861328125,1.38933265209198,-14.266905784606934,0.8835497498512268
1780854546438199800,7.67719970703125,0.6299105882644653,-10.981261253356934,1.4796617031097412
1780854546486716400,7.72571630859375,0.8102695941925049,-6.6418776512146,-1.573580026626587
1780854546535233000,7.77423291015625,1.3821542263031006,-14.364712715148926,-0.5904290080070496
1780854546583749600,7.82274951171875,-1.2975081205368042,-12.247064590454102,2.7675983905792236
1780854546632266200,7.871266357421875,-1.5463616847991943,-8.356634140014648,-0.1621137410402298
1780854546680782800,7.919782958984375,1.693520188331604,-6.710970401763916,-1.4437693357467651
1780854546729299500,7.968299560546875,4.057629108428955,-6.104988098144531,-1.1611171960830688
1780854546777816000,8.016816162109375,1.469791293144226,-6.687341213226318,-1.0704890489578247
1780854546826333000,8.0653330078125,4.0405802726745605,-7.7461652755737305,2.822035312652588
1780854546874849500,8.113849609375,3.2527432441711426,-13.623834609985352,2.2172493934631348
1780854546923366100,8.1623662109375,3.7369906902313232,-14.08116340637207,2.958127021789551
1780854546971882800,8.2108828125,0.8871390223503113,-13.628620147705078,-3.140878915786743
1780854547020399400,8.2593994140625,0.831206738948822,-8.203493118286133,-2.475973129272461
1780854547068916200,8.307916259765625,1.4243277311325073,-12.32243824005127,-0.3334996700286865
1780854547117432800,8.356432861328125,-1.072582721710205,-11.151451110839844,-3.48783802986145
1780854547165949400,8.404949462890626,0.41964125633239746,-7.70249605178833,-3.118446111679077
1780854547262983000,8.50198291015625,2.2148563861846924,-6.3442702293396,0.32632118463516235
1780854547311499500,8.55049951171875,-0.6547361016273499,-9.742077827453613,1.8098711967468262
1780854547360016000,8.599015869140626,1.083051323890686,-9.380762100219727,1.0106685161590576
1780854547408532500,8.647532470703124,2.5154547691345215,-9.364012718200684,-0.28534409403800964
1780854547457049000,8.696049072265625,6.9134626388549805,-9.456435203552246,-1.1461620330810547
1780854547505566000,8.74456591796875,0.38614174723625183,-15.479767799377441,-0.7974081635475159
1780854547554082600,8.79308251953125,1.090229868888855,-11.692228317260742,1.8023936748504639
1780854547602599200,8.84159912109375,0.16839489340782166,-7.773682594299316,-0.2841476798057556
1780854547651115800,8.89011572265625,1.6253247261047363,-11.085049629211426,-2.367997169494629
1780854547699632600,8.938632568359376,-0.46480581164360046,-15.674484252929688,2.32761812210083
1780854547748149200,8.987149169921874,-2.196611166000366,-9.833903312683105,2.1720848083496094
1780854547796665900,9.035665771484375,1.430907964706421,-7.530212879180908,-1.2116655111312866
1780854547845182500,9.084182373046875,3.006880760192871,-5.942873954772949,-2.548356056213379
1780854547893699000,9.132698974609376,1.9166508913040161,-5.8343000411987305,-2.146361827850342
1780854547942215700,9.181215576171875,4.406980991363525,-5.544768333435059,0.9230313301086426
1780854547990732300,9.229732177734375,1.2035897970199585,-13.600205421447754,2.3488545417785645
1780854548039249000,9.278248779296876,3.9762730598449707,-12.884751319885254,1.8490537405014038
1780854548087765500,9.326765625,5.6931233406066895,-13.351351737976074,3.3577284812927246
1780854548136282400,9.375282470703125,-0.030508488416671753,-13.156336784362793,-5.599205017089844
1780854548184799000,9.423799072265625,-0.7456633448600769,-7.196115016937256,-1.1611171960830688
1780854548233315600,9.472315673828126,0.9987043738365173,-12.248859405517578,-0.6308078765869141
1780854548281832200,9.520832275390624,0.04935196787118912,-10.348360061645508,-3.5446677207946777
1780854548330349000,9.56934912109375,0.9346963167190552,-7.643273830413818,-1.7868403196334839
1780854548378865400,9.617865478515625,3.7719857692718506,-6.747759819030762,0.36191442608833313
1780854548427382000,9.666382080078124,0.8413762450218201,-7.5702924728393555,0.5512465238571167
1780854548475898600,9.714898681640625,-0.4301098585128784,-9.364012718200684,1.4500504732131958
1780854548524415200,9.763415283203125,2.6727828979492188,-8.458627700805664,0.9445667266845703
1780854548572932000,9.81193212890625,3.4474592208862305,-10.29452133178711,-2.4915266036987305
1780854548621448700,9.86044873046875,5.3007001876831055,-10.833205223083496,-1.2849457263946533
1780854548669965300,9.90896533203125,1.6564314365386963,-15.162419319152832,1.8418751955032349
1780854548766998500,10.00599853515625,-0.1660020649433136,-7.260721206665039,-1.8598214387893677
1780854548864031700,10.10303173828125,-0.7671987414360046,-14.18883991241455,2.6470601558685303
1780854548912548400,10.15154833984375,-1.6965112686157227,-9.677172660827637,2.8585257530212402
1780854548961065200,10.200065185546874,1.246660590171814,-7.440781116485596,-0.7671987414360046
1780854549009581800,10.248581787109375,3.8300118446350098,-5.949155330657959,-1.9884356260299683
1780854549058098400,10.297098388671875,1.2544373273849487,-6.201598167419434,-1.6710875034332275
1780854549106615000,10.345614990234376,4.750650405883789,-5.743671417236328,1.0480563640594482
1780854549155131600,10.394131591796874,1.6516457796096802,-13.118350982666016,2.988037347793579
1780854549203648300,10.442648193359375,3.100200891494751,-13.582259178161621,1.2484551668167114
1780854549252164900,10.491164794921875,3.5024940967559814,-16.080665588378906,1.4931213855743408
1780854549300681500,10.539681396484376,-0.9891330599784851,-9.198907852172852,-5.36650276184082
1780854549349198000,10.588197998046875,1.2969099283218384,-8.104490280151367,-0.4666004180908203
1780854549397715000,10.63671484375,0.28953152894973755,-14.274084091186523,-1.2696914672851562
1780854549446231600,10.6852314453125,-0.6095715761184692,-8.063214302062988,-2.444866418838501
1780854549494748000,10.733747802734374,3.4519457817077637,-7.7231340408325195,-0.9529415965080261
1780854549543264500,10.782264404296875,3.4672000408172607,-6.734001159667969,0.11395817995071411
1780854549591781000,10.830781005859375,-0.9355936646461487,-8.364709854125977,0.7313064336776733
1780854549640298000,10.879298095703126,0.8536394834518433,-8.732307434082031,1.5753746032714844
1780854549688814600,10.927814697265624,3.2303106784820557,-8.449056625366211,0.9786644577980042
1780854549737331200,10.976331298828125,3.154637575149536,-10.269994735717773,-2.571686029434204
1780854549785847800,11.024847900390625,4.273581027984619,-12.072687149047852,-2.123929262161255
1780854549834364400,11.073364501953124,2.491825580596924,-13.774582862854004,1.3142578601837158
1780854549882881000,11.121881103515625,0.29431718587875366,-11.114063262939453,1.851446509361267
1780854549931397600,11.170397705078125,-0.6454638838768005,-7.8287177085876465,-1.716252088546753
1780854549979914200,11.218914306640626,1.0097711086273193,-13.019946098327637,-3.587738513946533
1780854550028431000,11.26743115234375,-0.9340981245040894,-13.738690376281738,3.500101327896118
1780854550076947700,11.31594775390625,-0.620638370513916,-8.767900466918945,2.6336004734039307
1780854550125464300,11.36446435546875,2.393420934677124,-7.250252723693848,-1.170688509941101
1780854550173980700,11.412980712890626,3.1345977783203125,-5.883950710296631,-2.256431818008423
1780854550222497300,11.461497314453124,1.8400806188583374,-5.9213385581970215,-1.329512119293213
1780854550271014100,11.51001416015625,3.994518280029297,-6.367300987243652,2.0042879581451416
1780854550319530800,11.55853076171875,1.7389838695526123,-13.500903129577637,1.5801602602005005
1780854550368047400,11.60704736328125,5.303092956542969,-12.534502029418945,2.4221346378326416
1780854550416563700,11.655563720703125,3.0167510509490967,-13.382160186767578,1.028315544128418
1780854550513597200,11.75259716796875,0.05353940650820732,-9.494122505187988,-0.5135595798492432
1780854550562113800,11.80111376953125,0.8120641708374023,-12.153145790100098,-2.730808734893799
1780854550610630400,11.84963037109375,0.5641079545021057,-8.131709098815918,-4.0064826011657715
1780854550659146800,11.898146728515625,2.8651061058044434,-7.138388156890869,-0.6777670383453369
1780854550707663600,11.94666357421875,2.3599212169647217,-6.938587665557861,0.5359922647476196
1780854550756180200,11.99518017578125,-0.719641387462616,-9.143872261047363,1.1174482107162476
1780854550804696800,12.04369677734375,1.7880367040634155,-9.311369895935059,1.2293126583099365
1780854550853213400,12.09221337890625,1.1635099649429321,-8.696414947509766,0.02871387079358101
1780854550901730000,12.14072998046875,6.722934246063232,-9.246764183044434,-1.2245270013809204
1780854550950246700,12.18924658203125,2.50289249420166,-14.044971466064453,-0.5709872841835022
1780854550998763300,12.23776318359375,1.2460623979568481,-13.679168701171875,0.7674978375434875
1780854551047279900,12.28627978515625,-0.019142581149935722,-8.500203132629395,0.9562317728996277
1780854551095796700,12.334796630859374,1.4386845827102661,-8.455636978149414,-2.4502503871917725
1780854551144313000,12.38331298828125,0.27337998151779175,-15.549458503723145,-0.47198426723480225
1780854551192829700,12.43182958984375,-2.589034080505371,-11.424232482910156,2.226820468902588
1780854551241346300,12.48034619140625,0.5470590591430664,-8.179265975952148,0.13639089465141296
1780854551289863000,12.52886279296875,2.917748212814331,-6.500401973724365,-1.6423736810684204
1780854551338379500,12.577379638671875,2.3560330867767334,-5.6823554039001465,-2.090728759765625
1780854551386896100,12.625896240234376,2.4293131828308105,-5.8953166007995605,-0.8093722462654114
1780854551435412700,12.674412841796874,2.478964328765869,-9.509675025939941,2.4436700344085693
1780854551483929300,12.722929443359375,3.1902308464050293,-14.375181198120117,1.3695918321609497
1780854551532446000,12.771446044921875,4.805386066436768,-12.089437484741211,3.6436707973480225
1780854551580962600,12.819962646484376,1.7880367040634155,-14.705390930175781,-1.1300104856491089
1780854551629479200,12.868479248046874,-1.0806585550308228,-8.66770076751709,-4.96420955657959
1780854551677995800,12.916995849609375,1.308275818824768,-9.347262382507324,0.3813561201095581
1780854551726512400,12.965512451171875,0.4289134442806244,-12.537493705749512,-2.580360174179077
1780854551775029000,13.014029052734376,0.2111666053533554,-7.974679470062256,-3.037987470626831
1780854551823545600,13.062545654296875,2.6799614429473877,-7.779066562652588,0.10289137065410614
1780854551872062200,13.111062255859375,2.1511476039886475,-7.276573657989502,0.5129613280296326
1780854551920578800,13.159578857421875,-0.3071786165237427,-8.923434257507324,1.1156535148620605
1780854551969095400,13.208095458984374,1.7485551834106445,-8.858827590942383,1.2786645889282227
1780854552017612000,13.256612060546875,2.454437732696533,-9.02243709564209,-0.45224347710609436
1780854552114645200,13.353645263671876,2.1837496757507324,-13.152448654174805,-0.8270193338394165
1780854552163161600,13.40216162109375,2.0330018997192383,-12.806386947631836,1.425524115562439
1780854552211678500,13.450678466796875,-0.6873382925987244,-9.765109062194824,1.3701900243759155
1780854552260195000,13.499195068359375,0.3475574851036072,-8.437690734863281,-2.555534601211548
1780854552308711700,13.547711669921876,1.114457130432129,-14.239089012145996,-1.0307083129882812
1780854552357228000,13.59622802734375,-1.1467602252960205,-11.64437198638916,3.428914785385132
1780854552405745000,13.644744873046875,-0.6323033571243286,-8.617152214050293,0.7600203156471252
1780854552454261500,13.693261474609375,2.6847469806671143,-6.92482852935791,-1.7150555849075317
1780854552502778000,13.741778076171874,2.7876384258270264,-6.038886070251465,-2.4684956073760986
1780854552551294500,13.79029443359375,3.004487991333008,-6.230012893676758,-0.8739784955978394
1780854552599811000,13.83881103515625,2.575275421142578,-8.597412109375,3.1339993476867676
1780854552648328000,13.887327880859376,2.8791637420654297,-14.21994686126709,1.3782658576965332
1780854552696844300,13.93584423828125,4.7865424156188965,-12.485748291015625,2.644068956375122
1780854552745361000,13.98436083984375,1.892722725868225,-13.451850891113281,-1.2867404222488403
1780854552793877500,14.03287744140625,-1.5236297845840454,-8.83370304107666,-3.559921979904175
1780854552890910700,14.12991064453125,0.508773922920227,-11.97607707977295,-3.588336706161499
1780854552939427300,14.17842724609375,0.6804589629173279,-8.13260555267334,-3.301496982574463
1780854552987944000,14.22694384765625,2.6943182945251465,-7.435397148132324,0.062213387340307236
1780854553036460500,14.27546044921875,2.6240291595458984,-7.392027378082275,0.7872386574745178
1780854553084977200,14.32397705078125,-0.8006982803344727,-9.33739185333252,1.1611171960830688
1780854553133493800,14.37249365234375,2.2842483520507812,-8.640482902526855,1.6304094791412354
1780854553182010400,14.42101025390625,1.5978072881698608,-9.011369705200195,-0.03738785535097122
1780854553230527000,14.46952685546875,5.886343479156494,-9.352945327758789,-2.107478618621826
1780854553279043600,14.518043701171875,2.352742910385132,-14.143376350402832,0.46719861030578613
1780854553327560200,14.566560302734375,1.5185450315475464,-12.111869812011719,2.0650060176849365
1780854553376076800,14.615076904296876,-1.0151549577713013,-9.460622787475586,-0.09661021083593369
1780854553424593200,14.66359326171875,1.150349497795105,-11.191829681396484,-4.028615951538086
1780854553473110000,14.712110107421875,0.05802594870328903,-14.569000244140625,1.1443674564361572
1780854553521626600,14.760626708984375,-1.7820546627044678,-10.148558616638184,3.3164522647857666
1780854553570143200,14.809143310546874,0.9595218896865845,-7.461419105529785,-1.0639088153839111
1780854553667176200,14.90617626953125,2.305783748626709,-5.525625705718994,-2.352144718170166
1780854553715693000,14.954693115234376,3.4031920433044434,-6.022136211395264,1.9806588888168335
1780854553764209400,15.00320947265625,1.4452649354934692,-13.43001651763916,1.5999010801315308
1780854553812726000,15.05172607421875,3.9921255111694336,-12.223135948181152,0.7339983582496643
1780854553861242600,15.10024267578125,5.613562107086182,-12.77767276763916,3.7836508750915527
1780854553909759200,15.14875927734375,-1.0241280794143677,-12.686745643615723,-4.673182487487793
1780854553958275800,15.19727587890625,-0.7704889178276062,-8.603992462158203,-0.8919246196746826
1780854554006792400,15.24579248046875,1.628016710281372,-12.016755104064941,-1.202094316482544
1780854554055308800,15.294308837890625,0.08135596662759781,-10.191629409790039,-3.985844373703003
1780854554103825400,15.342825439453126,1.2035897970199585,-8.5672025680542,-1.1838489770889282
1780854554152342300,15.39134228515625,3.0355947017669678,-7.1473612785339355,0.41934216022491455
1780854554200859000,15.43985888671875,0.7528418302536011,-7.628318786621094,0.6628118753433228
1780854554249375200,15.488375244140625,0.09571290761232376,-9.373583793640137,1.083051323890686
1780854554297891800,15.536891845703124,2.753241539001465,-8.082955360412598,1.5026925802230835
1780854554346408700,15.58540869140625,3.2476584911346436,-9.140582084655762,-0.6523432731628418
1780854554394925000,15.633925048828125,4.167399883270264,-11.43200969696045,-2.429612398147583
1780854554443441700,15.682441650390626,1.415055513381958,-13.32712459564209,1.1285150051116943
1780854554491958300,15.730958251953124,0.7624131441116333,-12.507284164428711,2.181356906890869
1780854554540475000,15.779474853515625,-0.7100701332092285,-8.259126663208008,-1.6408780813217163
1780854554588991500,15.827991455078125,0.6095715761184692,-12.27368450164795,-3.0388846397399902
1780854554637508000,15.876508056640626,0.3164508044719696,-13.009178161621094,2.4735803604125977
1780854554686024700,15.925024658203125,-1.3007981777191162,-9.632905960083008,2.7834508419036865
1780854554734541000,15.973541015625,1.0322039127349854,-7.383652687072754,-1.583450436592102
1780854554783058000,16.022057861328125,3.49920392036438,-6.26440954208374,-2.2842483520507812
1780854554831574300,16.07057421875,1.9588243961334229,-6.326025009155273,-1.8646070957183838
1780854554880091000,16.1190908203125,3.582653760910034,-6.663113594055176,2.704786777496338
1780854554928607500,16.167607421875,2.147857427597046,-12.88774299621582,1.4380863904953003
1780854554977124000,16.2161240234375,4.17009162902832,-12.024532318115234,1.1279168128967285
1780854555025640700,16.264640625,4.080659866333008,-13.965110778808594,2.8325037956237793
1780854555074157300,16.3131572265625,-1.9854445457458496,-11.20080280303955,-3.9993040561676025
1780854555122674000,16.361673828125,-0.0687936544418335,-9.36879825592041,-1.4644074440002441
1780854555171190300,16.410190185546874,1.3256237506866455,-13.39262866973877,-3.0580272674560547
1780854555268223700,16.5072236328125,2.5588247776031494,-7.77188777923584,-0.8919246196746826
1780854555316740000,16.555739990234375,2.462812662124634,-6.716054916381836,0.2961117923259735
1780854555365256700,16.604256591796876,-0.8422735929489136,-9.039186477661133,1.4324034452438354
1780854555413773300,16.652773193359376,1.3887344598770142,-9.150154113769531,1.0821540355682373
1780854555462290000,16.7012900390625,2.5301108360290527,-8.362317085266113,1.2616157531738281
1780854555510806500,16.749806640625,5.210670471191406,-8.481060981750488,-0.5928218364715576
1780854555559323100,16.7983232421875,2.1876380443573,-13.06092357635498,-0.5282155871391296
1780854555607839700,16.84683984375,1.9363917112350464,-11.95035457611084,1.0289137363433838
1780854555656356400,16.8953564453125,0.5497509837150574,-8.53908634185791,0.8685946464538574
1780854555704873000,16.943873046875,0.038285162299871445,-12.533604621887207,-2.6464617252349854
1780854555753389300,16.992389404296876,0.129810631275177,-15.896418571472168,0.13968102633953094
1780854555801906000,17.040906005859377,-1.5936198234558105,-9.903294563293457,2.5363919734954834
1780854555850422500,17.089422607421874,0.9092726111412048,-7.801498889923096,-0.506381094455719
1780854555898939100,17.137939208984374,2.7212376594543457,-6.192026615142822,-1.8098711967468262
1780854555947455700,17.186455810546875,1.862214207649231,-6.316453456878662,-2.289931297302246
1780854555995972400,17.234972412109375,4.007379531860352,-5.442774295806885,0.7172485589981079
1780854556044489000,17.283489013671876,1.169192910194397,-11.195419311523438,2.7508487701416016
1780854556093005600,17.332005615234376,3.7369906902313232,-13.085450172424316,-0.25363919138908386
1780854556141522200,17.380522216796876,4.847260475158691,-14.262120246887207,2.633899450302124
1780854556190038800,17.429038818359373,-2.3895325660705566,-12.51745319366455,-3.704986810684204
1780854556238555100,17.47755517578125,-0.47228336334228516,-9.957133293151855,-1.2939188480377197
1780854556287071700,17.52607177734375,1.672582983970642,-12.917952537536621,-3.303889751434326
1780854556335588400,17.57458837890625,0.006580262444913387,-8.4771728515625,-4.182653903961182
1780854556384105000,17.62310498046875,2.0129621028900146,-7.199405193328857,-0.33110684156417847
1780854556432621600,17.67162158203125,2.9216363430023193,-6.613163471221924,1.0328021049499512
1780854556481138200,17.72013818359375,-1.5595221519470215,-9.060722351074219,1.1324033737182617
1780854556529654800,17.76865478515625,1.3160524368286133,-9.546764373779297,1.2499507665634155
1780854556578171400,17.81717138671875,2.6799614429473877,-8.538488388061523,0.6637091636657715
1780854556626688000,17.86568798828125,5.121537685394287,-8.001599311828613,-1.0504491329193115
1780854556675204400,17.914204345703126,4.008575916290283,-12.414562225341797,-0.9777671694755554
1780854556723721000,17.962720947265623,0.641276478767395,-13.657633781433105,0.7902296781539917
1780854556772237800,18.01123779296875,-0.3643072545528412,-9.361320495605469,1.446162223815918
1780854556869270800,18.108270751953125,-0.014356935396790504,-16.019947052001953,-0.8892326951026917
1780854556917787400,18.156787353515625,-1.2690932750701904,-11.112268447875977,4.393222332000732
1780854556966304000,18.205303955078126,1.150050401687622,-7.977072715759277,0.8685946464538574
1780854557014820600,18.253820556640626,4.007080554962158,-6.235097408294678,-2.2707886695861816
1780854557063337200,18.302337158203127,2.015354871749878,-6.005087375640869,-3.1217362880706787
1780854557111853600,18.350853515625,2.8803603649139404,-6.033801555633545,-0.388235479593277
1780854557160370400,18.399370361328124,1.6707884073257446,-10.055538177490234,3.2548370361328125
1780854557208886800,18.44788671875,2.9709885120391846,-13.416556358337402,-0.48723849654197693
1780854557257403400,18.4964033203125,4.268197536468506,-14.108680725097656,2.8426733016967773
1780854557305920000,18.544919921875,0.6708876490592957,-12.420245170593262,-1.7904295921325684
1780854557354436600,18.5934365234375,-0.8356932997703552,-8.88125991821289,-1.770688772201538
1780854557402953200,18.641953125,0.019740786403417587,-13.496417045593262,-3.1351959705352783
1780854557451469800,18.6904697265625,0.6047859191894531,-8.64915657043457,-3.792025566101074
1780854557499986200,18.738986083984376,2.541177749633789,-7.529614448547363,-1.8248263597488403
1780854557548502800,18.787502685546876,2.8636105060577393,-7.5173516273498535,0.13100704550743103
1780854557597019600,18.83601953125,-0.607776939868927,-8.426922798156738,0.6469594240188599
1780854557645536000,18.884535888671873,0.620638370513916,-9.79801082611084,0.8766704201698303
1780854557694052600,18.933052490234374,3.1627132892608643,-8.421239852905273,1.2553346157073975
1780854557742569200,18.9815693359375,2.8211379051208496,-8.21874713897705,-1.0618150234222412
1780854557791085800,19.0300859375,5.057529926300049,-9.653244972229004,-0.8988040089607239
1780854557839602400,19.0786025390625,1.8170497417449951,-14.044373512268066,0.42741793394088745
1780854557888118800,19.127118896484376,0.7848458290100098,-12.527921676635742,1.6301103830337524
1780854557936635400,19.175635498046876,-0.9514461159706116,-9.020941734313965,-1.8032909631729126
1780854557985152000,19.224152099609373,0.9523434042930603,-12.323036193847656,-3.548556089401245
1780854558033668600,19.272668701171874,-0.46749773621559143,-13.99502182006836,3.0245277881622314
1780854558082185200,19.321185302734374,-1.2649059295654297,-9.508479118347168,2.998805046081543
1780854558130701800,19.369701904296875,1.3489537239074707,-6.974479675292969,-1.6064813137054443
1780854558179218200,19.41821826171875,3.200998544692993,-5.708377361297607,-2.659921407699585
1780854558227734800,19.46673486328125,2.74755859375,-5.759523868560791,-1.3600205183029175
1780854558276251400,19.51525146484375,2.369492530822754,-7.188936710357666,2.194218397140503
1780854558324768000,19.56376806640625,2.073979139328003,-13.785649299621582,1.4318052530288696
1780854558421801200,19.66080126953125,2.408675193786621,-14.289039611816406,-0.6173482537269592
1780854558470317800,19.70931787109375,-1.3262219429016113,-9.584750175476074,-2.7702903747558594
1780854558518834400,19.75783447265625,0.7058826684951782,-10.757233619689941,-0.18095721304416656
1780854558567350800,19.806350830078124,-0.09421738982200623,-13.524831771850586,-3.477369546890259
1780854558615867400,19.854867431640624,0.23778675496578217,-7.448258876800537,-3.0681967735290527
1780854558664384000,19.903384033203125,3.3323047161102295,-6.626623153686523,-0.5703890919685364
1780854558712900600,19.951900634765625,1.3097712993621826,-6.860222339630127,0.735194742679596
1780854558761417200,20.000417236328126,-1.3824533224105835,-9.353543281555176,0.5581258535385132
1780854558809933600,20.04893359375,1.8391833305358887,-8.905488014221191,0.3556332588195801
1780854558858450200,20.0974501953125,3.1722846031188965,-8.642875671386719,0.0487537607550621
1780854558906967000,20.145967041015624,8.10389232635498,-9.098408699035645,-0.06849455088376999
1780854558955483400,20.1944833984375,-0.18514464795589447,-15.54377555847168,0.006580262444913387
1780854559004000000,20.243,1.2089736461639404,-9.945169448852539,1.1922239065170288
1780854559052516600,20.2915166015625,-0.1052841991186142,-9.263215065002441,-2.1000008583068848
1780854559101033000,20.340032958984374,0.06131608039140701,-15.99601936340332,-2.7661030292510986
1780854559149549800,20.3885498046875,-1.9669002294540405,-14.111970901489258,4.12851619720459
1780854559198066200,20.437066162109375,-1.3728820085525513,-8.126026153564453,1.5418751239776611
1780854559246582800,20.485582763671875,3.036491870880127,-6.317051887512207,-2.5980072021484375
1780854559295099400,20.534099365234376,3.5503506660461426,-5.589035511016846,-3.310171127319336
1780854559343616000,20.582615966796876,1.3558331727981567,-5.7771711349487305,-2.492722988128662
1780854559392132600,20.631132568359376,1.1356934309005737,-8.30399227142334,2.9614171981811523
1780854559440649200,20.679649169921873,3.0550363063812256,-13.921442031860352,1.8553348779678345
1780854559489165600,20.72816552734375,5.541179180145264,-12.705887794494629,2.6225335597991943
1780854559537682200,20.77668212890625,3.2303106784820557,-13.249956130981445,-0.5413761138916016
1780854559586198800,20.82519873046875,-2.6727828979492188,-12.07179069519043,-3.50129771232605
1780854559634715400,20.87371533203125,-0.20877377688884735,-10.76949691772461,-0.8264211416244507
1780854559683232000,20.92223193359375,0.1740778535604477,-11.402697563171387,-4.448855400085449
1780854559731748400,20.970748291015624,1.0295119285583496,-7.464111328125,-3.760619878768921
1780854559780265000,21.019264892578125,2.9536404609680176,-6.317949295043945,-0.11904292553663254
1780854559828781600,21.067781494140625,1.297807216644287,-7.236494064331055,1.158724308013916
1780854559877298200,21.116298095703126,-1.0767701864242554,-9.627223014831543,0.6523432731628418
1780854559925814800,21.164814697265626,2.0808584690093994,-9.7938232421875,0.576670229434967
1780854560022848000,21.261847900390624,6.706184387207031,-8.828020095825195,-0.05114658549427986
1780854560071364400,21.3103642578125,0.1740778535604477,-16.62862205505371,-2.2331018447875977
1780854560119881000,21.358880859375,2.1592233180999756,-9.351749420166016,1.0959128141403198
1780854560168397300,21.407397216796873,0.6308078765869141,-8.37428092956543,1.1213364601135254
1780854560216914200,21.4559140625,0.2961117923259735,-14.001900672912598,-4.018446445465088
1780854560265430500,21.504430419921874,-2.195713996887207,-15.084952354431152,0.8670991063117981
1780854560313947100,21.552947021484375,-1.3357932567596436,-9.146265029907227,2.806781053543091
1780854560362463700,21.601463623046875,2.586641311645508,-7.338787078857422,-1.1596217155456543
1780854560410980400,21.64998046875,2.318047046661377,-6.045765399932861,-2.627917528152466
1780854560459497000,21.6984970703125,1.607378602027893,-6.051448345184326,-2.0955145359039307
1780854560508013300,21.747013427734377,2.163111686706543,-7.351648330688477,1.3773685693740845
1780854560556530000,21.795530029296874,2.4445674419403076,-11.974282264709473,0.8189435601234436
1780854560605046300,21.84404638671875,6.394220352172852,-10.96869945526123,1.8391833305358887
1780854560653563100,21.892563232421875,2.7000012397766113,-13.406387329101562,0.1579262912273407
1780854560702079500,21.94107958984375,-3.9759738445281982,-12.86052417755127,-1.7880367040634155
1780854560750596000,21.98959619140625,3.3556346893310547,-11.055438995361328,-1.7428722381591797
1780854560799112700,22.03811279296875,0.1378864049911499,-12.16929817199707,-6.9445695877075195
1780854560847629000,22.086629150390625,-0.511465847492218,-9.477072715759277,1.2424731254577637
1780854560896146000,22.13514599609375,2.00518536567688,-6.519843578338623,-1.0857433080673218
1780854560944662300,22.183662353515626,0.8763712644577026,-6.378367900848389,-0.666999340057373
1780854560993179000,22.232178955078126,0.022133609279990196,-7.7470622062683105,0.5440680384635925
1780854561041695500,22.280695556640627,2.046461582183838,-8.713762283325195,0.763310432434082
1780854561090212000,22.329212158203124,1.740180253982544,-10.024431228637695,0.33828529715538025
1780854561138728400,22.377728515625,7.756932735443115,-10.896017074584961,-1.0791629552841187
1780854561187245000,22.4262451171875,0.18364913761615753,-14.933606147766113,-1.5224334001541138
1780854561235761700,22.47476171875,1.7482560873031616,-9.189037322998047,1.6360924243927002
1780854561284278000,22.523278076171874,-1.194616675376892,-9.460622787475586,-0.4345964193344116
1780854561332794600,22.571794677734374,-0.5330012440681458,-14.707783699035645,-2.5262224674224854
1780854561381311200,22.620311279296875,-1.2634103298187256,-12.745967864990234,1.3441680669784546
1780854561429827800,22.668827880859375,0.3326023519039154,-8.936594009399414,2.1496520042419434
1780854561478344200,22.71734423828125,1.8478572368621826,-7.310073375701904,-1.1563315391540527
1780854561526860800,22.76586083984375,1.5897315740585327,-6.303293228149414,-2.0563318729400635
1780854561623894000,22.86289404296875,3.1920254230499268,-5.6584272384643555,1.3695918321609497
1780854561672410400,22.911410400390626,2.0084755420684814,-11.861820220947266,1.6525431871414185
1780854561720927000,22.959927001953126,5.741278648376465,-13.975580215454102,0.2928216755390167
1780854561769443600,23.008443603515627,3.8638103008270264,-14.229218482971191,1.9423737525939941
1780854561817960200,23.056960205078123,-4.705784797668457,-11.260025024414062,-3.116053342819214
1780854561866476500,23.1054765625,1.4243277311325073,-10.176674842834473,-0.8656035661697388
1780854561914993200,23.1539931640625,0.86470627784729,-13.171591758728027,-4.978566646575928
1780854561963509800,23.202509765625,-0.9699904918670654,-9.007183074951172,-2.950948476791382
1780854562012026400,23.2510263671875,3.0086753368377686,-6.571588516235352,0
1780854562060542700,23.299542724609374,3.0550363063812256,-5.865705490112305,0.5159524083137512
1780854562109059300,23.348059326171875,-1.1045867204666138,-8.520243644714355,0.9158528447151184
1780854562157576000,23.396575927734375,0.7992027401924133,-9.711869239807129,1.4333007335662842
1780854562206092500,23.445092529296875,2.326720952987671,-8.94975471496582,0.35503506660461426
1780854562254609000,23.49360888671875,7.93370246887207,-9.211469650268555,-1.2394821643829346
1780854562303125500,23.54212548828125,0.032602209597826004,-15.71516227722168,-0.15164513885974884
1780854562351642000,23.59064208984375,0.9768698215484619,-11.932108879089355,1.5400804281234741
1780854562400158500,23.639158447265626,-1.0097711086273193,-9.20997428894043,-1.6701902151107788
1780854562448675000,23.687675048828126,1.2496516704559326,-10.182955741882324,-3.2629127502441406
1780854562497191700,23.736191650390627,-1.1527422666549683,-15.399608612060547,2.958425998687744
1780854562545708300,23.784708251953123,-1.9316060543060303,-10.050752639770508,2.903989315032959
1780854562594224600,23.833224609375,0.7450651526451111,-7.800601959228516,-1.430309772491455
1780854562642741200,23.8817412109375,3.680161237716675,-5.839982986450195,-2.6566312313079834
1780854562691257900,23.9302578125,1.7291134595870972,-6.508477687835693,-1.83619225025177
1780854562739774500,23.9787744140625,3.4534413814544678,-5.733202934265137,0.804885745048523
1780854562788290800,24.027290771484374,0.9275178909301758,-11.72542953491211,3.3251261711120605
1780854562836807400,24.075807373046874,4.702793598175049,-14.310873985290527,1.291226863861084
1780854562885324000,24.124323974609375,4.3998026847839355,-12.403794288635254,2.9479575157165527
1780854562933840600,24.172840576171875,-2.6458635330200195,-11.422737121582031,-3.8724844455718994
1780854562982357000,24.22135693359375,1.5535401105880737,-11.719147682189941,-0.9451649188995361
1780854563030873600,24.26987353515625,0.7698906660079956,-12.202498435974121,-3.925126552581787
1780854563079390000,24.318389892578125,-0.22073788940906525,-9.346364974975586,-3.702594041824341
1780854563127906600,24.366906494140625,2.2372891902923584,-7.4841508865356445,-0.48723849654197693
1780854563176423200,24.415423095703126,2.7885355949401855,-5.592624664306641,0.7911269664764404
1780854563273456000,24.5124560546875,0.9314061999320984,-10.202098846435547,2.1122641563415527
1780854563321972700,24.56097265625,0.8335995674133301,-9.427123069763184,0.4052843451499939
1780854563370489300,24.6094892578125,6.288936138153076,-8.181060791015625,-1.7673985958099365
1780854563419005700,24.658005615234377,3.471088409423828,-13.236496925354004,-2.1655044555664062
1780854563516039000,24.755038818359374,0.020039889961481094,-8.953044891357422,1.7012969255447388
1780854563564555300,24.80355517578125,0.9068797826766968,-9.154341697692871,-1.7380865812301636
1780854563613072000,24.85207177734375,0.06161518394947052,-16.091135025024414,-0.7552346587181091
1780854563661588200,24.900588134765623,-2.2295124530792236,-12.904492378234863,4.130012035369873
1780854563710104800,24.949104736328124,0.046061836183071136,-8.291130065917969,0.6610172390937805
1780854563758621400,24.997621337890624,3.250948667526245,-5.870491027832031,-2.2157537937164307
1780854563807138000,25.046137939453125,2.6973092555999756,-5.597709655761719,-2.862713098526001
1780854563855654400,25.094654296875,2.7813572883605957,-5.811567783355713,-1.1778669357299805
1780854563904171000,25.1431708984375,2.0931215286254883,-9.06700325012207,2.7637102603912354
1780854563952687600,25.1916875,2.5836503505706787,-15.379568099975586,0.7818548083305359
1780854564001204000,25.240203857421875,5.651846885681152,-12.838091850280762,5.536393165588379
1780854564049720600,25.288720458984375,1.1300104856491089,-12.069995880126953,-1.70039963722229
1780854564098237200,25.3372373046875,-0.6945167779922485,-9.567103385925293,-4.069293975830078
1780854564146753500,25.38575341796875,1.205085277557373,-10.686346054077148,-0.6906284093856812
1780854564195270100,25.434270263671873,0.2997010350227356,-11.567802429199219,-3.0236306190490723
1780854564243786800,25.482786865234374,0.23838496208190918,-8.82652473449707,-2.3982064723968506
1780854564292303400,25.531303466796874,2.6602206230163574,-7.635497093200684,-0.10049854964017868
1780854564340819700,25.57981982421875,2.8441689014434814,-6.5150580406188965,0.33828529715538025
1780854564389336000,25.628336181640623,-0.9326026439666748,-9.384650230407715,0.9290133714675903
1780854564437852700,25.676852783203124,1.394417405128479,-9.037691116333008,1.3298112154006958
1780854564486369300,25.725369384765624,1.9770697355270386,-8.887840270996094,0.08464609831571579
1780854564534886000,25.773885986328125,5.805884838104248,-9.457930564880371,-2.097907304763794
1780854564583402200,25.82240234375,2.9303104877471924,-14.009976387023926,-1.2161520719528198
1780854564631918800,25.8709189453125,1.2529417276382446,-12.492030143737793,3.248555898666382
1780854564680435500,25.919435546875,-1.721037745475769,-9.60628604888916,-0.37088751792907715
1780854564728951800,25.967951904296875,1.1431710720062256,-9.610174179077148,-3.7199418544769287
1780854564825985000,26.064985107421876,-1.5260226726531982,-10.348958015441895,3.19860577583313
1780854564874501400,26.11350146484375,0.9586246013641357,-7.218547821044922,-0.14656038582324982
1780854564923018000,26.16201806640625,3.634697675704956,-5.7996039390563965,-2.927917718887329
1780854564971534300,26.210534423828125,2.109572172164917,-5.930910110473633,-2.9599215984344482
1780854565020051000,26.259051025390626,3.818047523498535,-5.454738140106201,0.649053156375885
1780854565068567600,26.307567626953126,1.8553348779678345,-12.915858268737793,2.435295343399048
1780854565117084200,26.356084228515623,3.4322049617767334,-14.42931842803955,0.5964110493659973
1780854565165600500,26.4046005859375,4.4018964767456055,-12.014960289001465,2.4924237728118896
1780854565214117000,26.4531171875,-0.6819544434547424,-11.819646835327148,-3.7561333179473877
1780854565262633700,26.5016337890625,-1.2059825658798218,-9.373284339904785,-0.6876373887062073
1780854565311150000,26.550150146484373,0.4456632137298584,-12.53839111328125,-4.9133620262146
1780854565359666400,26.59866650390625,-0.1818545162677765,-10.250253677368164,-4.840680122375488
1780854565408183000,26.64718310546875,3.576671600341797,-7.960322856903076,-0.11485548317432404
1780854565456699600,26.69569970703125,3.4534413814544678,-6.490232467651367,0.8955138921737671
1780854565505216300,26.74421630859375,-0.3858426511287689,-8.753543853759766,1.9830517768859863
1780854565553732600,26.792732666015624,1.2696914672851562,-8.947361946105957,2.3569302558898926
1780854565602249000,26.8412490234375,1.8813568353652954,-8.3629150390625,1.8305093050003052
1780854565650765600,26.889765625,4.119543075561523,-8.914759635925293,-1.6061822175979614
1780854565699282200,26.9382822265625,4.405186653137207,-12.35563850402832,-1.0432707071304321
1780854565747798500,26.986798583984374,2.579462766647339,-13.054641723632812,1.6238292455673218
1780854565796315100,27.035315185546875,-0.39062830805778503,-11.07009506225586,0.607776939868927
1780854565844831700,27.083831787109375,-1.0289137363433838,-8.278568267822266,-2.335394859313965
1780854565893348000,27.13234814453125,0.6373881101608276,-13.003196716308594,-1.9701902866363525
1780854565941864700,27.18086474609375,-0.8294121623039246,-13.211372375488281,3.5910286903381348
1780854565990381000,27.229381103515625,-0.08045866340398788,-9.071788787841797,0.20428723096847534
1780854566038897700,27.277897705078125,1.5607185363769531,-6.826723098754883,-1.721037745475769
1780854566087414300,27.326414306640626,2.4089741706848145,-6.557231426239014,-1.8059829473495483
1780854566135930600,27.3749306640625,2.6470601558685303,-6.080162525177002,-1.2074781656265259
1780854566184447200,27.423447265625,2.405683994293213,-7.063014030456543,2.710469961166382
1780854566232963800,27.4719638671875,2.943171739578247,-14.186147689819336,0.4540380835533142
1780854566281480200,27.520480224609376,5.152345180511475,-14.0683012008667,4.270590305328369
1780854566329996500,27.56899658203125,0.5593222975730896,-13.047463417053223,-2.044367790222168
1780854566427029800,27.66602978515625,1.1096714735031128,-11.524731636047363,-1.677966833114624
1780854566475546000,27.714546142578126,-0.6484549641609192,-10.916954040527344,-3.5494532585144043
1780854566524062700,27.763062744140626,0.7878368496894836,-7.770392417907715,-2.999702215194702
1780854566572579000,27.8115791015625,2.7340989112854004,-6.919445037841797,-0.1052841991186142
1780854566669612300,27.9086123046875,-1.1668001413345337,-9.73789119720459,1.8969101905822754
1780854566718128600,27.957128662109376,1.7889339923858643,-9.023932456970215,0.7441678643226624
1780854566766645200,28.005645263671877,1.8080766201019287,-8.801698684692383,-1.2236297130584717
1780854566815161900,28.054161865234374,7.41625452041626,-9.367302894592285,-0.771087110042572
1780854566863678200,28.10267822265625,1.1371889114379883,-14.767005920410156,-0.41575294733047485
1780854566912194600,28.151194580078126,0.19531415402889252,-11.178370475769043,1.66929292678833
1780854566960711200,28.199711181640627,-0.9182456731796265,-8.259425163269043,-1.3992030620574951
1780854567009227800,28.248227783203124,1.4231312274932861,-11.630912780761719,-2.731706142425537
1780854567057744100,28.296744140625,-0.9984052777290344,-15.399608612060547,3.2694931030273438
1780854567106260700,28.3452607421875,-1.277169108390808,-10.341180801391602,2.257328987121582
1780854567154777000,28.393777099609373,1.789831280708313,-7.765307903289795,-1.3743774890899658
1780854567203293700,28.442293701171874,2.9629125595092773,-6.250650882720947,-2.7484560012817383
1780854567251810300,28.490810302734374,2.1744775772094727,-5.72841739654541,-2.164607286453247
1780854567300326700,28.53932666015625,3.5509488582611084,-5.397310733795166,1.9782661199569702
1780854567348843300,28.58784326171875,1.450947880744934,-13.994124412536621,0.7097710371017456
1780854567397359600,28.636359619140624,4.500001907348633,-13.261919975280762,1.220937728881836
1780854567494392600,28.733392578125,-2.24057936668396,-10.767104148864746,-4.8828535079956055
1780854567542909000,28.781908935546873,1.012762188911438,-9.997213363647461,-0.9125627279281616
1780854567591425500,28.830425537109374,0.0487537607550621,-12.902997016906738,-3.6568312644958496
1780854567639942100,28.878942138671874,-1.1222338676452637,-9.101400375366211,-3.588336706161499
1780854567688458500,28.92745849609375,2.0344974994659424,-7.549355506896973,-0.9493523836135864
1780854567736975000,28.97597509765625,3.820739507675171,-6.844968318939209,0.5120640397071838
1780854567785491700,29.02449169921875,0.06610172241926193,-8.45444107055664,1.4916257858276367
1780854567834008000,29.073008056640624,0.6442674994468689,-8.846264839172363,2.336890459060669
1780854567882524400,29.1215244140625,1.8717855215072632,-8.669795036315918,0.8934201598167419
1780854567931041000,29.170041015625,5.347958564758301,-8.806185722351074,-2.549253463745117
1780854568028074000,29.267073974609374,1.9716858863830566,-13.378271102905273,2.857030153274536
1780854568076590300,29.31559033203125,-1.9004993438720703,-9.9469633102417,0.6442674994468689
1780854568125106700,29.364106689453124,-0.0445663221180439,-8.772985458374023,-3.3475589752197266
1780854568173623600,29.41262353515625,-0.31046873331069946,-15.63948917388916,-0.6092724800109863
1780854568222140000,29.461139892578124,-1.3486546277999878,-11.547761917114258,3.996013879776001
1780854568270656300,29.50965625,0.7100701332092285,-7.818847179412842,0.14117653667926788
1780854568319172900,29.5581728515625,3.605086326599121,-5.85284423828125,-2.8737800121307373
1780854568367689500,29.606689453125,1.672582983970642,-6.1950178146362305,-3.121138095855713
1780854568416205800,29.655205810546875,3.2940194606781006,-5.31984281539917,-0.4001995921134949
1780854568464722200,29.70372216796875,1.8215361833572388,-10.865209579467773,2.939283609390259
1780854568513238800,29.75223876953125,3.1250264644622803,-14.887544631958008,-0.5225326418876648
1780854568561755400,29.80075537109375,5.3919267654418945,-13.283156394958496,3.1671998500823975
1780854568658788000,29.8977880859375,0.6293123364448547,-8.603095054626465,-0.7172485589981079
1780854568707304700,29.9463046875,1.1491531133651733,-13.8251314163208,-3.8117663860321045
1780854568755821300,29.9948212890625,-2.282752752304077,-10.120742797851562,-4.355834484100342
1780854568852854000,30.09185400390625,3.3984062671661377,-6.918248653411865,0.6029912829399109
1780854568901370600,30.14037060546875,0.32632118463516235,-7.894819259643555,1.0504491329193115
1780854568949887200,30.18888720703125,0.3756731450557709,-8.251349449157715,1.1623135805130005
1780854568998403600,30.237403564453125,1.8065811395645142,-8.437690734863281,0.6164509057998657
1780854569046920000,30.285919921875,5.9814581871032715,-9.169296264648438,-1.0821540355682373
1780854569095436500,30.3344365234375,2.9976086616516113,-14.172688484191895,-0.9481559991836548
1780854569143953200,30.382953125,0.5437689423561096,-12.739387512207031,2.454437732696533
1780854569192469500,30.431469482421875,-1.5083755254745483,-10.318748474121094,-1.8798612356185913
1780854569240985900,30.47998583984375,1.3591232299804688,-10.93430233001709,-4.895116806030273
1780854569289502200,30.528502197265624,-1.189831018447876,-16.327125549316406,3.8458642959594727
1780854569338018800,30.577018798828124,-2.4287149906158447,-9.947860717773438,3.304488182067871
1780854569386535400,30.625535400390625,2.058724880218506,-7.1473612785339355,-1.8170497417449951
1780854569435051800,30.6740517578125,3.053241729736328,-5.105386257171631,-2.6362924575805664
1780854569483568000,30.722568115234374,1.5490535497665405,-5.927619934082031,-1.9917258024215698
1780854569532084700,30.771084716796874,4.143471717834473,-5.175076961517334,1.153340458869934
1780854569629117400,30.868117431640623,4.30379056930542,-12.863814353942871,0.1779661774635315
1780854569677634000,30.916634033203124,6.583253383636475,-11.016555786132812,3.6960136890411377
1780854569726150700,30.965150634765624,-3.7328033447265625,-12.471391677856445,-4.829314231872559
1780854569774667000,31.0136669921875,-0.0972084179520607,-11.041081428527832,-0.22552353143692017
1780854569823183600,31.06218359375,1.7994025945663452,-11.991331100463867,-5.073681354522705
1780854569871700000,31.110699951171874,-1.196411371231079,-9.836296081542969,-4.1389851570129395
1780854569920216600,31.159216552734375,2.089831590652466,-7.655537128448486,-0.20398813486099243
1780854569968733000,31.20773291015625,3.314059257507324,-6.430112838745117,0.36281174421310425
1780854570017249300,31.256249267578124,0.268594354391098,-8.139485359191895,1.358525037765503
1780854570065766000,31.304765869140624,0.13100704550743103,-8.543871879577637,1.5146567821502686
1780854570114282200,31.3532822265625,1.3214362859725952,-9.550353050231934,0.9278169870376587
1780854570162798800,31.401798828125,7.063014030456543,-8.905488014221191,-1.3932210206985474
1780854570211315200,31.450315185546874,1.9214365482330322,-14.642579078674316,-0.6349952816963196
1780854570259831600,31.49883154296875,1.7856439352035522,-11.276775360107422,1.9244276285171509
1780854570308348200,31.54734814453125,-1.4222339391708374,-9.295218467712402,-0.7809575200080872
1780854570356864500,31.595864501953123,0.31106695532798767,-11.401800155639648,-3.5835509300231934
1780854570405381000,31.644381103515624,-1.3175479173660278,-16.057634353637695,1.7955143451690674
1780854570453897500,31.6928974609375,-1.430907964706421,-10.336994171142578,2.4424736499786377
1780854570502414000,31.7414140625,2.661417007446289,-7.275078296661377,-1.1015957593917847
1780854570550930400,31.789930419921873,2.6470601558685303,-6.15134859085083,-2.4900310039520264
1780854570599446800,31.83844677734375,1.2705888748168945,-6.506682872772217,-2.1206390857696533
1780854570647963400,31.88696337890625,3.6299118995666504,-4.657928466796875,0.3317050337791443
1780854570696479700,31.935479736328126,1.7102699279785156,-11.522039413452148,2.6264219284057617
1780854570744996400,31.983996337890623,4.221537113189697,-15.147165298461914,1.9316060543060303
1780854570793512700,32.0325126953125,3.571586847305298,-13.1365966796875,1.9677975177764893
1780854570842029000,32.08102905273437,-2.511566400527954,-11.657832145690918,-5.231607437133789
1780854570890545700,32.12954565429688,0.908674418926239,-10.843673706054688,-1.5547364950180054
1780854570939062000,32.17806201171875,0.6020939946174622,-12.178869247436523,-3.067598581314087
1780854570987578400,32.226578369140626,-0.7025925517082214,-8.918647766113281,-3.2955150604248047
1780854571036095000,32.27509497070312,1.7309080362319946,-7.076473712921143,-1.4739787578582764
1780854571084611300,32.323611328125,4.48325252532959,-6.011368751525879,0.5545366406440735
1780854571181644300,32.420644287109376,-0.27696922421455383,-10.24905776977539,1.9926230907440186
1780854571230160600,32.46916064453125,2.5283162593841553,-8.139485359191895,0.44327038526535034
1780854571278677000,32.517677001953125,6.741179466247559,-7.801498889923096,0.31435707211494446
1780854571327193600,32.56619360351562,1.2834502458572388,-15.077774047851562,-1.2843475341796875
1780854571375710200,32.614710205078126,1.4054841995239258,-10.836495399475098,0.35024940967559814
1780854571424226600,32.6632265625,-0.056530434638261795,-8.164909362792969,-0.36670008301734924
1780854571472743000,32.711742919921875,1.0001999139785767,-12.89492130279541,-3.123530864715576
1780854571521259500,32.76025952148437,-2.126322031021118,-17.169099807739258,2.7071797847747803
1780854571569775900,32.80877587890625,-1.2628121376037598,-9.277871131896973,2.1541385650634766
1780854571618292200,32.85729223632813,2.4248266220092773,-6.725626468658447,-1.363310694694519
1780854571666808600,32.90580859375,3.0035905838012695,-5.507679462432861,-2.6096723079681396
1780854571715325200,32.9543251953125,1.3797613382339478,-6.1935224533081055,-2.730210542678833
1780854571763841800,33.002841796875,2.6240291595458984,-5.201996326446533,1.32711923122406
1780854571812358100,33.05135815429688,3.5575289726257324,-12.293425559997559,1.2044870853424072
1780854571860874500,33.09987451171875,2.7846474647521973,-16.188940048217773,1.5999010801315308
1780854571909391000,33.14839111328125,2.1047866344451904,-14.835500717163086,3.0167510509490967
1780854571957907500,33.196907470703124,-0.0364905446767807,-9.081659317016602,-4.11625337600708
1780854572006423800,33.245423828125,2.140678882598877,-11.16640567779541,-2.8890342712402344
1780854572054940200,33.29394018554687,-1.7668004035949707,-12.66999626159668,-4.272684097290039
1780854572103456500,33.34245654296875,-0.4061816334724426,-7.543074131011963,-2.8531417846679688
1780854572151973000,33.39097314453125,2.9623143672943115,-6.779763698577881,-0.43160539865493774
1780854572200489500,33.439489501953126,3.4208390712738037,-6.670292377471924,0.6116653084754944
1780854572249005800,33.488005859375,-0.6269195079803467,-9.174979209899902,1.2197413444519043
1780854572297522400,33.5365224609375,0.056530434638261795,-9.30748176574707,1.0926226377487183
1780854572346039000,33.5850390625,3.059522867202759,-8.645866394042969,-0.09391828626394272
1780854572394555400,33.633555419921876,6.281159400939941,-8.80469036102295,0.07746763527393341
1780854572443071700,33.68207177734375,1.1653046607971191,-14.65215015411377,-1.2394821643829346
1780854572491588400,33.73058837890625,1.3175479173660278,-10.268499374389648,0.7663014531135559
1780854572540104700,33.77910473632812,-0.4289134442806244,-8.799904823303223,-1.1318050622940063
1780854572588621000,33.82762109375,0.401096910238266,-14.511871337890625,-3.25663161277771
1780854572637137400,33.87613745117188,-0.8485547304153442,-15.947565078735352,3.1034910678863525
1780854572685653800,33.92465380859375,-1.2786645889282227,-9.335298538208008,1.9103697538375854
1780854572782686700,34.021686767578124,2.3395824432373047,-4.868496894836426,-2.416750907897949
1780854572831203000,34.070203125,2.2271196842193604,-4.886143684387207,-1.4605190753936768
1780854572879719700,34.1187197265625,1.5463616847991943,-6.378666877746582,1.9938194751739502
1780854572928236000,34.16723608398438,3.751945972442627,-15.358033180236816,-1.1694921255111694
1780854572976752600,34.215752685546875,5.006682395935059,-14.611173629760742,4.918148040771484
1780854573025269000,34.26426904296875,-0.45284169912338257,-12.846467018127441,-1.2664014101028442
1780854573073785300,34.312785400390624,-0.2961117923259735,-9.572786331176758,-3.682554006576538
1780854573122302000,34.36130200195313,2.131406784057617,-12.229118347167969,-1.9926230907440186
1780854573170818300,34.409818359375,-1.1955139636993408,-10.938190460205078,-4.039981842041016
1780854573267851000,34.50685107421875,4.267001152038574,-6.3978095054626465,0.03888336941599846
1780854573316367600,34.55536767578125,1.4715858697891235,-7.031010150909424,1.5427724123001099
1780854573364884000,34.60388403320312,-0.537487804889679,-9.684351921081543,2.1852452754974365
1780854573413400300,34.652400390625,1.6501502990722656,-9.268000602722168,0.1785643845796585
1780854573461916700,34.70091674804687,5.5136613845825195,-7.743174076080322,-0.16420745849609375
1780854573510433300,34.749433349609376,4.500301361083984,-10.110572814941406,-1.5906288623809814
1780854573558949600,34.79794970703125,0.5964110493659973,-16.254444122314453,-0.4737788736820221
1780854573607466000,34.846466064453125,1.5056836605072021,-10.108180046081543,2.194218397140503
1780854573704499000,34.9434990234375,1.3773685693740845,-12.915559768676758,-3.2931220531463623
1780854573753015300,34.99201538085938,-1.2269197702407837,-14.962320327758789,3.154637575149536
1780854573801531600,35.04053173828125,-1.5882359743118286,-9.32722282409668,1.7880367040634155
1780854573850048000,35.08904809570313,1.6734803915023804,-6.7707905769348145,-0.890728235244751
1780854573898564600,35.137564697265624,3.349353551864624,-5.8944196701049805,-2.1765713691711426
1780854573947081000,35.1860810546875,1.70039963722229,-6.002993583679199,-1.8272192478179932
1780854573995597300,35.23459741210937,2.8636105060577393,-6.182156562805176,2.111067771911621
1780854574044113700,35.28311376953125,2.9479575157165527,-13.645370483398438,0.34695929288864136
1780854574092630300,35.33163037109375,4.262514591217041,-13.353744506835938,3.4163525104522705
1780854574141146600,35.380146728515626,2.5250260829925537,-13.167702674865723,2.5052852630615234
1780854574189663000,35.4286630859375,-1.4778671264648438,-10.7766752243042,-4.76829719543457
1780854574238179300,35.477179443359375,1.470090389251709,-11.805289268493652,-1.7434704303741455
1780854574335212300,35.57421240234375,0.20338992774486542,-8.520243644714355,-3.6696925163269043
1780854574383728600,35.62272875976562,2.510669231414795,-7.975277900695801,-0.45164528489112854
1780854574432245000,35.671244873046874,3.414557933807373,-6.627520561218262,1.036690354347229
1780854574480761600,35.71976171875,-0.5488536953926086,-8.870193481445312,1.5188441276550293
1780854574529278000,35.76827783203125,1.1599208116531372,-9.090332984924316,1.7569299936294556
1780854574577794300,35.81679418945313,2.6168506145477295,-8.397012710571289,1.1060823202133179
1780854574626310700,35.865310546875,4.150949001312256,-9.707681655883789,-2.312962293624878
1780854574674827300,35.9138271484375,3.319742202758789,-13.4039945602417,-1.7021942138671875
1780854574723343600,35.96234350585937,2.704786777496338,-12.321540832519531,3.1187453269958496
1780854574771860000,36.01085986328125,-0.8835497498512268,-10.251749038696289,0.8868398666381836
1780854574820376300,36.05937622070312,-0.4465605318546295,-7.866105556488037,-2.525325298309326
1780854574868892700,36.107892578125,0.2961117923259735,-15.111272811889648,-1.999502420425415
1780854574917409300,36.1564091796875,-1.38933265209198,-13.083953857421875,3.452244758605957
1780854574965925400,36.20492529296875,0.12861421704292297,-7.881060600280762,0.2997010350227356
1780854575014442000,36.25344189453125,3.8739798069000244,-5.973980903625488,-1.953440546989441
1780854575062958300,36.301958251953124,2.305185556411743,-5.761318683624268,-2.7254250049591064
1780854575111475000,36.35047485351563,2.841775894165039,-5.607280731201172,-0.6661019921302795
1780854575159991300,36.3989912109375,2.0793628692626953,-9.528818130493164,2.4272193908691406
1780854575208507600,36.44750756835938,3.82373046875,-13.827524185180664,0.6442674994468689
1780854575257024000,36.49602392578125,3.7812578678131104,-15.223137855529785,4.308875560760498
1780854575305540400,36.544540283203126,-1.6773686408996582,-11.554342269897461,-2.8803603649139404
1780854575354056700,36.593056640625,1.3767703771591187,-9.268000602722168,-2.1888344287872314
1780854575402573000,36.641572998046875,0.9753743410110474,-13.442279815673828,-3.9702908992767334
1780854575451089400,36.69008935546875,-0.5647061467170715,-9.002396583557129,-4.500001907348633
1780854575499606000,36.73860595703125,1.6683956384658813,-7.7593255043029785,-1.9420746564865112
1780854575548122400,36.78712231445313,3.8318064212799072,-6.994220733642578,0.9337990283966064
1780854575596638700,36.835638671875,0.40289151668548584,-7.6253275871276855,1.3767703771591187
1780854575645155000,36.88415502929688,-0.08554340898990631,-9.46181869506836,1.4850455522537231
1780854575693671700,36.932671630859375,1.7931214570999146,-8.565407752990723,0.605384111404419
1780854575742188000,36.98118798828125,5.1343994140625,-9.151649475097656,-2.5669004917144775
1780854575790704400,37.029704345703124,4.36391019821167,-12.032906532287598,-1.5936198234558105
1780854575839220700,37.078220703125,2.5220351219177246,-14.333605766296387,2.4089741706848145
1780854575936253400,37.17525341796875,-1.0067801475524902,-7.414759159088135,-3.05234432220459
1780854575984770000,37.22377001953125,1.0839486122131348,-14.096715927124023,-3.3634114265441895
1780854576033286400,37.272286376953126,-0.3978067636489868,-13.220943450927734,5.075775146484375
1780854576081802800,37.320802734375,-1.7380865812301636,-8.37727165222168,1.922333836555481
1780854576130319000,37.369319091796875,1.8290138244628906,-6.540182590484619,-1.8801604509353638
1780854576178835500,37.41783544921875,3.806382656097412,-5.586642742156982,-3.212663412094116
1780854576227351800,37.466351806640624,4.069293975830078,-5.020142078399658,-1.469791293144226
1780854576275868400,37.51486840820313,0.7624131441116333,-10.2445707321167,2.215155601501465
1780854576324384800,37.563384765625,2.801995277404785,-14.530714988708496,0.23270200192928314
1780854576372901000,37.61190112304688,6.350551128387451,-13.140783309936523,5.947061538696289
1780854576421417500,37.66041748046875,-0.9675976634025574,-13.254741668701172,-3.7669010162353516
1780854576469933800,37.708933837890626,-0.6699903607368469,-9.584152221679688,-3.2940194606781006
1780854576518450200,37.7574501953125,1.872084617614746,-11.295618057250977,-2.123331069946289
1780854576566966500,37.805966552734375,-1.5041881799697876,-10.813763618469238,-4.272983074188232
1780854576615483000,37.85448291015625,0.1585244983434677,-8.105088233947754,-1.932802438735962
1780854576663999200,37.902999267578124,3.40079927444458,-6.73729133605957,-0.2353939265012741
1780854576712515800,37.95151586914063,2.2908284664154053,-7.249654293060303,0.7666005492210388
1780854576761032200,38.0000322265625,-1.057627558708191,-9.453444480895996,1.5427724123001099
1780854576809548500,38.04854858398438,1.0064810514450073,-8.522636413574219,1.5810575485229492
1780854576858065000,38.09706494140625,3.996013879776001,-9.51476001739502,-0.8823533654212952
1780854576906581500,38.14558154296875,5.234000205993652,-11.555837631225586,-2.445464849472046
1780854577003614200,38.2426142578125,0.9074779748916626,-10.687243461608887,2.241177558898926
1780854577052130600,38.29113061523437,-1.591825246810913,-9.20279598236084,-1.0680961608886719
1780854577100647000,38.33964697265625,0.7627122402191162,-12.84616756439209,-2.5872395038604736
1780854577149163300,38.38816333007812,-0.6230311989784241,-14.385051727294922,2.905484914779663
1780854577197679600,38.4366796875,-1.267298698425293,-9.519247055053711,2.103889226913452
1780854577246196000,38.48519604492188,1.6070795059204102,-7.156334400177002,-1.923829436302185
1780854577294712600,38.533712646484375,3.514458179473877,-5.477769374847412,-2.6183462142944336
1780854577343229000,38.58222900390625,2.6111676692962646,-5.6656060218811035,-2.2764716148376465
1780854577391745300,38.630745361328124,2.390429735183716,-6.904190540313721,1.5346965789794922
1780854577488778000,38.72777807617187,5.821737289428711,-13.675878524780273,3.191427230834961
1780854577537294300,38.77629443359375,2.219642162322998,-13.531412124633789,0.2234298139810562
1780854577585810700,38.82481079101562,-2.775076150894165,-9.929316520690918,-4.6510491371154785
1780854577634327000,38.8733271484375,2.4870400428771973,-10.696515083312988,-1.0402796268463135
1780854577682843400,38.92184350585938,-0.47617170214653015,-12.129816055297852,-3.5611183643341064
1780854577731360000,38.970360107421875,-0.2072782665491104,-8.744869232177734,-2.42093825340271
1780854577779876000,39.0188759765625,2.3670997619628906,-7.739883899688721,-0.4504488706588745
1780854577828392400,39.06739233398437,2.6024937629699707,-6.416952133178711,0.0687936544418335
1780854577876909000,39.11590893554688,-0.4408775866031647,-8.676374435424805,1.0010972023010254
1780854577925425400,39.16442529296875,1.1467602252960205,-9.522835731506348,1.0322039127349854
1780854578022458000,39.2614580078125,6.092126369476318,-7.9040913581848145,-1.1467602252960205
1780854578070974500,39.309974365234375,2.968595504760742,-13.594522476196289,-1.4174482822418213
1780854578119490800,39.35849072265625,0.3116651475429535,-15.061323165893555,2.171187400817871
1780854578168007200,39.407007080078124,-1.4123635292053223,-9.133403778076172,-0.1501496136188507
1780854578216523500,39.4555234375,1.3606188297271729,-7.080362319946289,-4.246362686157227
1780854578313556500,39.55255639648438,-2.423929452896118,-12.215359687805176,4.887938499450684
1780854578362072600,39.60107250976562,-0.620638370513916,-7.860422611236572,-1.5194423198699951
1780854578410589000,39.6495888671875,4.256831645965576,-6.316154479980469,-2.077568292617798
1780854578459105300,39.69810522460938,2.7798616886138916,-5.528915882110596,-0.9260223507881165
1780854578507622000,39.746621826171875,3.6089746952056885,-5.406881809234619,0.3284149169921875
1780854578556138200,39.79513818359375,1.4557334184646606,-10.822138786315918,2.569293260574341
1780854578604654600,39.843654541015624,3.246462106704712,-12.981062889099121,0.9652048349380493
1780854578701687000,39.94068701171875,-1.041775107383728,-13.230813980102539,-2.698206663131714
1780854578750203600,39.98920361328125,1.181157112121582,-9.064909934997559,-3.8730826377868652
1780854578798720000,40.03771997070312,2.98295259475708,-10.76949691772461,-6.9445695877075195
1780854578847236400,40.086236328125,1.9028922319412231,-10.216754913330078,-5.339284420013428
1780854578895752400,40.13475244140625,1.572981834411621,-9.010472297668457,0.012562318705022335
1780854578944269000,40.18326904296875,1.7186448574066162,-7.277172088623047,1.4428720474243164
1780854578992785400,40.23178540039063,1.2795618772506714,-7.693821907043457,-0.12771691381931305
1780854579089818000,40.32881811523438,1.0710872411727905,-9.273982048034668,-0.11066804826259613
1780854579138334500,40.37733447265625,5.7547383308410645,-7.65792989730835,1.200299620628357
1780854579186850800,40.425850830078126,4.2592244148254395,-13.320843696594238,1.012762188911438
1780854579235367200,40.4743671875,0.6382854580879211,-13.975580215454102,-0.006580262444913387
1780854579283883500,40.522883544921875,-0.3565305769443512,-8.391629219055176,-0.9421738982200623
1780854579332400000,40.57140014648437,1.8191434144973755,-9.1986083984375,-3.4743785858154297
1780854579380916200,40.619916259765624,0.9538389444351196,-18.259031295776367,1.7883358001708984
1780854579429432600,40.6684326171875,-3.0317063331604004,-10.349855422973633,5.548955917358398
1780854579477949000,40.71694897460937,-0.7232306599617004,-6.479165554046631,0.2353939265012741
1780854579526465500,40.76546557617188,3.494119167327881,-5.7164530754089355,-1.5592230558395386
1780854579574981600,40.81398168945312,3.037987470626831,-6.3601226806640625,-2.7029922008514404
1780854579623498000,40.862498046875,3.088535785675049,-6.218048572540283,0.46719861030578613
1780854579672014300,40.91101440429688,1.9438693523406982,-11.262417793273926,1.786541223526001
1780854579720530700,40.95953076171875,3.680161237716675,-14.7206449508667,2.8911280632019043
1780854579769047000,41.00804711914063,2.752643346786499,-14.918352127075195,0.7244270443916321
1780854579817563400,41.0565634765625,0.4253242313861847,-10.448858261108398,-4.319941997528076
1780854579914596000,41.15359619140625,-0.11964113265275955,-13.070494651794434,-3.746263027191162
1780854579963112700,41.20211279296875,0.4253242313861847,-8.228019714355469,-2.995215654373169
1780854580011628800,41.25062890625,1.8583258390426636,-6.742076873779297,-2.2636101245880127
1780854580060145200,41.299145263671875,3.0230321884155273,-6.447161674499512,-0.5081757307052612
1780854580108661800,41.34766186523437,1.5107684135437012,-7.851748466491699,1.7356936931610107
1780854580157178000,41.39617822265625,0.11724831163883209,-9.450752258300781,2.699702262878418
1780854580205694500,41.44469458007813,0.5350949764251709,-9.30329418182373,1.1063814163208008
1780854580254210600,41.49321044921875,3.4965121746063232,-8.840581893920898,-0.7728816866874695
1780854580302727000,41.541726806640625,7.554141044616699,-11.063814163208008,-1.170688509941101
1780854580351243500,41.59024340820312,0.2745763957500458,-15.962519645690918,1.0393823385238647
1780854580399759600,41.638759521484374,-0.5048855543136597,-9.1986083984375,1.5966109037399292
1780854580448276000,41.68727587890625,-0.2928216755390167,-8.469695091247559,-3.7645082473754883
1780854580496792300,41.73579223632812,0.1333998590707779,-15.56680679321289,-1.511366605758667
1780854580545308700,41.78430859375,-1.5858432054519653,-13.245170593261719,5.480461120605469
1780854580593825000,41.83282495117187,-0.6451647877693176,-7.557431221008301,0.7139584422111511
1780854580642341400,41.88134130859375,2.35872483253479,-5.826523303985596,-1.7817555665969849
1780854580739374000,41.9783740234375,3.2135608196258545,-5.512465000152588,-1.297807216644287
1780854580787890400,42.02689038085938,1.3214362859725952,-9.723533630371094,2.6623141765594482
1780854580836406800,42.07540673828125,2.4771697521209717,-14.499608039855957,0.4657030999660492
1780854580884923100,42.12392309570313,6.244668960571289,-14.062020301818848,4.515256404876709
1780854580933439500,42.172439453125,-0.7507480978965759,-12.311969757080078,-4.025625228881836
1780854580981955800,42.220955810546876,0.1498505175113678,-10.125528335571289,-1.4868401288986206
1780854581030472200,42.26947216796875,0.966102123260498,-14.579468727111816,-4.106083869934082
1780854581078988500,42.317988525390625,-0.6092724800109863,-9.179466247558594,-3.908376693725586
1780854581127505000,42.3665048828125,1.3806586265563965,-6.980462074279785,-1.734796404838562
1780854581176021200,42.415021240234374,2.593221426010132,-5.807380676269531,0.7713862061500549
1780854581224537600,42.46353759765625,1.7069798707962036,-6.8252272605896,1.3710874319076538
1780854581273054000,42.51205395507812,-0.8129615187644958,-9.80518913269043,1.3692927360534668
1780854581321570300,42.5605703125,1.2242279052734375,-9.720542907714844,0.2024926096200943
1780854581370086700,42.60908666992187,5.949454307556152,-8.02492904663086,-1.0208379030227661
1780854581418602800,42.657602783203124,4.48325252532959,-12.572488784790039,-1.9037895202636719
1780854581467119000,42.706119140625,1.5020943880081177,-14.943775177001953,1.1096714735031128
1780854581515635500,42.75463549804687,-0.9026923179626465,-9.71815013885498,1.7635103464126587
1780854581564152000,42.80315209960938,0.41066819429397583,-9.459425926208496,-3.1316065788269043
1780854581612668200,42.85166821289062,0.5590232014656067,-15.558133125305176,-1.1491531133651733
1780854581661184500,42.9001845703125,-2.3922245502471924,-11.685648918151855,3.365206003189087
1780854581709700900,42.94870092773437,-0.5736792087554932,-7.313961505889893,0.3846462368965149
1780854581758217200,42.99721728515625,2.8839495182037354,-5.744568824768066,-1.866999864578247
1780854581806733600,43.04573364257813,2.6871397495269775,-5.614459037780762,-2.3769702911376953
1780854581855250000,43.09425,2.652743101119995,-6.112764358520508,-0.7929216027259827
1780854581903766300,43.14276635742188,1.8385851383209229,-9.811470031738281,3.012563705444336
1780854581952282600,43.19128271484375,2.329113721847534,-14.790635108947754,0.7938188910484314
1780854582000799000,43.239799072265626,4.839184761047363,-14.237295150756836,3.656233072280884
1780854582049315300,43.2883154296875,-0.6765705943107605,-11.775678634643555,-3.949054718017578
1780854582097831400,43.33683154296875,0.716949462890625,-8.741579055786133,-1.2083754539489746
1780854582146347800,43.38534765625,1.7434704303741455,-13.738092422485352,-2.6949164867401123
1780854582194864000,43.43386401367187,-1.1443674564361572,-9.98853874206543,-3.547060489654541
1780854582291896800,43.53089672851563,2.5154547691345215,-6.821339130401611,0.09242277592420578
1780854582340413200,43.5794130859375,2.4972095489501953,-7.137789726257324,0.5964110493659973
1780854582388929500,43.62792944335938,-0.40348970890045166,-9.412467002868652,1.2640085220336914
1780854582437446000,43.67644580078125,0.7830511927604675,-8.833403587341309,0.7289136052131653
1780854582485962200,43.72496215820313,3.2671003341674805,-8.592626571655273,-0.631106972694397
1780854582534478300,43.77347827148437,6.017949104309082,-10.806585311889648,-1.5355939865112305
1780854582582994700,43.82199462890625,0.8886345028877258,-15.010176658630371,0.7594220638275146
1780854582631511000,43.87051098632813,-0.6394818425178528,-11.854043006896973,1.5314065217971802
1780854582680027400,43.91902734375,-0.32961133122444153,-8.617451667785645,-2.729313373565674
1780854582728543700,43.96754370117188,0.35084763169288635,-13.154841423034668,-1.9710876941680908
1780854582777060000,44.01606005859375,-1.7282161712646484,-12.551850318908691,2.77866530418396
1780854582825576400,44.064576416015626,-1.0618150234222412,-8.868698120117188,1.4635101556777954
1780854582874092800,44.1130927734375,1.7147564888000488,-6.964011192321777,-1.6447664499282837
1780854582922609200,44.161609130859375,2.9001009464263916,-6.309275150299072,-2.103889226913452
1780854583019641900,44.258641845703124,2.305783748626709,-6.984649181365967,2.905484914779663
1780854583068158000,44.30715795898438,2.2860429286956787,-13.663017272949219,0.6729813814163208
1780854583116674300,44.35567431640625,5.916851997375488,-13.684553146362305,2.8737800121307373
1780854583165190700,44.404190673828126,2.0129621028900146,-12.782458305358887,0.45942193269729614
1780854583213707000,44.45270703125,-2.4583261013031006,-10.381560325622559,-4.00319242477417
1780854583262223400,44.501223388671875,1.5897315740585327,-12.823734283447266,-1.6256239414215088
1780854583310739700,44.54973974609375,-1.1096714735031128,-11.32104206085205,-3.476173162460327
1780854583359255800,44.598255859375,-0.20518454909324646,-8.306385040283203,-2.7340989112854004
1780854583407772400,44.6467724609375,3.9448671340942383,-6.756433963775635,-0.3197409212589264
1780854583456288500,44.69528857421875,2.0297117233276367,-6.2913289070129395,0.2913261651992798
1780854583504804900,44.743804931640625,-0.35802608728408813,-9.259325981140137,1.602592945098877
1780854583553321200,44.7923212890625,1.425524115562439,-9.482755661010742,2.0706889629364014
1780854583601837600,44.840837646484374,2.850450038909912,-8.627620697021484,0.45613181591033936
1780854583650354000,44.88935400390625,5.842674732208252,-8.703293800354004,-1.179063320159912
1780854583698870300,44.93787036132812,1.8999011516571045,-14.873187065124512,-1.0959128141403198
1780854583795902700,45.03490283203125,-1.0369895696640015,-9.387042999267578,0.3574278950691223
1780854583892935400,45.13193530273438,-1.1994023323059082,-15.258431434631348,1.397408366203308
1780854583941451500,45.18045141601562,-1.4365909099578857,-10.281360626220703,3.063411235809326
1780854583989968000,45.2289677734375,1.719542145729065,-6.943373203277588,-0.9266205430030823
1780854584038484500,45.277484375,3.19860577583313,-5.4780683517456055,-2.289931297302246
1780854584087000600,45.32600048828125,2.5561327934265137,-5.4158549308776855,-3.279064416885376
1780854584135517000,45.37451684570313,3.7552361488342285,-5.218746185302734,0.5359922647476196
1780854584184033300,45.423033203125,0.605384111404419,-13.059428215026855,2.043470621109009
1780854584232549600,45.471549560546876,4.139583110809326,-14.683855056762695,0.9299107193946838
1780854584281066000,45.52006591796875,5.513960838317871,-14.05693531036377,6.034698486328125
1780854584329582000,45.56858203125,-2.719143867492676,-10.119845390319824,-5.613562107086182
1780854584378098400,45.61709838867188,1.8439689874649048,-11.161022186279297,-1.5586248636245728
1780854584426614800,45.66561474609375,-0.01136590726673603,-13.200304985046387,-3.4917263984680176
1780854584475131100,45.714131103515626,-0.7211369276046753,-9.139984130859375,-3.57906436920166
1780854584523647500,45.7626474609375,2.933002471923828,-7.502994537353516,-1.4605190753936768
1780854584620680200,45.85968017578125,0.32632118463516235,-8.120641708374023,2.145763635635376
1780854584669196300,45.9081962890625,0.9266205430030823,-9.77707290649414,2.5046870708465576
1780854584766229000,46.00522900390625,5.4403815269470215,-7.899604797363281,-0.5653043389320374
1780854584814745300,46.053745361328126,2.74755859375,-13.899308204650879,-1.2969099283218384
1780854584863261400,46.10226147460938,2.259422779083252,-13.006486892700195,0.4298107624053955
1780854584911777800,46.15077783203125,-0.6014958024024963,-9.601799011230469,1.83619225025177
1780854584960294100,46.19929418945313,0.5760720372200012,-8.649456024169922,-2.1607189178466797
1780854585008810500,46.247810546875,1.145264744758606,-15.64128303527832,-1.2649059295654297
1780854585057326800,46.296326904296876,-2.793321371078491,-12.576675415039062,2.8827531337738037
1780854585105843200,46.34484326171875,-0.8398807644844055,-8.472087860107422,-0.08673982322216034
1780854585154359300,46.393359375,2.711965322494507,-6.097809314727783,-1.9411773681640625
1780854585202875600,46.44187573242188,2.933600664138794,-5.278566837310791,-2.3946173191070557
1780854585251392000,46.49039208984375,3.7058839797973633,-5.175675392150879,-1.1476575136184692
1780854585299908400,46.53890844726563,1.399801254272461,-9.224929809570312,2.522932291030884
1780854585348424400,46.58742456054687,2.600399971008301,-15.83001708984375,1.6360924243927002
1780854585396940800,46.63594091796875,4.269692897796631,-16.03849220275879,5.106881618499756
1780854585493973500,46.73297338867187,3.43908429145813,-7.048357963562012,-2.5181467533111572
1780854585542489600,46.781489501953125,0.2760719060897827,-15.262320518493652,-2.2295124530792236
1780854585591006000,46.830005859375,-1.80508553981781,-10.032506942749023,-2.729313373565674
1780854585639522300,46.878522216796874,1.4620146751403809,-7.876275062561035,-2.355135679244995
1780854585688038700,46.92703857421875,3.420240879058838,-6.514160633087158,-0.875174880027771
1780854585736554800,46.9755546875,1.866999864578247,-6.5150580406188965,0.7680960893630981
1780854585785071000,47.024071044921875,0.1698904037475586,-9.30030345916748,2.3967108726501465
1780854585833587500,47.07258740234375,1.4470595121383667,-8.540881156921387,2.2387847900390625
1780854585882103800,47.121103759765624,2.1535403728485107,-9.875777244567871,-2.20528507232666
1780854585930620200,47.1696201171875,6.67507791519165,-10.875977516174316,-2.394318103790283
1780854585979136300,47.21813623046875,2.9796624183654785,-13.942977905273438,1.4937195777893066
1780854586027652600,47.266652587890626,-0.2880360186100006,-11.32941722869873,2.439781904220581
1780854586076169000,47.3151689453125,-1.7796618938446045,-7.836493968963623,-2.305783748626709
1780854586124685300,47.363685302734375,1.3408780097961426,-13.61336612701416,-4.012165546417236
1780854586173201400,47.41220141601563,-1.0307083129882812,-15.90987777709961,4.9995036125183105
1780854586221717800,47.4607177734375,-1.7772690057754517,-9.084650039672852,2.9153552055358887
1780854586270234000,47.509234130859376,1.6815561056137085,-7.083353042602539,-0.31016963720321655
1780854586318750200,47.55775024414063,3.4438700675964355,-5.577669620513916,-2.6775684356689453
1780854586367266600,47.6062666015625,2.707777976989746,-5.196313381195068,-3.5437703132629395
1780854586415783000,47.65478295898438,3.384049415588379,-5.033900737762451,1.0998010635375977
1780854586464299300,47.70329931640625,2.202294111251831,-13.587942123413086,1.3645070791244507
1780854586512815600,47.751815673828126,4.542175769805908,-14.908182144165039,3.037987470626831
1780854586561332000,47.80033203125,3.6400814056396484,-13.772488594055176,3.1866414546966553
1780854586609848000,47.84884814453125,-2.7637102603912354,-10.955239295959473,-5.25553560256958
1780854586658364400,47.89736450195313,0.9020941257476807,-10.924132347106934,-1.230808138847351
1780854586706880800,47.945880859375,-0.42771705985069275,-12.332009315490723,-3.313162088394165
1780854586755396900,47.99439697265625,-0.46749773621559143,-9.013164520263672,-4.271188259124756
1780854586803913200,48.04291333007812,3.2374889850616455,-7.421638488769531,-1.4159528017044067
1780854586852429300,48.09142919921875,3.6945180892944336,-6.1950178146362305,0.4052843451499939
1780854586900946000,48.13994580078125,-0.12113664299249649,-8.554341316223145,2.4008984565734863
1780854586997978400,48.236978271484375,2.1278176307678223,-8.789734840393066,1.800299882888794
1780854587046494500,48.28549438476563,3.0442686080932617,-9.347860336303711,-2.5546371936798096
1780854587095011000,48.334010986328124,5.155635356903076,-12.38375473022461,-1.8370895385742188
1780854587143527200,48.382527099609376,1.6214364767074585,-13.08245849609375,1.866999864578247
1780854587192043500,48.43104345703125,-0.8120641708374023,-10.362417221069336,1.368694543838501
1780854587240559600,48.4795595703125,0.1666002720594406,-7.262814998626709,-2.3009979724884033
1780854587289076000,48.52807592773438,0.8763712644577026,-15.560525894165039,-0.851844847202301
1780854587337592300,48.57659228515625,-2.124826431274414,-13.3501558303833,3.483351469039917
1780854587386108400,48.6251083984375,-0.7968099117279053,-9.01705265045166,0.4612165689468384
1780854587434624800,48.67362475585937,3.616452217102051,-6.565008163452148,-1.5930216312408447
1780854587483141000,48.72214111328125,2.6886353492736816,-5.663212776184082,-3.1528429985046387
1780854587531657500,48.77065747070313,1.9722840785980225,-5.514857769012451,-2.4161527156829834
1780854587580173600,48.81917358398437,2.465205430984497,-7.077969551086426,2.675773859024048
1780854587628690000,48.86768994140625,1.7922241687774658,-14.811572074890137,0.31734809279441833
1780854587677206300,48.91620629882812,5.605485916137695,-14.644672393798828,2.868396043777466
1780854587725722600,48.96472265625,1.66929292678833,-12.74028491973877,0.7498508095741272
1780854587774238700,49.01323876953125,-1.2164511680603027,-8.620741844177246,-3.2859437465667725
1780854587822755000,49.06175512695312,1.3719847202301025,-12.607184410095215,-1.8696918487548828
1780854587871271400,49.110271484375,-0.9002995491027832,-11.767901420593262,-3.1193435192108154
1780854587919787500,49.15878759765625,0.33409786224365234,-7.849056243896484,-2.943770170211792
1780854587968303900,49.207303955078125,3.4953157901763916,-7.320541858673096,-0.6732804775238037
1780854588016820200,49.2558203125,1.97407865524292,-6.939784049987793,0.37417763471603394
1780854588065336300,49.30433642578125,-0.48095735907554626,-8.802297592163086,2.2055842876434326
1780854588113852700,49.352852783203126,1.856830358505249,-8.618049621582031,1.4811571836471558
1780854588162369000,49.401369140625,1.846660852432251,-9.276374816894531,-0.539880633354187
1780854588210885000,49.44988500976562,6.451947212219238,-9.967601776123047,-2.2531416416168213
1780854588259401500,49.4984013671875,1.5586248636245728,-14.290834426879883,-0.42412781715393066
1780854588307917800,49.54691772460937,1.4422738552093506,-11.716754913330078,2.935096025466919
1780854588356434000,49.595433837890624,-0.9786644577980042,-8.778668403625488,-0.4731806814670563
1780854588453466600,49.69246655273437,-0.9675976634025574,-15.840485572814941,0.8536394834518433
1780854588550499000,49.7894990234375,1.0977073907852173,-7.316354274749756,0.015254244208335876
1780854588647531500,49.88653149414063,2.0961127281188965,-5.839085578918457,-3.2814571857452393
1780854588696047900,49.9350478515625,3.4498519897460938,-5.770590782165527,-0.6849454641342163
1780854588744564000,49.98356396484375,0.7139584422111511,-13.134801864624023,1.965404748916626
1780854588793080600,50.03208056640625,5.178666591644287,-14.914463996887207,2.02492618560791
1780854588841596700,50.0805966796875,4.363012790679932,-14.177474021911621,2.7675983905792236
1780854588890113000,50.12911303710938,-2.438286304473877,-9.80100154876709,-4.70608377456665
1780854588938629000,50.17762915039062,1.6348960399627686,-8.817551612854004,-0.6885347366333008
1780854588987145500,50.2261455078125,0.18125630915164948,-14.21994686126709,-2.767000198364258
1780854589035661800,50.27466186523438,-1.5490535497665405,-8.791230201721191,-2.864208698272705
1780854589084178000,50.32317797851562,1.550549030303955,-7.338188648223877,-1.4084752798080444
1780854589132694000,50.371694091796876,3.2120652198791504,-6.710371971130371,-0.19710876047611237
1780854589181210400,50.42021044921875,0.8135597109794617,-8.136195182800293,1.3657035827636719
1780854589229726700,50.468726806640625,0.30149564146995544,-8.716156005859375,1.6007983684539795
1780854589278242800,50.51724291992188,2.1424734592437744,-8.715557098388672,0.7265207767486572
1780854589326759200,50.56575927734375,5.277669429779053,-10.02293586730957,-3.2859437465667725
1780854589375275500,50.614275634765626,2.7197420597076416,-14.70927906036377,-0.8835497498512268
1780854589423791900,50.6627919921875,0.8111668825149536,-13.24008560180664,3.173480987548828
1780854589472308000,50.71130786132812,-0.29850462079048157,-9.077771186828613,0.6861419081687927
1780854589520824300,50.75982421875,1.1509476900100708,-7.952845096588135,-3.4998021125793457
1780854589569340700,50.80834057617187,0.7782655358314514,-15.196816444396973,-0.1621137410402298
1780854589617856800,50.856856689453124,-2.604288339614868,-12.23121166229248,4.392324924468994
1780854589666373000,50.905373046875,-0.6556333899497986,-7.975277900695801,0.2799602448940277
1780854589714889500,50.95388940429687,2.919243574142456,-6.0777692794799805,-1.6917256116867065
1780854589763405600,51.002405517578126,3.283550977706909,-5.373681545257568,-2.3273191452026367
1780854589811922000,51.050921875,3.91705060005188,-5.465207099914551,-1.0872387886047363
1780854589860438000,51.09943798828125,1.8681962490081787,-10.674980163574219,2.0425732135772705
1780854589908954400,51.14795434570313,2.5944180488586426,-14.901901245117188,1.4997016191482544
1780854589957470500,51.19647045898437,5.568995475769043,-13.678271293640137,5.615057468414307
1780854590054503200,51.29350317382813,-0.16360925137996674,-8.679664611816406,-3.1034910678863525
1780854590103019500,51.34201953125,0.6373881101608276,-13.706686019897461,-2.45204496383667
1780854590151535600,51.39053564453125,-1.189831018447876,-9.758828163146973,-3.4082767963409424
1780854590248568000,51.487568115234374,3.0020952224731445,-7.035496711730957,-0.21954147517681122
1780854590297084400,51.53608447265625,1.1093723773956299,-7.368398189544678,0.99481600522995
1780854590345600500,51.5846005859375,0.6131607890129089,-9.11276626586914,2.6973092555999756
1780854590394116900,51.633116943359376,2.7415764331817627,-8.351848602294922,1.944766640663147
1780854590442633200,51.68163330078125,1.7458631992340088,-9.830613136291504,-1.0878369808197021
1780854590491149300,51.7301494140625,6.251847267150879,-10.682158470153809,-2.091326951980591
1780854590539665700,51.77866577148438,1.2499507665634155,-14.085948944091797,0.20907287299633026
1780854590588182000,51.82718212890625,1.2969099283218384,-10.712666511535645,2.538186550140381
1780854590636698000,51.875697998046874,-0.9005986452102661,-8.028817176818848,-0.41934216022491455
1780854590685214500,51.92421435546875,0.9179465770721436,-10.838888168334961,-3.1040892601013184
1780854590733730600,51.97273046875,-0.628415048122406,-15.474982261657715,0.8811569213867188
1780854590782246700,52.02124658203125,-2.0210378170013428,-10.48205852508545,2.8767709732055664
1780854590830763000,52.06976293945313,1.5131611824035645,-7.487142086029053,-0.251844584941864
1780854590879279400,52.118279296875,3.2694931030273438,-5.806483268737793,-2.0440688133239746
1780854590927795500,52.16679541015625,2.462812662124634,-6.009274959564209,-1.7491533756256104
1780854590976311800,52.21531176757812,3.5150563716888428,-5.766702651977539,0.9858429431915283
1780854591024828200,52.263828125,1.3094722032546997,-13.676775932312012,0.5494518876075745
1780854591073344300,52.31234423828125,4.5816569328308105,-13.574482917785645,2.922234535217285
1780854591121860600,52.36086059570312,2.960519790649414,-13.704293251037598,1.9175482988357544
1780854591170376700,52.409376708984375,-0.6945167779922485,-10.179665565490723,-4.625924587249756
1780854591218893000,52.45789306640625,0.6442674994468689,-10.83559799194336,-1.5592230558395386
1780854591267409400,52.506409423828124,-0.23838496208190918,-11.860623359680176,-3.195913791656494
1780854591315925500,52.554925537109376,-0.008973085321485996,-8.091031074523926,-3.090928554534912
1780854591364441900,52.60344189453125,4.202693939208984,-7.186244487762451,-0.617946445941925
1780854591412958000,52.6519580078125,1.9310078620910645,-7.014260292053223,0.8694919347763062
1780854591461474300,52.70047436523438,-1.480259895324707,-9.595218658447266,0.5135595798492432
1780854591509990700,52.74899072265625,1.8951154947280884,-9.395118713378906,0.7034898400306702
1780854591558506800,52.7975068359375,2.6458635330200195,-8.437990188598633,0.8632107973098755
1780854591607022800,52.84602294921875,6.357729911804199,-8.93958568572998,-1.225723385810852
1780854591655539200,52.894539306640624,2.030010938644409,-14.709578514099121,-1.48055899143219
1780854591704055300,52.94305517578125,1.267298698425293,-11.076973915100098,2.3336002826690674
1780854591752571600,52.99157153320313,-0.8934201598167419,-8.942875862121582,-0.8404789566993713
1780854591849604000,53.08860400390625,-1.8409779071807861,-15.59791374206543,1.97407865524292
1780854591946636500,53.185636474609375,1.8170497417449951,-7.156035423278809,-0.7552346587181091
1780854591995153000,53.23415283203125,3.461517095565796,-5.274379253387451,-2.1960129737854004
1780854592043669000,53.2826689453125,2.470888376235962,-5.31984281539917,-2.2893331050872803
1780854592092185000,53.33118505859375,3.013461112976074,-5.527420520782471,0.9302098155021667
1780854592140701700,53.37970166015625,1.2029916048049927,-13.205090522766113,0.7384848594665527
1780854592189217800,53.4282177734375,5.335994720458984,-14.150256156921387,3.0780673027038574
1780854592237734000,53.47673388671875,3.38105845451355,-13.720444679260254,2.730808734893799
1780854592286250200,53.52525024414062,-1.9334007501602173,-10.360024452209473,-5.445466041564941
1780854592334766600,53.5737666015625,1.6588243246078491,-11.305488586425781,-1.358525037765503
1780854592383282700,53.62228271484375,-0.1740778535604477,-11.992228507995605,-2.580360174179077
1780854592431798800,53.670798828125,0.11874382197856903,-8.734400749206543,-3.168994426727295
1780854592480315100,53.719315185546876,2.80049991607666,-7.9019975662231445,-0.9433703422546387
1780854592528831500,53.76783154296875,2.401496648788452,-6.470790863037109,0.36999019980430603
1780854592577347600,53.81634765625,-0.21296121180057526,-8.277670860290527,1.5810575485229492
1780854592625863700,53.86486376953125,0.8240283131599426,-9.076873779296875,2.0105693340301514
1780854592674380000,53.91338012695312,1.7964116334915161,-8.756834030151367,0.37956148386001587
1780854592722896400,53.961896484375,5.660820007324219,-9.208179473876953,-3.1426734924316406
1780854592771412500,54.01041259765625,3.2297122478485107,-14.531611442565918,-1.0151549577713013
1780854592819928800,54.0589287109375,1.394417405128479,-13.05224895477295,2.9521448612213135
1780854592868445000,54.10744482421875,-1.5427724123001099,-10.249356269836426,1.1309077739715576
1780854592916961300,54.15596118164063,0.8488538265228271,-8.72482967376709,-3.5524442195892334
1780854592965477400,54.20447729492187,0.5943173170089722,-14.358431816101074,-0.5246263742446899
1780854593013993700,54.25299365234375,-2.590529680252075,-11.619546890258789,3.681656837463379
1780854593062510000,54.30151000976562,-0.6924230456352234,-8.455337524414062,0.09810572862625122
1780854593111026000,54.35002587890625,3.3532419204711914,-6.0987067222595215,-2.2031915187835693
1780854593159542300,54.398542236328126,2.3324038982391357,-5.855835437774658,-2.724527597427368
1780854593256575000,54.495574951171875,1.2284153699874878,-9.801599502563477,3.186342477798462
1780854593305091000,54.54409106445313,3.2629127502441406,-14.484652519226074,0.8982058167457581
1780854593353607200,54.59260717773437,6.530013084411621,-12.910175323486328,4.423730850219727
1780854593450639600,54.6896396484375,-0.47228336334228516,-10.013065338134766,-1.892722725868225
1780854593499156000,54.73815600585937,2.9246275424957275,-11.044671058654785,-1.2936197519302368
1780854593547672000,54.786672119140626,-1.5272190570831299,-12.485748291015625,-5.332106113433838
1780854593596188400,54.8351884765625,-0.49202415347099304,-8.717052459716797,-1.9938194751739502
1780854593644704800,54.883704833984375,3.030808925628662,-7.034300327301025,-0.5234299302101135
1780854593693220900,54.93222094726563,2.998805046081543,-6.916752815246582,0.7187440991401672
1780854593741737000,54.98073706054687,-0.7881359457969666,-8.763413429260254,0.9906286001205444
1780854593790253300,55.02925341796875,1.1476575136184692,-8.050053596496582,1.3848460912704468
1780854593838769400,55.077769287109376,2.6240291595458984,-9.481260299682617,-0.3810569941997528
1780854593887285800,55.12628564453125,6.93619441986084,-10.442277908325195,-1.6399807929992676
1780854593935801900,55.1748017578125,1.7377874851226807,-14.172090530395508,1.3489537239074707
1780854593984318200,55.22331811523438,1.312164068222046,-11.014760971069336,2.468794822692871
1780854594032834300,55.27183422851562,-0.7746763229370117,-9.608977317810059,-1.521835207939148
1780854594081350400,55.320350341796875,0.7680960893630981,-13.183555603027344,-3.336193084716797
1780854594129866800,55.36886669921875,-1.4174482822418213,-14.76939868927002,3.156731367111206
1780854594178383000,55.417383056640624,-1.8137595653533936,-9.398408889770508,2.998805046081543
1780854594226899200,55.465899169921876,1.939681887626648,-6.557231426239014,-1.257129192352295
1780854594275415300,55.51441528320313,3.4378879070281982,-5.122435092926025,-2.837887763977051
1780854594323931600,55.562931640625,2.68953275680542,-5.431109428405762,-2.692523717880249
1780854594372447700,55.61144775390625,3.4743785858154297,-6.105885028839111,1.3773685693740845
1780854594420964000,55.65996411132812,1.20687997341156,-15.734603881835938,1.1413763761520386
1780854594469480200,55.708480224609374,4.646861553192139,-12.562318801879883,2.2755744457244873
1780854594517996500,55.75699658203125,4.974678039550781,-12.271889686584473,3.188735246658325
1780854594566512600,55.8055126953125,-2.7355945110321045,-11.755040168762207,-5.864808082580566
1780854594615029000,55.854029052734376,0.7112665176391602,-9.93679428100586,-0.5653043389320374
1780854594663545300,55.90254541015625,0.32691940665245056,-12.722638130187988,-3.625126361846924
1780854594712061400,55.9510615234375,-1.1045867204666138,-9.334999084472656,-3.360121250152588
1780854594760577500,55.99957763671875,2.56510591506958,-7.377072334289551,-0.6882356405258179
1780854594809093600,56.04809375,3.290729284286499,-6.26859712600708,0.36999019980430603
1780854594857610000,56.09660986328125,0.401096910238266,-8.42423152923584,1.8768702745437622
1780854594906126300,56.145126220703126,0.6445665955543518,-9.890433311462402,1.5194423198699951
1780854594954642400,56.19364233398438,1.953440546989441,-8.541479110717773,0.6326025128364563
1780854595051675000,56.2906748046875,3.5431721210479736,-13.744373321533203,-1.1988041400909424
1780854595100191200,56.33919116210937,1.4739787578582764,-13.519448280334473,3.0131618976593018
1780854595148707300,56.387707275390625,-2.0057835578918457,-10.805388450622559,0.3930211067199707
1780854595197223400,56.43622338867188,-0.506381094455719,-9.607781410217285,-4.741976261138916
1780854595245739500,56.48473950195312,-0.15254244208335876,-15.390036582946777,-0.2353939265012741
1780854595294256000,56.533256103515626,-1.4111671447753906,-11.709576606750488,5.162215709686279
1780854595342772000,56.58177197265625,0.3364906907081604,-7.737790107727051,-0.31405797600746155
1780854595391288300,56.63028833007812,3.180659532546997,-5.589633464813232,-2.460718870162964
1780854595439804700,56.6788046875,2.3937199115753174,-5.981159210205078,-2.500499725341797
1780854595488320800,56.72732080078125,4.062115669250488,-5.404788017272949,-0.3762713670730591
1780854595536836900,56.7758369140625,1.3495519161224365,-10.572088241577148,3.271885871887207
1780854595585353200,56.82435327148438,3.0658040046691895,-14.001900672912598,-0.28085756301879883
1780854595633869300,56.87286938476562,6.28205680847168,-12.944272994995117,5.79481840133667
1780854595682385700,56.9213857421875,-1.9316060543060303,-12.841680526733398,-2.847458839416504
1780854595730901800,56.96990185546875,-0.7546364665031433,-10.176076889038086,-2.563610315322876
1780854595779417900,57.01841796875,2.6321048736572266,-13.20688533782959,-4.944468975067139
1780854595827934200,57.066934326171875,-1.1676974296569824,-10.050453186035156,-4.132404804229736
1780854595876450300,57.1154501953125,1.573580026626587,-7.881359577178955,-0.7408776879310608
1780854595924966700,57.16396655273437,3.208775281906128,-6.131906986236572,0.4794618487358093
1780854595973482800,57.212482666015624,0.02961117960512638,-7.816753387451172,1.6707884073257446
1780854596021999000,57.2609990234375,0.9996016621589661,-9.2826566696167,2.132603168487549
1780854596070515200,57.30951513671875,1.8586249351501465,-8.715258598327637,1.6567305326461792
1780854596167547600,57.40654760742188,3.5309088230133057,-12.858430862426758,-2.1517457962036133
1780854596216064000,57.45506396484375,2.335394859313965,-12.531211853027344,2.6219353675842285
1780854596264579800,57.503579833984375,0.09092725813388824,-10.525428771972656,2.5348963737487793
1780854596313096200,57.55209619140625,0.06071787327528,-9.64636516571045,-1.8478572368621826
1780854596361612500,57.600612548828124,0.1420738399028778,-16.074085235595703,-0.9394819736480713
1780854596410128600,57.649128662109376,-1.532303810119629,-12.507284164428711,3.5748770236968994
1780854596458644700,57.69764477539063,-0.1621137410402298,-7.979465484619141,-0.0032901312224566936
1780854596507161000,57.7461611328125,2.6225335597991943,-5.574678421020508,-1.7772690057754517
1780854596604193300,57.843193359375,2.8465616703033447,-5.416752338409424,-1.4228321313858032
1780854596652709600,57.891709716796875,2.352742910385132,-9.143573760986328,2.659024238586426
1780854596701225700,57.94022583007813,2.191227436065674,-15.825231552124023,1.3319048881530762
1780854596749741800,57.98874194335937,5.018347263336182,-11.857333183288574,3.8443686962127686
1780854596798258200,58.037258056640624,2.342573404312134,-12.637094497680664,0.13310076296329498
1780854596846774500,58.0857744140625,-1.7473586797714233,-10.331609725952148,-4.4584269523620605
1780854596895290600,58.13429052734375,1.511366605758667,-11.429616928100586,-1.4787644147872925
1780854596943806700,58.182806640625,-0.6667001843452454,-11.514262199401855,-3.7935211658477783
1780854596992323000,58.23132299804688,1.1599208116531372,-8.34437084197998,-2.6297121047973633
1780854597040839200,58.27983911132812,3.82791805267334,-7.354639530181885,0.018544375896453857
1780854597089355300,58.328355224609375,0.7474579811096191,-7.079464912414551,1.1078768968582153
1780854597186387700,58.4253876953125,1.8646070957183838,-8.74636459350586,1.6348960399627686
1780854597234904000,58.473904052734376,1.7150555849075317,-8.383553504943848,-0.014955141581594944
1780854597283420200,58.52242016601563,6.375077724456787,-9.086444854736328,-2.1684954166412354
1780854597331936500,58.5709365234375,2.7738797664642334,-14.147863388061523,0.7450651526451111
1780854597380452600,58.61945263671875,1.4937195777893066,-12.166007995605469,2.916252613067627
1780854597428968700,58.66796875,-1.2705888748168945,-10.5361967086792,-0.8422735929489136
1780854597477484800,58.71648486328125,0.4618147611618042,-10.581660270690918,-3.4271202087402344
1780854597526001200,58.76500122070313,-0.5120640397071838,-14.820545196533203,1.9677975177764893
1780854597574517200,58.81351733398437,-1.3677972555160522,-10.196714401245117,4.208376884460449
1780854597671549700,58.9105498046875,2.9389843940734863,-5.5136613845825195,-2.503490686416626
1780854597720066000,58.95906616210937,2.233400821685791,-6.1812591552734375,-2.6967110633850098
1780854597768582100,59.00758203125,3.9774694442749023,-5.824728488922119,0.3278166949748993
1780854597817098200,59.05609814453125,1.407876968383789,-12.345170021057129,3.05234432220459
1780854597865614600,59.10461450195312,3.9993040561676025,-14.068900108337402,1.8705891370773315
1780854597914130700,59.153130615234375,5.1188459396362305,-13.022638320922852,5.062614440917969
1780854598011163000,59.25016284179687,0.7163512706756592,-10.79551887512207,-2.602792739868164
1780854598059679200,59.29867919921875,1.1491531133651733,-12.397811889648438,-4.453042984008789
1780854598108195600,59.34719555664063,-0.6406782865524292,-9.840782165527344,-3.188735246658325
1780854598205227500,59.4442275390625,3.3077781200408936,-6.1704912185668945,0.649053156375885
1780854598253744000,59.492744140625,-0.17138592898845673,-8.469993591308594,2.1837496757507324
1780854598302260200,59.54126025390625,1.394417405128479,-9.527621269226074,2.6494529247283936
1780854598350776300,59.5897763671875,3.0014967918395996,-8.093124389648438,1.3606188297271729
1780854598399292400,59.63829248046875,4.629214286804199,-8.871988296508789,-2.737389087677002
1780854598447808500,59.68680859375,3.2141590118408203,-13.804792404174805,-0.9577272534370422
1780854598496324900,59.735324951171876,1.3079767227172852,-12.91466236114502,3.091526746749878
1780854598544841000,59.78384106445313,-1.418046474456787,-10.203594207763672,0.9795617461204529
1780854598593357000,59.83235717773437,0.7217351198196411,-8.50708293914795,-3.817150354385376
1780854598641873400,59.880873291015625,0.2641077935695648,-15.851552963256836,0.24825534224510193
1780854598690389800,59.9293896484375,-2.3407788276672363,-12.204293251037598,4.477868556976318
1780854598738905900,59.97790576171875,-0.6340979933738708,-8.058428764343262,-1.2098709344863892
1780854598787422000,60.026421875,2.87198543548584,-5.449055194854736,-1.7955143451690674
1780854598835938000,60.07493798828125,3.1752755641937256,-5.813961029052734,-2.2618155479431152
1780854598884454400,60.123454345703124,3.0804600715637207,-5.91804838180542,-1.8999011516571045
1780854598932970500,60.171970458984376,1.3199408054351807,-9.701998710632324,3.155235767364502
1780854598981487000,60.22048706054687,2.9078776836395264,-13.919946670532227,0.836590588092804
1780854599030003000,60.2690029296875,6.434898376464844,-13.243675231933594,3.735196113586426
1780854599078519000,60.31751904296875,0.2799602448940277,-13.133605003356934,-2.467897415161133
1780854599127035100,60.36603515625,-1.6271194219589233,-9.039485931396484,-1.6683956384658813
1780854599175551500,60.414551513671874,1.8346967697143555,-13.118948936462402,-2.7891337871551514
1780854599224067600,60.463067626953126,-1.297807216644287,-10.426126480102539,-5.445167064666748
1780854599272583700,60.51158374023437,1.205085277557373,-7.672884941101074,-2.0395822525024414
1780854599321100000,60.56010009765625,4.297509670257568,-6.86680269241333,-0.03888336941599846
1780854599369616400,60.60861645507813,-0.5569294691085815,-8.060821533203125,1.236491084098816
1780854599418132200,60.65713232421875,-0.2602194547653198,-9.553643226623535,0.6717849373817444
1780854599466648600,60.705648681640625,2.1918256282806396,-8.133204460144043,1.2131611108779907
1780854599515164700,60.75416455078125,5.7771711349487305,-8.267800331115723,-1.0896315574645996
1780854599563681000,60.80268090820312,3.7719857692718506,-13.358231544494629,-1.5400804281234741
1780854599612197000,60.851197021484374,2.1981067657470703,-13.074382781982422,2.078465461730957
1780854599709229600,60.9482294921875,-0.18574285507202148,-9.588040351867676,-3.5461630821228027
1780854599757745700,60.99674560546875,-0.6227321028709412,-14.513067245483398,-1.654337763786316
1780854599854777900,61.09377783203125,-0.34217363595962524,-9.039186477661133,0.8709874153137207
1780854599903294000,61.1422939453125,2.735893487930298,-6.236293792724609,-2.166102647781372
1780854599951810300,61.19081030273438,2.6790640354156494,-5.899803161621094,-2.5689942836761475
1780854600000326400,61.23932641601562,2.7828526496887207,-5.757729530334473,-2.416750907897949
1780854600048842500,61.287842529296874,1.6501502990722656,-8.086843490600586,2.2402801513671875
1780854600097358800,61.33635888671875,2.108973979949951,-15.689140319824219,0.7848458290100098
1780854600145875200,61.38487524414062,6.165406703948975,-13.10937786102295,3.320340633392334
1780854600194391300,61.433391357421876,2.3273191452026367,-12.477672576904297,-0.34277185797691345
1780854600242907400,61.48190747070313,-2.119143486022949,-9.017950057983398,-3.9275193214416504
1780854600291423500,61.53042358398437,1.4015958309173584,-10.756336212158203,-1.2179467678070068
1780854600339939600,61.578939697265625,-0.0975075215101242,-12.396615982055664,-2.751147747039795
1780854600388456000,61.6274560546875,-0.9266205430030823,-7.9591264724731445,-2.0554347038269043
1780854600436972000,61.67597192382812,2.698206663131714,-7.684250831604004,-1.184447169303894
1780854600485488000,61.724488037109374,3.865006685256958,-7.285247802734375,0.5886343717575073
1780854600534004500,61.77300439453125,-1.00259268283844,-9.332606315612793,2.35872483253479
1780854600582520600,61.8215205078125,1.2251251935958862,-8.482556343078613,0.99481600522995
1780854600631036700,61.87003662109375,2.212463617324829,-8.649456024169922,-0.2063809484243393
1780854600679553000,61.91855297851563,6.840481758117676,-10.127921104431152,-3.3643085956573486
1780854600728069000,61.96706909179687,1.1237293481826782,-14.304293632507324,0.33828529715538025
1780854600776585200,62.015585205078125,1.724626898765564,-11.827722549438477,3.8922250270843506
1780854600825101300,62.06410131835938,-1.3310075998306274,-9.249754905700684,-0.4731806814670563
1780854600873617400,62.11261743164062,0.6092724800109863,-11.104192733764648,-3.573979616165161
1780854600922133800,62.1611337890625,-1.1982059478759766,-14.532508850097656,1.3869398832321167
1780854600970649900,62.20964990234375,-1.1318050622940063,-10.219745635986328,3.082852840423584
1780854601019166000,62.258166015625,0.5886343717575073,-7.8658061027526855,-0.1707877218723297
1780854601067682300,62.306682373046876,3.2644083499908447,-6.057131290435791,-2.3539392948150635
1780854601116198400,62.35519848632813,2.565704107284546,-5.982655048370361,-2.161616086959839
1780854601164714500,62.40371459960937,3.617947816848755,-5.560022354125977,0.12293126434087753
1780854601213230600,62.452230712890625,1.3112667798995972,-11.597113609313965,1.9103697538375854
1780854601310263000,62.54926293945312,5.640780448913574,-14.719747543334961,6.005984783172607
1780854601358779100,62.597779052734374,-2.221137523651123,-10.948958396911621,-4.650749683380127
1780854601407295200,62.646295166015626,0.6562315821647644,-9.71815013885498,-3.0245277881622314
1780854601455811600,62.6948115234375,0.20189441740512848,-13.332209587097168,-3.155235767364502
1780854601504327700,62.74332763671875,-0.5473581552505493,-8.584549903869629,-3.3960134983062744
1780854601552843800,62.79184375,2.7412774562835693,-7.650452136993408,-1.6247265338897705
1780854601601360100,62.84036010742187,2.9389843940734863,-6.858726978302002,0.3071786165237427
1780854601649876200,62.888876220703125,0.5518447160720825,-7.888537883758545,2.1003000736236572
1780854601698392300,62.93739233398438,0.3798605799674988,-9.660423278808594,2.7415764331817627
1780854601746908400,62.98590844726562,2.837289333343506,-8.466404914855957,1.8233308792114258
1780854601795424500,63.034424560546874,2.5689942836761475,-8.777471542358398,-1.8846468925476074
1780854601843940900,63.08294091796875,5.869594097137451,-11.223235130310059,-2.731706142425537
1780854601892457000,63.13145703125,1.872682809829712,-13.71625804901123,1.9109679460525513
1780854601940973000,63.17997314453125,0.15074782073497772,-10.728519439697266,2.706880569458008
1780854601989489400,63.22848950195313,-0.5024927258491516,-8.888737678527832,-2.6264219284057617
1780854602038005500,63.27700561523437,0.5222335457801819,-14.333905220031738,-2.618645191192627
1780854602086521600,63.325521484375,-1.5466607809066772,-13.9420804977417,4.285545349121094
1780854602135037700,63.37403759765625,-0.6083751320838928,-9.305088996887207,2.1735801696777344
1780854602183553800,63.4225537109375,2.503490686416626,-6.80458927154541,-1.4347963333129883
1780854602232070100,63.471070068359374,3.25663161277771,-5.506782054901123,-3.3828530311584473
1780854602280586200,63.519586181640626,2.2468605041503906,-5.584847927093506,-2.6673989295959473
1780854602329102300,63.56810229492187,2.304288148880005,-6.525825500488281,2.186441659927368
1780854602426134800,63.665134765625,5.5483574867248535,-14.051252365112305,4.091726779937744
1780854602474651000,63.71365087890625,2.0090737342834473,-13.487443923950195,0.3080759048461914
1780854602523167200,63.762167236328125,-1.7578272819519043,-10.168001174926758,-5.062315464019775
1780854602571683300,63.81068334960938,2.0679969787597656,-12.034103393554688,-2.179861545562744
1780854602620199400,63.85919946289062,-1.597508192062378,-11.427223205566406,-3.9433717727661133
1780854602668715500,63.907715576171874,0.20159530639648438,-7.801498889923096,-2.870789051055908
1780854602717231600,63.956231689453126,3.806382656097412,-7.21735143661499,-0.8359923958778381
1780854602765747700,64.00474780273437,2.470290184020996,-7.1264238357543945,0.9523434042930603
1780854602862780200,64.1017802734375,1.6217355728149414,-9.685547828674316,2.109572172164917
1780854602911296300,64.15029614257813,2.5262224674224854,-8.081459045410156,0.1908276081085205
1780854602959812600,64.1988125,5.745765209197998,-8.008777618408203,-2.1816561222076416
1780854603008328700,64.24732861328125,3.1028928756713867,-13.967503547668457,-0.6023930907249451
1780854603056844800,64.2958447265625,1.721336841583252,-12.753146171569824,2.9425735473632812
1780854603105361000,64.34436083984374,-1.0926226377487183,-9.694820404052734,-0.09272187948226929
1780854603153877000,64.392876953125,0.7896314859390259,-9.937392234802246,-3.978665828704834
1780854603202393300,64.44139331054687,-0.6071787476539612,-17.191831588745117,2.0548365116119385
1780854603250909400,64.48990942382812,-2.486740827560425,-11.121241569519043,4.200301170349121
1780854603299425500,64.53842553710938,0.5054838061332703,-8.064709663391113,0.07328019291162491
1780854603347942000,64.58694189453125,3.9711883068084717,-5.579164981842041,-2.7795627117156982
1780854603396458000,64.6354580078125,2.3401806354522705,-5.419145107269287,-3.436990737915039
1780854603444974000,64.68397412109375,3.4672000408172607,-5.666802406311035,-1.1611171960830688
1780854603493490200,64.732490234375,0.43609192967414856,-9.978668212890625,3.0867412090301514
