time,seconds_elapsed,z,y,x
1780854539056979500,0.2959794921875,0.0013744457392022014,-0.000839939049910754,-0.016340631991624832
1780854539106272500,0.3452724609375,-0.0011453714687377214,-0.0011453714687377214,-0.011911863461136818
1780854539155759400,0.39475927734375,-0.003970621153712273,-0.004428769461810589,-0.005192350596189499
1780854539205246500,0.44424658203125,-0.00847574882209301,-0.004123337101191282,-0.008399390615522861
1780854539254733300,0.4937333984375,-0.005421424750238657,-0.007483093533664942,-0.006948587018996477
1780854539303666000,0.542666015625,-0.004352411720901728,-0.006872228812426329,-0.00755945174023509
1780854539352238000,0.591238037109375,-0.004963276442140341,-0.005345067009329796,-0.007788525894284248
1780854539400754700,0.639754638671875,-0.0023671009112149477,-0.0032070400193333626,-0.008017600513994694
1780854539449271600,0.688271484375,0.0015271619195118546,0.0027488914784044027,-0.005192350596189499
1780854539497788400,0.736788330078125,0.012980876490473747,-0.004581485874950886,-0.028405211865901947
1780854539546305000,0.785304931640625,0.009315688163042068,-0.0023671009112149477,-0.018784092739224434
1780854539594821600,0.833821533203125,0.014813470654189587,-0.005039634648710489,-0.022449281066656113
1780854539643338500,0.88233837890625,0.016875140368938446,-0.0066431546583771706,-0.018325943499803543
1780854539691855000,0.930855224609375,0.016035201027989388,0.0010690133785828948,-0.00946840364485979
1780854539740371700,0.979371826171875,0.028405211865901947,-0.004581485874950886,-0.03306305781006813
1780854539788888300,1.027888427734375,0.029016077518463135,0.0011453714687377214,-0.029397867619991302
1780854539837405000,1.076405029296875,0.029474224895238876,-0.0012980876490473747,-0.04245510324835777
1780854539885921800,1.124921875,0.029474224895238876,-0.0029779658652842045,-0.03245219215750694
1780854539934438400,1.1734384765625,0.03214675933122635,0.000305432389723137,-0.04039343446493149
1780854539982955000,1.221955078125,0.041844237595796585,0.0006872228696011007,-0.051618073135614395
1780854540031471600,1.2704716796875,0.04253146052360535,0.00603228947147727,-0.047265663743019104
1780854540079988500,1.318988525390625,0.041844237595796585,0.007177661173045635,-0.05215258151292801
1780854540128505000,1.367505126953125,0.04589121788740158,0.012675444595515728,-0.05581776797771454
1780854540177021700,1.416021728515625,0.04222602769732475,0.02306014485657215,-0.07376192510128021
1780854540225538600,1.46453857421875,0.022907428443431854,0.03000873140990734,-0.09437860548496246
1780854540274055400,1.513055419921875,0.019700389355421066,0.04841103404760361,-0.01977674663066864
1780854540322572000,1.561572021484375,0.020540328696370125,0.04413498193025589,0.01954767294228077
1780854540371088600,1.610088623046875,0.0029779658652842045,0.0694858655333519,0.024434590712189674
1780854540419605200,1.658605224609375,0.010461059398949146,0.06910407543182373,-0.005574141163378954
1780854540468121900,1.707121826171875,0.039248060435056686,0.04245510324835777,-0.04321868345141411
1780854540516638700,1.755638671875,0.03252854943275452,0.05688678100705147,-0.024510949850082397
1780854540565155300,1.8041552734375,0.03451386094093323,0.02107483521103859,-0.034437503665685654
1780854540613672000,1.852671875,0.00603228947147727,0.04657844081521034,0.06223184987902641
1780854540710705400,1.949705322265625,0.0022143847309052944,0.18806999921798706,0.16737695038318634
1780854540759222000,1.998221923828125,0.12843431532382965,-0.40836310386657715,-0.13584105670452118
1780854540807738600,2.046738525390625,0.032910339534282684,-0.21204642951488495,-0.2660316228866577
1780854540856255500,2.09525537109375,-0.18173226714134216,0.15645773708820343,-0.2603047490119934
1780854540904772400,2.1437724609375,-0.10308343172073364,0.7349466681480408,0.8702532649040222
1780854540953289000,2.1922890625,0.1230892539024353,0.5425242781639099,0.6107884049415588
1780854541001805600,2.2408056640625,0.28870996832847595,0.18035782873630524,-0.0784197673201561
1780854541050322200,2.289322265625,0.3894262909889221,-0.16073378920555115,-0.1588248461484909
1780854541098838800,2.3378388671875,0.06101011857390404,-0.1369100660085678,-0.19677481055259705
1780854541147355600,2.386355712890625,-0.2407570779323578,0.4292852282524109,-0.17516547441482544
1780854541195872300,2.434872314453125,-0.2015090137720108,0.40004006028175354,-0.3843103051185608
1780854541244388900,2.483388916015625,-0.19356778264045715,0.3938550651073456,-0.12736530601978302
1780854541292905500,2.531905517578125,-0.18959715962409973,0.5807796716690063,0.307646781206131
1780854541341422300,2.58042236328125,-0.24457497894763947,0.7457895278930664,-0.0295505840331316
1780854541389939000,2.62893896484375,-0.06505709886550903,0.3811032772064209,-0.1380554437637329
1780854541438455600,2.67745556640625,-0.0023671009112149477,0.10682497918605804,0.06268999725580215
1780854541486972200,2.72597216796875,-0.0988837331533432,0.13935352861881256,0.38705918192863464
1780854541535489000,2.774489013671875,-0.11407899856567383,0.25037819147109985,0.9290489554405212
1780854541584005600,2.823005615234375,0.20601414144039154,-0.449138343334198,1.183550477027893
1780854541632522500,2.8715224609375,0.25503605604171753,-0.6087267398834229,0.6079631447792053
1780854541681039000,2.9200390625,-0.35208719968795776,-0.060933761298656464,0.5539780259132385
1780854541729555700,2.9685556640625,-0.43172869086265564,-0.42019861936569214,-0.10079269111156464
1780854541778072600,3.017072509765625,-0.3447568118572235,-0.5464185476303101,-0.12606722116470337
1780854541826589200,3.065589111328125,-0.23159411549568176,-0.38499751687049866,0.32330018281936646
1780854541875105800,3.114105712890625,0.027030766010284424,-0.18577924370765686,0.06895136088132858
1780854541923622400,3.162622314453125,0.29535311460494995,-0.028176138177514076,-0.3154352903366089
1780854541972139300,3.21113916015625,0.18501566350460052,0.01908952370285988,0.028099779039621353
1780854542020655900,3.25965576171875,0.283975750207901,-0.5522981286048889,0.43081238865852356
1780854542069172500,3.30817236328125,0.29764387011528015,-1.1951569318771362,-0.013057234697043896
1780854542117689000,3.356689208984375,-0.4053087830543518,-1.162628412246704,-0.22204934060573578
1780854542166206000,3.4052060546875,-0.803363561630249,-0.3560578227043152,-0.6445387005805969
1780854542214722600,3.45372265625,0.05612320080399513,-0.0565049909055233,-0.5250383019447327
1780854542263239200,3.5022392578125,-0.007864884100854397,-0.23098324239253998,0.7450259327888489
1780854542360272400,3.5992724609375,-0.05787943676114082,0.5248855352401733,-0.43684467673301697
1780854542408789500,3.64778955078125,0.2583194375038147,0.6673697829246521,-0.20387612283229828
1780854542457306000,3.69630615234375,0.3346775472164154,0.2827540338039398,0.24411684274673462
1780854542505822700,3.74482275390625,0.25954118371009827,0.2271653413772583,0.12461641430854797
1780854542554339300,3.79333935546875,0.17424917221069336,0.11003202199935913,-0.4598284661769867
1780854542602856200,3.841856201171875,-0.06276635825634003,0.12820523977279663,-0.8158099055290222
1780854542651372800,3.890372802734375,-0.7115811109542847,1.014493703842163,-0.7349466681480408
1780854542699889400,3.938889404296875,-0.32307112216949463,0.7632755637168884,0.17508912086486816
1780854542748406000,3.987406005859375,0.261526495218277,1.1580469608306885,-0.04176788032054901
1780854542796923000,4.0359228515625,0.18035782873630524,0.9312633275985718,-0.3451386094093323
1780854542845439500,4.084439453125,0.512668251991272,0.012370011769235134,0.8123738169670105
1780854542893956000,4.1329560546875,-0.1680641770362854,0.49021899700164795,1.5861103534698486
1780854542942472700,4.18147265625,-0.1977674663066864,0.25442516803741455,0.9859357476234436
1780854542990989300,4.2299892578125,0.6778308153152466,-1.1494947671890259,0.6218603253364563
1780854543039506200,4.278506103515625,0.13874267041683197,-0.8779653906822205,0.5116755962371826
1780854543088022800,4.327022705078125,-0.610559344291687,-0.351705402135849,-0.7039452791213989
1780854543136539400,4.375539306640625,-0.18066325783729553,-0.6626355648040771,-0.6765327453613281
1780854543185056000,4.424055908203125,0.331165075302124,-0.551152765750885,0.33017241954803467
1780854543233572900,4.47257275390625,0.6727148294448853,-0.24976733326911926,0.0025961752980947495
1780854543282089500,4.52108935546875,0.42859798669815063,-0.07360920310020447,-0.1776089370250702
1780854543330606000,4.569606201171875,0.10789398849010468,-0.1729510873556137,0.14813470840454102
1780854543379122700,4.618122802734375,0.12820523977279663,-1.0178533792495728,-0.09880737960338593
1780854543427639300,4.666639404296875,-0.5031998753547668,-1.046105980873108,-0.20250166952610016
1780854543476156200,4.71515625,-0.9326378107070923,-0.2124282270669937,-0.2464839369058609
1780854543524672800,4.7636728515625,0.022678354755043983,-0.26503896713256836,-0.4877755343914032
1780854543573189400,4.812189453125,-0.3675878942012787,-0.001679878099821508,0.24106250703334808
1780854543621706000,4.8607060546875,-0.020998476073145866,0.49189886450767517,-0.33169957995414734
1780854543670222800,4.909222900390625,0.2707658112049103,0.8948405385017395,-0.6466003656387329
1780854543718739500,4.957739501953125,0.39858928322792053,0.6873756051063538,-0.2692386507987976
1780854543767256000,5.006256103515625,0.41638070344924927,0.11614066362380981,0.34490951895713806
1780854543815772700,5.054772705078125,0.16989676654338837,0.01740964688360691,-0.5195404887199402
1780854543864289500,5.10328955078125,-0.16012293100357056,0.15546508133411407,-1.1154390573501587
1780854543961323000,5.200322998046875,-0.10209077596664429,0.947909414768219,0.41935867071151733
1780854544009839600,5.248839599609375,0.7124210596084595,0.5081631541252136,0.31291547417640686
1780854544058356200,5.297356201171875,0.5371028780937195,0.23014330863952637,0.613231897354126
1780854544106873000,5.345873046875,-0.23388485610485077,0.686535656452179,1.5595377683639526
1780854544155389700,5.3943896484375,0.16279546916484833,0.11614066362380981,1.2779290676116943
1780854544203906300,5.44290625,0.31780239939689636,-0.7651081085205078,0.44990190863609314
1780854544252423000,5.4914228515625,-0.26129740476608276,-0.48181959986686707,0.40981391072273254
1780854544300939800,5.539939697265625,-0.48327040672302246,-0.34193155169487,-0.4710530936717987
1780854544349456400,5.588456298828125,-0.20998476445674896,-0.28351762890815735,-0.7531962990760803
1780854544397973000,5.636972900390625,0.2699258625507355,-0.3427715003490448,0.019471315667033195
1780854544446489600,5.685489501953125,0.6484329700469971,-0.1550832986831665,0.08063415437936783
1780854544495006500,5.73400634765625,0.38904449343681335,-0.06566796451807022,0.1438586562871933
1780854544543523000,5.782523193359375,-0.10743584483861923,-0.11377356201410294,0.245338574051857
1780854544592039700,5.831039794921875,0.1773035079240799,-1.2303580045700073,-0.4785361886024475
1780854544640556300,5.879556396484375,-0.7569378018379211,-0.88285231590271,-0.2041051983833313
1780854544689073000,5.928072998046875,-0.8319214582443237,0.09926552325487137,-0.05604684352874756
1780854544737589800,5.97658984375,0.1418733447790146,-0.5031998753547668,-0.24037529528141022
1780854544786106400,6.0251064453125,-0.23831361532211304,0.04528035223484039,0.058795735239982605
1780854544834623000,6.073623046875,-0.07643445581197739,0.8681151866912842,-0.3952295184135437
1780854544883139600,6.1221396484375,0.36949682235717773,0.970969557762146,-0.4595993757247925
1780854544931656400,6.170656494140625,0.4315759539604187,0.6217076182365417,0.13736821711063385
1780854544980173000,6.219173095703125,0.32047492265701294,0.10048725455999374,0.1141553521156311
1780854545028689700,6.267689697265625,0.000305432389723137,0.12713623046875,-1.0527490377426147
1780854545077206300,6.316206298828125,-0.48998990654945374,0.45738500356674194,-1.1437679529190063
1780854545125723100,6.36472314453125,-0.5606974959373474,1.3119847774505615,-0.3681987524032593
1780854545174239700,6.41323974609375,0.5875755548477173,0.7374665141105652,0.4476875364780426
1780854545222756400,6.46175634765625,0.46746426820755005,0.49976375699043274,-0.1519526094198227
1780854545271273000,6.51027294921875,0.4271472096443176,0.08017600327730179,0.9795216917991638
1780854545319789600,6.55878955078125,-0.21311545372009277,0.6143772602081299,1.556483507156372
1780854545368306200,6.60730615234375,0.34521496295928955,-0.6498837471008301,0.737695574760437
1780854545416822800,6.65582275390625,0.5211440324783325,-1.1043671369552612,0.8594867587089539
1780854545465339400,6.70433935546875,-0.2360992431640625,-0.6424770355224609,0.06268999725580215
1780854545513856000,6.75285595703125,-0.46860963106155396,-0.5742892622947693,-1.5250239372253418
1780854545610889500,6.849889404296875,0.5287034511566162,-0.32994332909584045,0.737695574760437
1780854545659406000,6.898406005859375,0.7405208349227905,-0.2574795186519623,0.17569997906684875
1780854545707922700,6.946922607421875,0.24594943225383759,-0.10682497918605804,0.11217004805803299
1780854545756439300,6.995439208984375,-0.13484840095043182,-0.708450436592102,-0.01977674663066864
1780854545804956200,7.0439560546875,-0.5924624800682068,-1.0487021207809448,-0.8306233882904053
1780854545853472800,7.09247265625,-1.0393863916397095,-0.15500694513320923,0.010995565913617611
1780854545901989400,7.1409892578125,-0.09796743839979172,0.10453423857688904,0.07391463965177536
1780854545950506000,7.189506103515625,-0.08666644245386124,-0.2574795186519623,-0.016798781231045723
1780854545999022800,7.23802294921875,-0.23854269087314606,0.6046034097671509,-0.2199876755475998
1780854546047539500,7.28653955078125,0.09582941234111786,1.0445023775100708,-0.526030957698822
1780854546096056000,7.33505615234375,0.4301251769065857,0.6598103046417236,-0.21754421293735504
1780854546144572700,7.38357275390625,0.5199222564697266,-0.02672533318400383,0.3969857394695282
1780854546193089500,7.432089599609375,0.3257436454296112,-0.19295690953731537,-0.6685914993286133
1780854546241606100,7.480606201171875,-0.1245400533080101,0.21922409534454346,-1.3141992092132568
1780854546290122800,7.529122802734375,-0.49228066205978394,0.8513928055763245,-1.029765248298645
1780854546338639400,7.577639404296875,0.1781434416770935,0.8628464937210083,0.40714138746261597
1780854546387156000,7.626156005859375,0.7351757884025574,0.06765327602624893,0.42088583111763
1780854546435672800,7.6746728515625,0.25098907947540283,0.19188790023326874,1.0430516004562378
1780854546484189400,7.723189453125,-0.35132360458374023,0.8225294351577759,1.254868984222412
1780854546532706000,7.7717060546875,0.48960810899734497,-0.6134609580039978,0.8806379437446594
1780854546581222700,7.82022265625,0.191735178232193,-0.743346095085144,1.0751219987869263
1780854546629739300,7.8687392578125,-0.5689441561698914,-0.08460476994514465,-0.10613775253295898
1780854546678255900,7.917255859375,-0.4042397737503052,-0.3494910001754761,-1.1576651334762573
1780854546726772500,7.9657724609375,0.009926552884280682,-0.37575820088386536,-0.2386954128742218
1780854546775289000,8.0142890625,0.6694314479827881,-0.4059196412563324,0.3827831447124481
1780854546872322600,8.111322509765625,0.0910952091217041,-0.503505289554596,-0.014126247726380825
1780854546920839200,8.159839111328125,-0.2360992431640625,-1.0007492303848267,-0.2657261788845062
1780854546969355800,8.208355712890626,-0.9229403138160706,-0.535193920135498,-0.39423686265945435
1780854547017872400,8.256872314453124,-0.544967770576477,0.366060733795166,-0.004963276442140341
1780854547066389200,8.30538916015625,-0.05322159454226494,-0.38881543278694153,-0.09346231073141098
1780854547114905900,8.35390576171875,-0.28122687339782715,0.16752967238426208,0.04634936526417732
1780854547163422500,8.40242236328125,0.1847866028547287,0.9466876983642578,-0.924849271774292
1780854547260456000,8.4994560546875,0.24633121490478516,0.8253546953201294,0.19883649051189423
1780854547308972500,8.54797265625,0.35361436009407043,0.0862082913517952,-0.29451319575309753
1780854547357489000,8.596489013671874,0.15935935080051422,0.052687086164951324,-1.201647400856018
1780854547406005500,8.645005615234375,-0.7347939610481262,1.0004438161849976,-1.1718677282333374
1780854547454522000,8.693522216796875,-0.367053359746933,1.4439315795898438,-0.07299833744764328
1780854547503039000,8.7420390625,0.617355227470398,0.1614210158586502,0.7883210182189941
1780854547551555600,8.7905556640625,0.4462367296218872,0.30375251173973083,0.5864301919937134
1780854547600072200,8.839072265625,0.03741546720266342,0.4154644012451172,1.400025725364685
1780854547648588800,8.8875888671875,0.37545275688171387,-0.5236638188362122,1.2870920896530151
1780854547697105700,8.936105712890624,0.7807615399360657,-1.172325849533081,1.222264051437378
1780854547745622300,8.984622314453125,-0.2749654948711395,-0.7209731340408325,0.20479241013526917
1780854547794139000,9.033138916015625,-0.5641336441040039,-0.6287325620651245,-1.185917615890503
1780854547842655500,9.081655517578126,-0.2208276242017746,-0.6340012550354004,-0.6204859018325806
1780854547891172000,9.130172119140624,0.4430296719074249,-0.42936158180236816,0.12003492563962936
1780854547939688700,9.178688720703125,0.7670170664787292,-0.19677481055259705,0.5885682106018066
1780854547988205300,9.227205322265625,0.05367974191904068,0.052076224237680435,0.2513708472251892
1780854548036722000,9.275721923828126,-0.21410810947418213,-0.6354520916938782,-0.2419024556875229
1780854548085238500,9.324238525390625,-0.03504836559295654,-1.2828923463821411,-1.2628865242004395
1780854548133755400,9.37275537109375,-0.9931897521018982,-0.2755763828754425,0.620333194732666
1780854548182272000,9.42127197265625,-0.13767364621162415,-0.0009162971982732415,-0.02367101050913334
1780854548230788600,9.46978857421875,-0.09537126123905182,-0.1769980639219284,-0.2932150959968567
1780854548279305200,9.51830517578125,-0.2047160565853119,0.6214022040367126,-0.027488915249705315
1780854548327822000,9.566822021484375,0.34406960010528564,0.8459713459014893,-0.6268236041069031
1780854548376338400,9.61533837890625,0.2479347437620163,1.1418589353561401,0.04734202101826668
1780854548424855000,9.66385498046875,0.2868010103702545,0.32391104102134705,0.4145480990409851
1780854548473371600,9.71237158203125,0.25549420714378357,0.13790272176265717,-0.8338304162025452
1780854548521888300,9.76088818359375,-0.027107125148177147,0.32612544298171997,-1.1950806379318237
1780854548570405000,9.809405029296874,-0.8175661563873291,1.2368484735488892,-0.7210494875907898
1780854548618921700,9.857921630859375,0.30802857875823975,0.8484148383140564,0.24755294620990753
1780854548667438300,9.906438232421875,0.6646972298622131,0.06307178735733032,-0.14782927930355072
1780854548715955000,9.954954833984376,0.28932082653045654,0.16966769099235535,0.769002377986908
1780854548764471600,10.003471435546874,-0.5614610910415649,0.8662826418876648,1.2648718357086182
1780854548861504800,10.1005048828125,0.8152754306793213,-1.0563379526138306,0.9952514171600342
1780854548910021400,10.149021484375,-0.34177884459495544,-0.27840161323547363,0.3139081299304962
1780854548958538200,10.197538330078125,-0.6622537970542908,-0.30856308341026306,-1.0882556438446045
1780854549007054800,10.246054931640625,-0.289168119430542,-0.5355756878852844,-0.48510298132896423
1780854549055571500,10.294571533203126,0.44814568758010864,-0.39446592330932617,0.23854269087314606
1780854549104088000,10.343088134765624,0.7748819589614868,-0.22876885533332825,0.1724165827035904
1780854549152604700,10.391604736328125,0.1314886510372162,-0.13675735890865326,0.3070359230041504
1780854549201121300,10.440121337890625,-0.2263254076242447,-0.7944296598434448,-0.14599667489528656
1780854549249638000,10.488637939453126,-0.30657777190208435,-1.1583523750305176,-0.8326850533485413
1780854549298154500,10.537154541015624,-1.174921989440918,0.270689457654953,0.2929860055446625
1780854549346671000,10.585671142578125,0.2917642891407013,-0.26763513684272766,-0.4655553102493286
1780854549395188000,10.63418798828125,-0.1631772518157959,-0.12996147572994232,0.2968802750110626
1780854549443704600,10.68270458984375,-0.08170316368341446,0.6262891292572021,-0.3771326541900635
1780854549492221000,10.731220947265625,0.16523891687393188,1.1526254415512085,-0.554665207862854
1780854549540737500,10.779737548828125,0.24442227184772491,0.7930551767349243,0.7032580971717834
1780854549589254100,10.828254150390626,0.407599538564682,-0.00946840364485979,0.2632063627243042
1780854549637771000,10.87677099609375,0.1876882016658783,0.06971494108438492,-1.3564252853393555
1780854549686287600,10.92528759765625,-0.12530364096164703,0.1960112303495407,-1.2678498029708862
1780854549734804200,10.97380419921875,-0.6046797633171082,1.039615511894226,-0.6066650748252869
1780854549783320800,11.02232080078125,0.33483025431632996,0.8087086081504822,0.0539088174700737
1780854549831837400,11.07083740234375,0.5339722037315369,0.15317434072494507,-0.00045814859913662076
1780854549880354000,11.11935400390625,0.3131445646286011,0.015577051788568497,1.4002548456192017
1780854549928870700,11.16787060546875,-0.49976375699043274,1.0164026021957397,1.7512729167938232
1780854549977387300,11.21638720703125,0.31635159254074097,-0.527481734752655,0.9148463606834412
1780854550025904000,11.264904052734375,0.9504292607307434,-1.58412504196167,0.5760455131530762
1780854550074420700,11.313420654296875,-0.42684176564216614,-0.27519458532333374,-0.185092031955719
1780854550122937300,11.361937255859376,-0.667904257774353,-0.39675667881965637,-1.0570251941680908
1780854550171453700,11.41045361328125,-0.06566796451807022,-0.7276926636695862,-0.14866921305656433
1780854550219970300,11.45897021484375,0.6256018877029419,-0.4387536346912384,0.2461785078048706
1780854550268487200,11.507487060546875,0.7682388424873352,-0.3474293351173401,0.47380200028419495
1780854550317003800,11.556003662109376,0.08972076326608658,-0.4474584460258484,-0.37751442193984985
1780854550365520400,11.604520263671875,-0.03894263133406639,-1.0080032348632812,-0.4876991808414459
1780854550414036700,11.65303662109375,-0.3102429509162903,-1.1733185052871704,-0.5184714794158936
1780854550511070200,11.7500703125,-0.19494222104549408,-0.12713623046875,-0.6033816933631897
1780854550559586800,11.7985869140625,-0.2450331300497055,0.10720676928758621,-0.3771326541900635
1780854550608103400,11.847103515625,-0.004581485874950886,0.9895246028900146,-0.33689191937446594
1780854550656619800,11.895619873046876,0.40263625979423523,1.3672680854797363,-0.13584105670452118
1780854550705136600,11.94413671875,0.39370235800743103,0.8669698238372803,0.5283980369567871
1780854550753653200,11.9926533203125,0.3430769443511963,0.18860450387001038,-0.19982914626598358
1780854550802169900,12.041169921875,0.30146175622940063,0.16019928455352783,-1.2512801885604858
1780854550850686500,12.0896865234375,-0.23510658740997314,0.38041603565216064,-0.9876156449317932
1780854550899203000,12.138203125,-0.6323214173316956,1.327256441116333,-0.8191696405410767
1780854550947719700,12.1867197265625,0.3984365463256836,0.2153298407793045,0.37140578031539917
1780854550996236300,12.235236328125,0.30489787459373474,0.425467312335968,0.2890917658805847
1780854551044753000,12.2837529296875,0.12675444781780243,0.35132360458374023,1.2090541124343872
1780854551093269500,12.33226953125,-0.15630502998828888,0.18684826791286469,1.402698278427124
1780854551141786000,12.3807861328125,0.5981893539428711,-1.0194569826126099,1.1856884956359863
1780854551190302700,12.429302734375,0.19769111275672913,-0.864220917224884,0.7645736336708069
1780854551238819300,12.4778193359375,-0.5243510603904724,-0.45249807834625244,-1.0780236721038818
1780854551287336000,12.5263359375,-0.45333802700042725,-0.5487092733383179,-0.7827468514442444
1780854551335852500,12.5748525390625,0.021456625312566757,-0.38011062145233154,0.30337071418762207
1780854551384369200,12.623369140625,0.7025708556175232,-0.28008151054382324,0.18547381460666656
1780854551432885800,12.6718857421875,0.3365101218223572,-0.08720094710588455,0.3004691004753113
1780854551481402400,12.72040234375,-0.0334448479115963,-0.324063777923584,0.03214675933122635
1780854551529919000,12.7689189453125,0.02779434807598591,-1.2301290035247803,-0.7170025110244751
1780854551578435600,12.817435546875,-0.6610320210456848,-0.790917158126831,-0.21204642951488495
1780854551626952200,12.8659521484375,-0.7658717036247253,0.07498364895582199,0.360410213470459
1780854551675468800,12.91446875,0.13019055128097534,-0.3177260458469391,-0.5646681189537048
1780854551723985400,12.9629853515625,-0.29680392146110535,0.0974329337477684,0.129197895526886
1780854551772502000,13.011501953125,0.04734202101826668,0.7786998748779297,-0.25068363547325134
1780854551821018600,13.0600185546875,0.40026915073394775,0.7774781584739685,-0.28351762890815735
1780854551869535200,13.10853515625,0.31375542283058167,0.48739373683929443,0.3430769443511963
1780854551918051800,13.1570517578125,0.25182899832725525,0.21548254787921906,-0.18226677179336548
1780854551966568400,13.205568359375,0.029856016859412193,0.22098033130168915,-1.2705987691879272
1780854552015085000,13.2540849609375,-0.4362338185310364,0.5522981286048889,-1.2146282196044922
1780854552112118300,13.3511181640625,0.6075050234794617,0.47028952836990356,0.21784965693950653
1780854552160634600,13.399634521484375,0.2618319094181061,0.7518981695175171,0.0818558782339096
1780854552209151500,13.4481513671875,0.3696495592594147,0.13973531126976013,1.4778345823287964
1780854552257668000,13.496668212890626,-0.3304014801979065,0.8746820092201233,1.5330414772033691
1780854552306184700,13.545184814453124,0.6366738080978394,-0.9295834898948669,0.46479174494743347
1780854552354701000,13.593701171875,0.40698865056037903,-0.9741765856742859,0.9350048899650574
1780854552403218000,13.642218017578125,-0.5649735331535339,-0.24976733326911926,-0.42012226581573486
1780854552451734500,13.690734619140626,-0.5174788236618042,-0.41218101978302,-1.001436471939087
1780854552500251100,13.739251220703125,0.059024810791015625,-0.3949240744113922,0.16531528532505035
1780854552548767500,13.787767578125,0.7818305492401123,-0.258853942155838,0.1847866028547287
1780854552597284000,13.8362841796875,0.57008957862854,-0.3272708058357239,0.22479823231697083
1780854552645801000,13.884801025390624,-0.124845489859581,-0.32162031531333923,-0.041844237595796585
1780854552694317300,13.9333173828125,-0.1029307171702385,-1.1346813440322876,-0.7483093738555908
1780854552742834000,13.981833984375,-0.6021599769592285,-0.8094722032546997,-0.24701844155788422
1780854552791350500,14.0303505859375,-0.7632755637168884,0.16974404454231262,0.630107045173645
1780854552839867400,14.078867431640624,-0.13629920780658722,-0.26969680190086365,-0.584826648235321
1780854552888383700,14.1273837890625,-0.46906778216362,0.39568766951560974,-0.1582903414964676
1780854552936900400,14.175900390625,0.11033745110034943,1.078329086303711,-0.4999164640903473
1780854552985417000,14.2244169921875,0.41676250100135803,1.0687079429626465,-0.5262600183486938
1780854553033933600,14.27293359375,0.25236350297927856,0.9911280870437622,0.47983428835868835
1780854553082450200,14.3214501953125,0.22059854865074158,0.37697991728782654,-0.17539454996585846
1780854553130966800,14.369966796875,0.17157664895057678,0.31841325759887695,-1.0768018960952759
1780854553179483400,14.4184833984375,-0.40057456493377686,0.5979602336883545,-1.1948515176773071
1780854553228000000,14.467,-0.27053675055503845,1.2707514762878418,-0.2346484363079071
1780854553276516600,14.5155166015625,0.5965094566345215,0.35766133666038513,0.09705114364624023
1780854553325033200,14.564033203125,0.46341729164123535,0.19784383475780487,0.7370083332061768
1780854553373549800,14.6125498046875,-0.026190826669335365,0.47006043791770935,1.7122539281845093
1780854553422066200,14.661066162109375,-0.1300378441810608,0.1758527010679245,1.4752384424209595
1780854553470582800,14.709582763671875,0.9463059306144714,-1.4403427839279175,0.7843503952026367
1780854553519099600,14.758099609375,-0.10369429737329483,-0.7945823669433594,0.541378915309906
1780854553567616300,14.8066162109375,-0.7421243786811829,-0.4635699987411499,-1.1255183219909668
1780854553664649200,14.903649169921875,0.41638070344924927,-0.2984074354171753,0.2513708472251892
1780854553713166000,14.952166015625,0.8044325709342957,-0.24999640882015228,0.4476875364780426
1780854553761682400,15.000682373046875,-0.014584396965801716,0.03611737862229347,-0.19876012206077576
1780854553810199000,15.049198974609375,-0.13278673589229584,-0.5716167092323303,-0.15157082676887512
1780854553858715600,15.097715576171876,0.09414953738451004,-1.2144755125045776,-1.0928370952606201
1780854553907232300,15.146232177734374,-0.79358971118927,-0.2861901521682739,0.8354339599609375
1780854553955748900,15.194748779296875,-0.3044397234916687,-0.1617264449596405,-0.3023780584335327
1780854554004265500,15.243265380859375,-0.35537058115005493,-0.07506000995635986,-0.4113410711288452
1780854554052781800,15.29178173828125,-0.34643667936325073,0.7380773425102234,0.02542724646627903
1780854554101298400,15.34029833984375,0.264046311378479,0.919198751449585,-0.5052615404129028
1780854554149815300,15.388815185546875,0.28519749641418457,1.0517563819885254,-0.11690424382686615
1780854554198332000,15.437331787109375,0.20257803797721863,0.5867356061935425,0.4001164436340332
1780854554246848300,15.48584814453125,0.10048725455999374,0.3584249019622803,-0.9651663303375244
1780854554295364900,15.53436474609375,-0.07215840369462967,0.28237223625183105,-1.617569923400879
1780854554343881700,15.5828818359375,-0.6239983439445496,1.058781385421753,-0.952949047088623
1780854554392398000,15.631398193359376,0.2908479869365692,0.8978948593139648,0.5038870573043823
1780854554440914700,15.679914794921874,0.713184654712677,0.49189886450767517,0.13660463690757751
1780854554489431300,15.728431396484375,0.5032762289047241,-0.007177661173045635,1.0541235208511353
1780854554537948000,15.776947998046875,-0.4001927971839905,0.9329432249069214,1.915061116218567
1780854554586464500,15.825464599609376,0.3009272515773773,-0.3672060966491699,0.9174425601959229
1780854554634981000,15.873981201171874,0.8290961980819702,-1.1699587106704712,0.5865828990936279
1780854554683497700,15.922497802734375,-0.26618432998657227,-0.4607447683811188,0.31551164388656616
1780854554732014000,15.97101416015625,-0.5844448804855347,-0.4120282828807831,-1.043662428855896
1780854554780531000,16.019531005859374,-0.07070759683847427,-0.44463321566581726,-0.600785493850708
1780854554829047300,16.06804736328125,0.6635518670082092,-0.3378845751285553,0.1516471803188324
1780854554877564000,16.11656396484375,0.7361684441566467,-0.2415970265865326,0.13538290560245514
1780854554926080500,16.16508056640625,-0.03657552972435951,-0.03917170315980911,-0.13591741025447845
1780854554974597000,16.21359716796875,-0.12606722116470337,-0.7489965558052063,-0.04833467677235603
1780854555023113700,16.26211376953125,-0.072921983897686,-1.2715150117874146,-0.6714167594909668
1780854555071630300,16.31063037109375,-1.0435861349105835,-0.141262486577034,0.8952223062515259
1780854555120147000,16.35914697265625,-0.314289927482605,-0.38499751687049866,-0.6685914993286133
1780854555168663300,16.407663330078126,-0.4240165054798126,0.016416991129517555,-0.30604326725006104
1780854555265696800,16.50469677734375,0.3226129710674286,1.3338232040405273,-0.4211149215698242
1780854555314213000,16.553213134765624,0.2890917658805847,1.2721259593963623,0.33017241954803467
1780854555362729700,16.601729736328124,0.22006404399871826,0.6793580055236816,-0.1816559135913849
1780854555411246300,16.650246337890625,0.11804962158203125,0.5355756878852844,-1.4492002725601196
1780854555459763000,16.698762939453125,-0.04321868345141411,0.33421939611434937,-1.307708740234375
1780854555508279600,16.747279541015626,-0.49197521805763245,1.323056697845459,-0.49808385968208313
1780854555556796200,16.795796142578126,0.5474112033843994,0.4488328993320465,0.7635809779167175
1780854555605312800,16.844312744140623,0.04955640435218811,1.0483202934265137,-0.13500112295150757
1780854555653829400,16.892829345703124,0.3338375985622406,0.272751122713089,1.5849649906158447
1780854555702346000,16.941345947265624,0.043142326176166534,0.0011453714687377214,2.159559726715088
1780854555750862300,16.9898623046875,0.4139372408390045,-1.043433427810669,0.5213730931282043
1780854555799379000,17.03837890625,0.09728021919727325,-0.8369610905647278,0.45326167345046997
1780854555847895600,17.0868955078125,-0.5675697326660156,-0.3756054937839508,-0.7385355234146118
1780854555896412200,17.135412109375,-0.22609633207321167,-0.6207149624824524,-0.5089266896247864
1780854555944928800,17.1839287109375,0.40141451358795166,-0.5250383019447327,0.13652828335762024
1780854555993445400,17.2324453125,0.9455423355102539,-0.45967575907707214,-0.12774710357189178
1780854556041962000,17.2809619140625,0.1363755613565445,-0.14653119444847107,0.030695954337716103
1780854556090478600,17.329478515625,-0.24465134739875793,-0.4793761372566223,-0.14996729791164398
1780854556138995200,17.3779951171875,-0.004810560029000044,-1.440495491027832,-0.9232457280158997
1780854556187511800,17.42651171875,-1.1582759618759155,-0.11614066362380981,1.1294889450073242
1780854556236028200,17.475028076171874,-0.5117519497871399,-0.19639302790164948,-0.7247910499572754
1780854556284544800,17.523544677734375,-0.46143198013305664,0.06933315098285675,-0.5345830321311951
1780854556333061400,17.572061279296875,-0.1761581301689148,1.0823760032653809,-0.1089630052447319
1780854556381578000,17.620577880859376,0.40630143880844116,1.122082233428955,-0.3808741867542267
1780854556430094600,17.669094482421876,0.25877758860588074,1.015944480895996,0.591088056564331
1780854556478611200,17.717611083984377,0.15485422313213348,0.342542439699173,-0.03283398225903511
1780854556527127800,17.7661279296875,0.091400645673275,0.20631958544254303,-1.6593377590179443
1780854556575644400,17.81464453125,-0.28244858980178833,0.4663952589035034,-1.00594162940979
1780854556624161000,17.8631611328125,-0.6981421113014221,1.2199733257293701,-0.7400626540184021
1780854556672677400,17.911677490234375,0.7201332449913025,-0.07254019379615784,0.47761988639831543
1780854556721194000,17.960194091796875,0.5482511520385742,0.32421648502349854,0.4298197329044342
1780854556769710800,18.0087109375,0.4953349828720093,-0.21632249653339386,1.5248712301254272
1780854556866743800,18.105743896484373,0.8268054723739624,-1.1917208433151245,0.8508582711219788
1780854556915260400,18.154260498046874,0.39370235800743103,-1.126281976699829,0.39332056045532227
1780854556963777000,18.202777099609374,-0.595211386680603,-0.46776971220970154,-1.093906044960022
1780854557012293600,18.251293701171875,-0.4160752594470978,-0.6608793139457703,-0.6843976378440857
1780854557060810200,18.299810302734375,0.40110909938812256,-0.5761218667030334,0.37354379892349243
1780854557109326600,18.34832666015625,1.10635244846344,-0.44096800684928894,0.070631243288517
1780854557157843200,18.39684326171875,0.5472584962844849,-0.26564982533454895,-0.2880227565765381
1780854557206359800,18.44535986328125,-0.3262781500816345,-0.09720385819673538,0.07124210149049759
1780854557254876400,18.49387646484375,-0.04848739132285118,-1.167820692062378,-0.924849271774292
1780854557303393000,18.54239306640625,-1.0220531225204468,-0.38270679116249084,0.38698282837867737
1780854557351909600,18.59090966796875,-0.3565923273563385,-0.32940882444381714,0.07857248187065125
1780854557400426200,18.63942626953125,-0.2857320010662079,-0.41218101978302,-0.3814850449562073
1780854557448942800,18.68794287109375,-0.21487168967723846,0.6137663722038269,-0.505032479763031
1780854557497459200,18.736459228515624,0.18890993297100067,1.1342995166778564,-0.39736753702163696
1780854557545975800,18.784975830078125,0.2965748608112335,0.901789128780365,0.6482802629470825
1780854557594492700,18.83349267578125,0.31925320625305176,0.3559814393520355,0.2632063627243042
1780854557643009000,18.882009033203126,0.15493057668209076,0.29184064269065857,-1.1943169832229614
1780854557691525600,18.930525634765626,0.11766783148050308,0.270689457654953,-1.441640853881836
1780854557740042200,18.979042236328127,-0.5832995176315308,1.0706932544708252,-1.008537769317627
1780854557788558800,19.027558837890624,-0.027947064489126205,0.9657008647918701,0.2565632164478302
1780854557837075500,19.076075439453124,0.47372564673423767,0.3685041666030884,0.07116574794054031
1780854557885591800,19.124591796875,0.40141451358795166,0.15935935080051422,1.1261292695999146
1780854557934108400,19.1731083984375,-0.3987419903278351,0.6207913160324097,1.8708497285842896
1780854557982625000,19.221625,0.22548545897006989,-0.3482692837715149,0.94439697265625
1780854558031141600,19.2701416015625,1.015333652496338,-1.2747220993041992,0.6924152374267578
1780854558079658200,19.318658203125,-0.37003132700920105,-0.5681806206703186,0.09277509152889252
1780854558128174800,19.3671748046875,-0.6139954328536987,-0.40408703684806824,-1.1755329370498657
1780854558176691200,19.415691162109376,-0.1196531355381012,-0.3928624093532562,-0.37858346104621887
1780854558225207800,19.464207763671876,0.6975312232971191,-0.38270679116249084,0.21945317089557648
1780854558273724400,19.512724365234376,0.6830231547355652,-0.46372273564338684,0.4061487317085266
1780854558322241000,19.561240966796873,0.1798996776342392,-0.19150610268115997,-0.5382482409477234
1780854558419274200,19.658274169921874,-0.34032803773880005,-1.0568723678588867,-0.2863428592681885
1780854558467790800,19.706790771484375,-0.8044325709342957,0.15836669504642487,0.9132428169250488
1780854558516307500,19.755307373046875,-0.06681333482265472,-0.27053675055503845,-0.42218393087387085
1780854558564823800,19.80382373046875,-0.42279478907585144,0.13920080661773682,-0.03550651669502258
1780854558613340400,19.85234033203125,-0.057268574833869934,1.0651954412460327,-0.4842630624771118
1780854558661857000,19.90085693359375,0.3895026445388794,1.1122320890426636,-0.27977606654167175
1780854558710373600,19.94937353515625,0.27893611788749695,0.663475513458252,0.4364628791809082
1780854558758890200,19.99789013671875,0.13965895771980286,0.34468045830726624,-0.5700132250785828
1780854558807406600,20.046406494140626,0.15546508133411407,0.28962627053260803,-1.4937934875488281
1780854558855923200,20.094923095703123,-0.6571378111839294,0.8649081587791443,-1.4950151443481445
1780854558904440000,20.143440185546876,-0.22319471836090088,1.1178061962127686,0.35529422760009766
1780854558952956400,20.191956298828124,0.6897426843643188,-0.08193223923444748,0.4664716124534607
1780854559001473000,20.24047314453125,0.22472187876701355,0.38591381907463074,0.748920202255249
1780854559049989600,20.28898974609375,0.07567087560892105,0.2964221239089966,1.963243007659912
1780854559098506000,20.337506103515626,0.48418670892715454,-1.0662645101547241,1.292360782623291
1780854559147022800,20.38602294921875,0.8966731429100037,-1.5217405557632446,0.9686024785041809
1780854559195539200,20.434539306640627,-0.5066359639167786,-0.822300374507904,-0.6763036847114563
1780854559244055800,20.483055908203124,-0.5872701406478882,-0.7582359313964844,-1.418046236038208
1780854559292572400,20.531572509765624,-0.0807105079293251,-0.6131555438041687,0.3568977415561676
1780854559341089000,20.580089111328125,0.7299070358276367,-0.19272783398628235,0.712573766708374
1780854559389605600,20.628605712890625,0.5134318470954895,0.0475710928440094,0.1773035079240799
1780854559438122200,20.677122314453126,0.3912588953971863,-0.643927812576294,-0.6120865345001221
1780854559486638600,20.725638671875,-0.19020801782608032,-0.6837103962898254,-0.3830885887145996
1780854559535155200,20.7741552734375,-0.5626828074455261,-0.6775254011154175,-0.49365508556365967
1780854559583671800,20.822671875,-0.838182806968689,-0.002901607658714056,0.7611374855041504
1780854559632188400,20.8711884765625,-0.21616977453231812,-0.48731738328933716,-0.9483675956726074
1780854559680705000,20.919705078125,-0.2649625837802887,0.1534034162759781,-0.5316814184188843
1780854559729221400,20.968221435546877,0.5309178233146667,0.5339722037315369,-0.8184061050415039
1780854559777738000,21.016738037109373,0.6496546864509583,1.0607666969299316,-0.31406086683273315
1780854559826254600,21.065254638671874,0.07910698652267456,1.2670862674713135,0.787939190864563
1780854559874771200,21.113771240234374,0.07605266571044922,0.5378664135932922,-0.22220206260681152
1780854559923287800,21.162287841796875,0.17791436612606049,0.268627792596817,-1.077412724494934
1780854560020321000,21.259321044921876,-0.2885572612285614,1.292055368423462,-0.684473991394043
1780854560068837400,21.30783740234375,0.46402814984321594,0.19356778264045715,0.7576250433921814
1780854560117354000,21.35635400390625,0.46944957971572876,0.37636905908584595,-0.04062250629067421
1780854560165870300,21.404870361328125,0.2591593861579895,-0.4857138693332672,1.5173118114471436
1780854560214387200,21.45338720703125,-0.49487683176994324,-0.016416991129517555,1.8655046224594116
1780854560262903600,21.501903564453126,0.6946296095848083,-1.1839323043823242,1.2651009559631348
1780854560311420200,21.550420166015623,0.04657844081521034,-1.1627811193466187,-0.35216355323791504
1780854560359936800,21.598936767578124,-0.4314996004104614,-1.0923789739608765,-0.8652135729789734
1780854560408453400,21.647453369140624,-0.19639302790164948,-0.9025527238845825,-0.10819942504167557
1780854560456970000,21.695969970703125,0.3208567202091217,-0.6186532974243164,0.14752385020256042
1780854560505486300,21.744486328125,0.4012618064880371,-0.29306238889694214,-0.003970621153712273
1780854560554003000,21.7930029296875,-0.07231111824512482,0.011759147047996521,-0.31787875294685364
1780854560602519300,21.841519287109374,-0.05039634555578232,-0.9960150122642517,-0.11873684078454971
1780854560651036200,21.8900361328125,-0.03962985426187515,-1.1423934698104858,0.15592323243618011
1780854560699552500,21.938552490234375,-0.114460788667202,-0.8954514265060425,0.14026983082294464
1780854560748069000,21.987069091796876,-0.5994874238967896,-0.48739373683929443,-1.12765634059906
1780854560796585700,22.035585693359376,-0.05581776797771454,-0.28214317560195923,0.44929105043411255
1780854560845102000,22.08410205078125,0.8103885054588318,0.268627792596817,-0.39713847637176514
1780854560893619000,22.132618896484374,0.2667188346385956,1.2802199125289917,-0.27091851830482483
1780854560942135300,22.18113525390625,-0.022449281066656113,1.6960660219192505,0.4056142270565033
1780854560990652000,22.22965185546875,-0.0836121141910553,1.0770310163497925,-0.639804482460022
1780854561039168500,22.27816845703125,0.17142392694950104,0.39675667881965637,-1.056185245513916
1780854561087685000,22.32668505859375,-0.4385245442390442,0.8312342762947083,-1.1927134990692139
1780854561136201500,22.375201416015624,-0.1360701322555542,1.262810230255127,0.21067199110984802
1780854561184718000,22.423718017578125,0.5421425104141235,0.33399030566215515,0.07880155742168427
1780854561233234700,22.472234619140625,0.291687935590744,0.45799586176872253,0.6855430006980896
1780854561281751000,22.5207509765625,0.24197880923748016,0.2464839369058609,2.2316417694091797
1780854561330267600,22.569267578125,-0.19295690953731537,-0.20448698103427887,1.482263445854187
1780854561378784300,22.6177841796875,0.33895358443260193,-0.7426588535308838,0.5790998339653015
1780854561427300900,22.66630078125,-0.24671301245689392,-0.5161044001579285,-0.21632249653339386
1780854561475817200,22.714817138671876,-0.5631409883499146,-0.4061487317085266,-0.4627300798892975
1780854561524333800,22.763333740234376,-0.042684175074100494,-0.5613083839416504,-0.001832594396546483
1780854561621367000,22.860366943359374,0.9472221732139587,-0.30230170488357544,-0.07460185885429382
1780854561669883400,22.90888330078125,0.3554469347000122,-0.1582903414964676,-0.4363865256309509
1780854561718400000,22.95739990234375,-0.19738568365573883,-0.8875101804733276,-0.268169641494751
1780854561766916600,23.00591650390625,-0.4091266989707947,-0.8330668210983276,0.05306887626647949
1780854561815433200,23.05443310546875,-0.7135664224624634,-0.3657552897930145,0.5354229807853699
1780854561863949600,23.102949462890624,-0.6559160351753235,0.15225805342197418,-1.0832923650741577
1780854561912466200,23.151466064453125,-0.4724275469779968,0.35727953910827637,0.015806125476956367
1780854561960982800,23.199982666015625,0.26763513684272766,1.0416771173477173,-0.40118545293807983
1780854562009499400,23.24849951171875,0.3064250349998474,1.6171118021011353,-0.7809906005859375
1780854562058015700,23.297015625,0.09987638890743256,1.3195443153381348,0.5016726851463318
1780854562106532400,23.345532470703127,0.1660788655281067,0.26160284876823425,-0.041844237595796585
1780854562155049000,23.394049072265624,0.1750127524137497,0.026801692321896553,-1.1837031841278076
1780854562203565600,23.442565673828124,-0.7877101302146912,1.0055598020553589,-1.4184280633926392
1780854562252082000,23.49108203125,-0.3340666890144348,1.239139199256897,-0.3264308571815491
1780854562300598500,23.5395986328125,1.022663950920105,-0.20761767029762268,0.6617192625999451
1780854562349115100,23.588115234375,0.6144536137580872,0.09705114364624023,0.8370374441146851
1780854562397631500,23.636631591796874,-0.331165075302124,0.7883210182189941,1.7690644264221191
1780854562446148000,23.685148193359375,0.22937972843647003,-0.5010618567466736,1.2968659400939941
1780854562494664700,23.733664794921875,0.8861356973648071,-1.3061052560806274,0.919275164604187
1780854562543181300,23.782181396484376,-0.40401068329811096,-0.5723039507865906,0.3312414288520813
1780854562591697700,23.83069775390625,-0.8119156360626221,-0.4678460657596588,-1.0904699563980103
1780854562640214300,23.87921435546875,-0.3075704276561737,-0.406530499458313,-0.43279770016670227
1780854562688731000,23.92773095703125,0.4771617650985718,-0.19471314549446106,0.29993459582328796
1780854562737247500,23.97624755859375,0.8901063203811646,-0.061391908675432205,0.025579962879419327
1780854562785763800,24.024763916015626,0.4303542375564575,-0.3310123383998871,-0.19753839075565338
1780854562834280400,24.073280517578127,-0.35850125551223755,-0.6372846961021423,0.017486004158854485
1780854562882797000,24.121797119140624,-0.34353506565093994,-0.8254310488700867,-0.47754353284835815
1780854562931313700,24.170313720703124,-0.7473167181015015,-0.5907825827598572,0.4098902642726898
1780854562979830000,24.218830078125,-0.6821832656860352,0.1724165827035904,-0.5486329197883606
1780854563028346600,24.2673466796875,-0.4535670876502991,0.017256930470466614,-0.21426081657409668
1780854563076863000,24.315863037109374,0.030925029888749123,0.9537126421928406,-0.35132360458374023
1780854563125379600,24.364379638671874,0.3788125216960907,1.299233078956604,-0.742429792881012
1780854563173896200,24.412896240234375,0.2167806327342987,1.235092282295227,0.11522436887025833
1780854563270929200,24.50992919921875,0.0910952091217041,-0.13797907531261444,-0.9861648082733154
1780854563319445800,24.55844580078125,-0.3696495592594147,0.26626068353652954,-1.2148573398590088
1780854563367962400,24.60696240234375,-0.6601921319961548,1.2144755125045776,-0.9288198947906494
1780854563416478700,24.655478759765625,0.8375719785690308,-0.0654388889670372,0.7089085578918457
1780854563513512000,24.752511962890626,0.4725039005279541,0.0461202897131443,1.413846492767334
1780854563562028300,24.8010283203125,-0.30779948830604553,0.9084323048591614,2.157574415206909
1780854563610545000,24.849544921875,0.785877525806427,-1.4731004238128662,1.0121265649795532
1780854563659061200,24.898061279296876,0.1404225379228592,-0.9799798130989075,0.7834340929985046
1780854563707577900,24.946577880859376,-0.7015781998634338,-0.5340485572814941,-1.0093777179718018
1780854563756094500,24.995094482421877,-0.5646681189537048,-0.5798633694648743,-1.0627520084381104
1780854563804611000,25.043611083984374,0.1495855152606964,-0.4623482823371887,-0.019394956529140472
1780854563853127400,25.09212744140625,0.8915571570396423,-0.3358992636203766,0.04864010959863663
1780854563901644000,25.14064404296875,0.7325032353401184,-0.14836378395557404,0.45242172479629517
1780854563950160600,25.18916064453125,-0.08788817375898361,-0.17623448371887207,0.3762163519859314
1780854563998677000,25.237677001953124,0.04589121788740158,-1.4336233139038086,-1.1582759618759155
1780854564047193600,25.286193603515624,-0.6880627870559692,-0.9237039089202881,-0.1597411334514618
1780854564095710200,25.334710205078125,-0.7219657897949219,0.007254019379615784,0.007101302966475487
1780854564144226600,25.3832265625,-0.24152065813541412,-0.4411207437515259,-0.39217519760131836
1780854564192743200,25.4317431640625,-0.20143266022205353,0.16478078067302704,0.056810423731803894
1780854564241259800,25.480259765625,0.0766635313630104,0.837648332118988,-0.4433351159095764
1780854564289776400,25.5287763671875,0.27198755741119385,0.9567669630050659,-0.6559160351753235
1780854564338292700,25.577292724609375,0.0962875634431839,0.9036217331886292,0.4059196412563324
1780854564386809000,25.62580908203125,0.2931387424468994,0.064598947763443,-0.168904110789299
1780854564483842300,25.72284228515625,-0.5337430834770203,0.744796872138977,-1.128954529762268
1780854564532359000,25.77135888671875,-0.3228420317173004,1.122082233428955,-0.3597993552684784
1780854564580875300,25.819875244140626,0.9162207841873169,0.08231402933597565,0.29825472831726074
1780854564629392000,25.868391845703126,0.7887027859687805,-0.29596397280693054,1.0172425508499146
1780854564677908500,25.916908447265627,-0.24258968234062195,0.49915286898612976,1.8390084505081177
1780854564726424800,25.9654248046875,0.025732679292559624,0.038560837507247925,1.404149055480957
1780854564823458000,26.0624580078125,-0.19417864084243774,-0.8788816928863525,0.42821621894836426
1780854564871974400,26.110974365234377,-0.5018253922462463,-0.8013782501220703,-1.08573579788208
1780854564920491000,26.159490966796874,-0.22464552521705627,-0.8888846039772034,-0.5194641351699829
1780854564969007400,26.20800732421875,0.5985711216926575,-0.7191405892372131,0.19379685819149017
1780854565017524000,26.25652392578125,1.029459834098816,-0.3969093859195709,0.08223766833543777
1780854565066040600,26.30504052734375,0.4330267608165741,0.008399390615522861,0.43165233731269836
1780854565114557200,26.35355712890625,-0.10193806141614914,-0.8019890785217285,-0.11552979797124863
1780854565163073500,26.402073486328124,0.026343543082475662,-1.281136155128479,-1.2907572984695435
1780854565211590100,26.450590087890625,-0.9272163510322571,-0.1340848207473755,0.416304349899292
1780854565260106800,26.499106689453125,-0.6882919073104858,0.07567087560892105,-0.20769402384757996
1780854565308623000,26.547623046875,-0.6062069535255432,0.2458730787038803,-0.46082112193107605
1780854565357139500,26.596139404296874,0.12232567369937897,1.2153154611587524,-0.4633409380912781
1780854565405656000,26.644656005859375,0.2795470058917999,2.126725673675537,-0.4799869954586029
1780854565454172700,26.693172607421875,0.22334744036197662,1.6555962562561035,0.5039634704589844
1780854565502689300,26.741689208984376,0.21632249653339386,0.6325504779815674,0.3223075270652771
1780854565551205600,26.79020556640625,0.01259908638894558,0.3720930218696594,-0.8747583627700806
1780854565599722000,26.838721923828125,-0.24541492760181427,0.2700785994529724,-1.1470513343811035
1780854565648238600,26.887238525390625,-0.7760273218154907,1.0391573905944824,-1.0301470756530762
1780854565696755200,26.935755126953126,0.6474403142929077,0.22586725652217865,0.3555232882499695
1780854565745271600,26.984271484375,0.6134609580039978,0.3119991719722748,-0.116751529276371
1780854565793788200,27.0327880859375,0.40149086713790894,-0.05673406645655632,1.3086251020431519
1780854565842304800,27.0813046875,-0.402407169342041,0.60406893491745,2.0131049156188965
1780854565890821000,27.129821044921876,0.710512101650238,-1.5683953762054443,0.47006043791770935
1780854565939337700,27.178337646484376,0.3575085997581482,-1.1537708044052124,0.7700713872909546
1780854565987854000,27.22685400390625,-0.6524799466133118,-0.3934732675552368,-0.0818558782339096
1780854566036370700,27.27537060546875,-0.457843154668808,-0.5205331444740295,-0.6004800796508789
1780854566084887300,27.32388720703125,0.05833758786320686,-0.44669488072395325,-0.18417572975158691
1780854566133403600,27.372403564453126,0.6417134404182434,-0.23365578055381775,-0.12835796177387238
1780854566181920300,27.420920166015627,0.625067412853241,-0.07689260691404343,0.016416991129517555
1780854566230436900,27.469436767578124,-0.01977674663066864,-0.09422589093446732,0.1300378441810608
1780854566278953200,27.517953125,0.031230462715029716,-1.3599376678466797,-0.7381537556648254
1780854566327469600,27.566469482421876,-0.7487674951553345,-0.8877392411231995,-0.015500693581998348
1780854566424502800,27.663502685546874,-0.2320522516965866,-0.2606865465641022,-0.3582721948623657
1780854566473019100,27.71201904296875,-0.21494804322719574,0.3669770061969757,-0.11239911615848541
1780854566521535700,27.76053564453125,0.017486004158854485,1.251509189605713,-0.6453022956848145
1780854566570052000,27.809052001953123,0.34460410475730896,1.124678373336792,-0.5694023370742798
1780854566618568700,27.857568603515624,0.3459021747112274,0.5535961985588074,0.18112140893936157
1780854566667085300,27.906085205078124,0.08666644245386124,0.08842267841100693,-0.12522727251052856
1780854566715601700,27.9546015625,-0.02023489587008953,0.1516471803188324,-1.2584577798843384
1780854566764118300,28.0031181640625,-0.767551600933075,1.0615302324295044,-1.172325849533081
1780854566812635000,28.051634765625,0.017867794260382652,0.619722306728363,-0.21380266547203064
1780854566861151200,28.100151123046874,0.818711519241333,-0.07887791097164154,0.4173733592033386
1780854566909667600,28.14866748046875,0.5327504277229309,0.13041962683200836,1.266017198562622
1780854566958184200,28.19718408203125,-0.15890119969844818,0.6144536137580872,1.8964296579360962
1780854567006700800,28.24570068359375,0.40431612730026245,-0.7492256760597229,1.0826051235198975
1780854567055217200,28.294217041015624,0.806876003742218,-1.4002548456192017,1.0474040508270264
1780854567103733800,28.342733642578125,-0.41118836402893066,-0.7245619893074036,0.18974986672401428
1780854567152250000,28.39125,-0.495258629322052,-0.9218713045120239,-1.1393392086029053
1780854567200766700,28.4397666015625,-0.11369720846414566,-0.7677806615829468,-0.2861901521682739
1780854567249283000,28.488282958984374,0.594295084476471,-0.5296961069107056,0.0066431546583771706
1780854567297799700,28.536799560546875,0.8706350326538086,-0.38881543278694153,0.06673697382211685
1780854567346316300,28.58531640625,0.07040216773748398,-0.06276635825634003,-0.01977674663066864
1780854567394832600,28.63383251953125,-0.1407279670238495,-0.9536362886428833,-0.3820195496082306
1780854567491865600,28.730865478515625,-0.8620065450668335,-0.2788597643375397,0.18784092366695404
1780854567540382000,28.7793818359375,-0.23388485610485077,-0.3773617148399353,-0.6982184648513794
1780854567588898600,28.827898681640626,-0.3338375985622406,0.10682497918605804,0.0032070400193333626
1780854567637415200,28.876415283203126,-0.1193477064371109,1.127350926399231,-0.2755763828754425
1780854567685931500,28.924931640625,0.14362958073616028,1.5791617631912231,-0.7724385261535645
1780854567734448000,28.9734482421875,0.20723587274551392,1.3590977191925049,-0.046425722539424896
1780854567782964700,29.02196484375,0.23159411549568176,0.39538222551345825,0.4845684766769409
1780854567831481000,29.070481201171877,0.17722713947296143,0.04306596517562866,-0.9086613655090332
1780854567879997400,29.11899755859375,-0.48678287863731384,0.4659371078014374,-1.2085959911346436
1780854567928514000,29.16751416015625,-0.6692023873329163,1.0970368385314941,-0.5677224397659302
1780854568025547000,29.264547119140627,0.838182806968689,-0.17134757339954376,0.48013970255851746
1780854568074063400,29.3130634765625,0.19708025455474854,-0.30772313475608826,1.8603886365890503
1780854568122579700,29.361579833984376,-0.28672465682029724,0.40263625979423523,1.7282891273498535
1780854568171096600,29.4100966796875,1.0755038261413574,-2.031430721282959,0.23777911067008972
1780854568219613000,29.458613037109377,0.1510363221168518,-1.3990330696105957,0.5075522661209106
1780854568268129300,29.50712939453125,-0.5591703653335571,-0.8306997418403625,-0.7840449213981628
1780854568316646000,29.55564599609375,-0.3924042582511902,-0.7586176991462708,-0.4886918365955353
1780854568365162500,29.60416259765625,0.3986656367778778,-0.6382773518562317,0.34574946761131287
1780854568413678800,29.652678955078127,0.9537126421928406,-0.3158934414386749,-0.09453132748603821
1780854568462195200,29.7011953125,0.69096440076828,-0.34116798639297485,-0.14706569910049438
1780854568510711800,29.7497119140625,-0.05933023989200592,-0.39164069294929504,-0.10774127393960953
1780854568559228400,29.798228515625,-0.2326631247997284,-1.0406081676483154,-1.0859649181365967
1780854568656261000,29.89526123046875,-0.5267944931983948,0.07689260691404343,-0.565049946308136
1780854568704777700,29.94377783203125,-0.36766424775123596,-0.10399972647428513,0.06505709886550903
1780854568753294300,29.99229443359375,0.02328922040760517,0.7680097222328186,-0.014660755172371864
1780854568850327000,30.0893271484375,0.21838416159152985,1.2594504356384277,-0.11247547715902328
1780854568898843600,30.13784375,0.21113014221191406,0.4228711426258087,0.07528908550739288
1780854568947360300,30.1863603515625,0.10239620506763458,0.22792892158031464,-0.9401208758354187
1780854568995876600,30.234876708984373,-0.3384954333305359,0.48853909969329834,-1.3610830307006836
1780854569044393000,30.28339306640625,-0.6046797633171082,1.10230553150177,-0.7108938694000244
1780854569092909600,30.33190966796875,0.7940478324890137,-0.11087195575237274,0.6906589865684509
1780854569141426200,30.38042626953125,0.7205913662910461,-0.22548545897006989,1.2069923877716064
1780854569189942500,30.428942626953123,-0.5696313977241516,1.0909281969070435,1.8119776248931885
1780854569238459000,30.477458984375,0.30367615818977356,-0.35766133666038513,1.2705987691879272
1780854569286975200,30.525975341796876,1.3165663480758667,-1.8326706886291504,1.114980936050415
1780854569335491800,30.574491943359376,-0.4704422354698181,-0.7144063711166382,-0.025732679292559624
1780854569384008400,30.623008544921873,-0.8904881477355957,-0.42279478907585144,-1.2180644273757935
1780854569432524800,30.67152490234375,-0.17218750715255737,-0.6437751054763794,-0.07376192510128021
1780854569481041200,30.720041259765626,0.6333904266357422,-0.3336085379123688,0.2557232677936554
1780854569529557800,30.768557861328127,1.0707695484161377,-0.3669770061969757,0.06650790572166443
1780854569626590500,30.865590576171876,-0.19876012206077576,-0.805425226688385,-0.732121467590332
1780854569675107000,30.914107177734376,-0.06200277432799339,-1.0054070949554443,-0.8489493131637573
1780854569723623700,30.962623779296877,-0.6480512022972107,-0.4243983030319214,1.2818996906280518
1780854569772140000,31.01114013671875,-0.5480220913887024,-0.0807105079293251,-0.8440623879432678
1780854569820656600,31.05965673828125,-0.6390409469604492,0.5111411213874817,-0.2755763828754425
1780854569869173000,31.108173095703126,0.19494222104549408,0.9456950426101685,-0.2225838601589203
1780854569917689600,31.156689697265627,0.25503605604171753,1.613828420639038,-0.8600975871086121
1780854569966206000,31.2052060546875,0.07895427197217941,1.4680607318878174,0.04474584385752678
1780854570014722300,31.253722412109376,0.18295399844646454,0.5077813267707825,0.11606431007385254
1780854570063239000,31.302239013671876,0.27343833446502686,0.02000582218170166,-0.9475276470184326
1780854570111755300,31.35075537109375,-0.249920055270195,0.4761691093444824,-1.4451533555984497
1780854570160272000,31.39927197265625,-0.568027913570404,1.3708568811416626,-0.574212908744812
1780854570208788200,31.447788330078126,0.8673516511917114,-0.03329212963581085,0.5784889459609985
1780854570257304600,31.4963046875,0.5605447888374329,0.48594292998313904,0.6113992929458618
1780854570305821200,31.5448212890625,0.11927134543657303,0.5564214587211609,2.11702823638916
1780854570354337500,31.593337646484375,-0.014889828860759735,-0.312228262424469,1.9201006889343262
1780854570402854100,31.641854248046876,0.9870811104774475,-1.7227150201797485,0.601396381855011
1780854570451370500,31.69037060546875,-0.4753291606903076,-0.6759218573570251,-0.1594357043504715
1780854570499887000,31.73888720703125,-0.6622537970542908,-0.6892082095146179,-1.0136537551879883
1780854570548403500,31.787403564453125,-0.23357942700386047,-0.5710058808326721,0.06467530876398087
1780854570596919800,31.835919921875,0.3797288239002228,-0.28519749641418457,0.1931859850883484
1780854570645436400,31.8844365234375,0.8998801708221436,-0.2952004075050354,-0.4751000702381134
1780854570693952800,31.932952880859375,0.3494910001754761,-0.0501672700047493,0.2889390289783478
1780854570742469400,31.981469482421875,-0.24610215425491333,-0.9438624382019043,0.11438442766666412
1780854570790985700,32.02998583984375,-0.3623191714286804,-0.7667880058288574,-0.6856957077980042
1780854570839502000,32.07850219726563,-0.9501237869262695,-0.147905632853508,0.02779434807598591
1780854570888018700,32.127018798828125,-0.5199222564697266,0.26396992802619934,-0.8374956250190735
1780854570936535000,32.17553515625,-0.1701258420944214,0.04634936526417732,-0.40141451358795166
1780854570985051400,32.224051513671874,-0.0010690133785828948,0.9934188723564148,-0.4284452795982361
1780854571033568000,32.27256811523438,0.10155627131462097,1.6685771942138672,-0.823445737361908
1780854571082084400,32.32108447265625,0.18234314024448395,1.585652232170105,0.08277218043804169
1780854571179117300,32.418117431640624,0.34582582116127014,0.10254892706871033,-0.8578832149505615
1780854571227633700,32.466633544921876,-0.22548545897006989,0.5735256671905518,-1.360701322555542
1780854571276150000,32.51514990234375,-0.5549706816673279,0.8546761870384216,-0.6542361974716187
1780854571324666600,32.56366650390625,0.5858956575393677,-0.42042768001556396,0.7121919989585876
1780854571373183200,32.612183349609374,0.2568686306476593,0.6006327867507935,0.3845393657684326
1780854571421699600,32.660699462890626,0.2369391769170761,0.2664133906364441,1.8362594842910767
1780854571470216000,32.7092158203125,0.20746494829654694,-0.5107592940330505,1.7150791883468628
1780854571518732500,32.75773266601563,0.7201332449913025,-1.6304744482040405,1.0662645101547241
1780854571567249000,32.80624877929687,-0.45944666862487793,-0.794200599193573,-0.20609050989151
1780854571615765200,32.85476513671875,-0.5124391913414001,-0.9286671876907349,-1.0806198120117188
1780854571664281600,32.90328149414062,-0.07704532146453857,-0.8713986277580261,-0.015577051788568497
1780854571761314800,33.00031469726562,0.857119619846344,-0.20761767029762268,-0.32016950845718384
1780854571809831200,33.0488310546875,0.3605629503726959,-0.06650790572166443,0.13309216499328613
1780854571858347500,33.09734741210937,-0.01779143698513508,-0.8359684348106384,0.5677987933158875
1780854571906864000,33.145864013671876,-0.5040398240089417,-1.026940107345581,-0.7974076271057129
1780854571955380500,33.19438037109375,-1.038088321685791,-0.35010188817977905,-0.7786998748779297
1780854572003896800,33.242896728515625,-0.1816559135913849,-0.24831652641296387,-0.16661337018013
1780854572052413200,33.2914130859375,0.06666062027215958,0.06383536756038666,0.35124725103378296
1780854572100929500,33.339929443359374,0.18089233338832855,1.149800181388855,-0.8979712128639221
1780854572149446100,33.38844604492188,0.2320522516965866,1.490433692932129,-0.877278208732605
1780854572197962500,33.43696240234375,0.20105087757110596,1.059086799621582,-0.02977965772151947
1780854572246478800,33.48547875976563,0.20677772164344788,0.22182027995586395,0.3225366175174713
1780854572294995500,33.533995361328124,0.15493057668209076,0.189444437623024,-1.0692424774169922
1780854572343512000,33.58251196289063,-0.37896522879600525,0.7343358397483826,-1.1656063795089722
1780854572392028400,33.6310283203125,-0.331165075302124,0.754570722579956,-0.20044000446796417
1780854572440544800,33.67954467773438,0.4834994673728943,-0.0322994738817215,0.3560578227043152
1780854572489061400,33.728061279296874,0.41729700565338135,0.42959064245224,0.999069333076477
1780854572537577700,33.77657763671875,0.11171189695596695,0.3511708974838257,2.297157049179077
1780854572586094000,33.82509399414062,0.26244276762008667,-1.2357031106948853,1.34237539768219
1780854572634610400,33.8736103515625,0.6227766275405884,-1.1548398733139038,1.180343508720398
1780854572683126800,33.92212670898437,-0.4390590488910675,-0.8508582711219788,-0.33055421710014343
1780854572780159700,34.01915966796875,0.07368556410074234,-0.7078395485877991,0.02825249545276165
1780854572828676000,34.067676025390625,0.6710349321365356,-0.33979353308677673,-0.03955349326133728
1780854572877192400,34.1161923828125,0.639270007610321,-0.2949713170528412,-0.025961752980947495
1780854572925709000,34.164708984375,0.18379394710063934,-0.12202023714780807,0.10476330667734146
1780854572974225700,34.2132255859375,0.007024944759905338,-1.1059707403182983,-0.47204574942588806
1780854573022742000,34.261741943359375,-0.862770140171051,-0.7274636030197144,0.09506583213806152
1780854573071258400,34.31025830078125,-0.7785471677780151,0.1052214577794075,-0.5907825827598572
1780854573119775000,34.35877490234375,-0.1591302752494812,-0.28695371747016907,-0.3885863721370697
1780854573168291300,34.40729125976563,-0.06986765563488007,0.5529089570045471,0.2188423126935959
1780854573265324000,34.50432397460938,0.22495095431804657,1.8777220249176025,-0.10957387089729309
1780854573313840600,34.552840576171874,0.18791727721691132,0.8880446553230286,0.8289434909820557
1780854573362357000,34.60135693359375,0.05917752534151077,0.3226129710674286,-0.7106648087501526
1780854573410873300,34.64987329101562,0.08811724185943604,0.05528326332569122,-1.536553978919983
1780854573459389700,34.6983896484375,-0.866893470287323,1.0670280456542969,-0.9841794967651367
1780854573507906300,34.74690625,0.275270938873291,0.17524182796478271,0.5658134818077087
1780854573556422700,34.79542260742188,0.7628937363624573,0.17424917221069336,-0.21815508604049683
1780854573604939000,34.84393896484375,0.4857138693332672,0.027947064489126205,1.004643440246582
1780854573653455400,34.892455322265626,-0.40004006028175354,0.6252201199531555,1.6645301580429077
1780854573701972000,34.94097192382812,0.4673879146575928,-0.8287907838821411,1.0390046834945679
1780854573750488300,34.98948828125,0.7142536640167236,-1.3258819580078125,1.142698884010315
1780854573799004700,35.03800463867187,-0.4120282828807831,-0.6298779249191284,0.004657844081521034
1780854573847521000,35.08652099609375,-0.5124391913414001,-0.7351757884025574,-1.2229512929916382
1780854573896037600,35.13503759765625,-0.12614357471466064,-0.5694023370742798,-0.32528549432754517
1780854573944554000,35.183553955078125,0.607581377029419,-0.40698865056037903,0.09117157012224197
1780854573993070300,35.2320703125,0.6872992515563965,-0.13209950923919678,-0.0513126403093338
1780854574041586700,35.280586669921874,0.07078395783901215,-0.07521272450685501,0.15668681263923645
1780854574090103300,35.32910327148438,-0.049709122627973557,-0.895604133605957,0.28260132670402527
1780854574138619600,35.37761962890625,-0.45616328716278076,-1.039615511894226,-0.3344484567642212
1780854574187136000,35.42613598632813,-0.9179770350456238,-0.250149130821228,-0.1865428388118744
1780854574235652400,35.47465234375,-0.3384954333305359,-0.4618901312351227,-0.7709113359451294
1780854574332685300,35.57168530273437,-0.03649916872382164,1.2735767364501953,-0.4944186806678772
1780854574381201700,35.62020166015625,0.32100942730903625,1.4506511688232422,-0.6931788325309753
1780854574429718000,35.66871801757812,0.21578797698020935,1.2440260648727417,0.233503058552742
1780854574478234600,35.717234619140626,0.11476621776819229,0.47433650493621826,0.435241162776947
1780854574526751000,35.7657509765625,0.09521854668855667,0.12782345712184906,-0.9894482493400574
1780854574575267300,35.814267333984375,-0.42997244000434875,0.5545125007629395,-1.2671626806259155
1780854574623783700,35.86278369140625,-0.46021026372909546,1.1177297830581665,-0.4042397737503052
1780854574672300300,35.91130029296875,0.975092887878418,0.18700097501277924,0.18791727721691132
1780854574720816600,35.95981665039063,0.697760283946991,0.09605848789215088,0.03840812295675278
1780854574769333000,36.0083330078125,0.25526511669158936,-0.25702136754989624,1.3736058473587036
1780854574817849300,36.05684936523438,-0.26969680190086365,0.3116174042224884,1.7333288192749023
1780854574866365700,36.10536572265625,1.0467168092727661,-1.8180862665176392,0.5399280786514282
1780854574914882300,36.15388232421875,0.1461493968963623,-1.2509746551513672,0.613231897354126
1780854574963398400,36.2023984375,-0.4405098557472229,-0.9070578217506409,-0.7064651250839233
1780854575011915000,36.2509150390625,-0.44929105043411255,-0.6139954328536987,-0.7382301092147827
1780854575060431400,36.29943139648437,0.2202167510986328,-0.6476693749427795,0.2551124095916748
1780854575108948000,36.34794799804688,0.8471930623054504,-0.41157013177871704,0.023365577682852745
1780854575157464300,36.39646435546875,0.5807033181190491,-0.2008981555700302,-0.24808746576309204
1780854575205980700,36.444980712890626,0.07910698652267456,-0.4030180275440216,0.26419901847839355
1780854575254497000,36.4934970703125,-0.25236350297927856,-1.1925607919692993,-0.2386954128742218
1780854575303013400,36.542013427734375,-1.0425934791564941,-0.8909462690353394,0.21540619432926178
1780854575351529700,36.59052978515625,-0.40607234835624695,-0.38125598430633545,-0.6966912746429443
1780854575400046000,36.639046142578124,-0.27519458532333374,-0.378888875246048,-0.21227550506591797
1780854575448562400,36.6875625,-0.1450040340423584,0.9108757376670837,-0.24862197041511536
1780854575497079000,36.7360791015625,0.3019199073314667,1.5065453052520752,-0.7631992101669312
1780854575545595400,36.78459545898438,0.3885863721370697,1.3330596685409546,-0.12041672319173813
1780854575594111700,36.83311181640625,0.15401428937911987,0.6213258504867554,0.7573959827423096
1780854575642628000,36.881628173828126,0.02412915788590908,0.2594648003578186,-0.7636573314666748
1780854575691144700,36.93014477539062,-0.026343543082475662,0.17974695563316345,-1.4704278707504272
1780854575739661000,36.9786611328125,-0.7035635113716125,1.2718968391418457,-0.7128791809082031
1780854575788177400,37.02717749023437,0.5846739411354065,0.5209149122238159,0.44669488072395325
1780854575836693800,37.07569384765625,0.7492256760597229,-0.05994110554456711,-0.01977674663066864
1780854575933726500,37.1727265625,-0.6875283122062683,0.559399425983429,1.62909996509552
1780854575982243000,37.2212431640625,0.85918128490448,-1.2722786664962769,0.22960880398750305
1780854576030759400,37.269759521484374,0.6718748807907104,-1.4547744989395142,1.0681734085083008
1780854576079275500,37.31827563476563,-0.6101775765419006,-0.5618428587913513,0.09544762223958969
1780854576127792000,37.36679223632812,-0.5388590693473816,-0.7948114275932312,-1.2647191286087036
1780854576176308500,37.41530859375,0.20822852849960327,-0.9524145722389221,-0.4791470468044281
1780854576224824800,37.46382495117187,0.9962440729141235,-0.7386882305145264,0.2008981555700302
1780854576273341400,37.51234155273438,0.5832995176315308,-0.2603811025619507,0.3185659945011139
1780854576321857800,37.56085791015625,-0.054901473224163055,-0.1305723488330841,0.32536184787750244
1780854576370374100,37.6093740234375,0.0243582334369421,-1.4891356229782104,-1.1608721017837524
1780854576418890500,37.65789038085938,-0.9059888124465942,-0.9020945429801941,0.39805474877357483
1780854576467406800,37.70640673828125,-0.672638475894928,-0.08384118974208832,-0.3503309488296509
1780854576515923200,37.75492309570313,-0.20738859474658966,-0.3764454126358032,-0.3842339515686035
1780854576564439600,37.803439453125,-0.10903936624526978,0.47555822134017944,0.2611446976661682
1780854576612956000,37.851955810546876,0.18684826791286469,1.224096655845642,-0.8104648590087891
1780854576661472300,37.90047216796875,0.1718057245016098,1.5370121002197266,-0.6209440231323242
1780854576709988900,37.94898876953125,0.07154753804206848,1.0190751552581787,0.6802743077278137
1780854576758505200,37.99750512695312,0.22388194501399994,0.2692386507987976,-0.1646280586719513
1780854576807021600,38.046021484375,0.020082179456949234,0.11224640160799026,-1.3203842639923096
1780854576855538000,38.09453784179688,-0.936073899269104,1.504636287689209,-1.4870738983154297
1780854576904054500,38.143054443359375,0.4552469849586487,0.35361436009407043,0.4557051360607147
1780854577001087200,38.240087158203124,0.672027587890625,-0.1349247545003891,1.2070688009262085
1780854577049603600,38.288603515625,-0.07047852128744125,0.485484778881073,2.121457099914551
1780854577098120000,38.33711987304687,0.4904480576515198,-0.8508582711219788,0.99257892370224
1780854577146636300,38.38563623046875,0.8113048076629639,-1.5680135488510132,0.7571669220924377
1780854577195152600,38.43415258789062,-0.4252382516860962,-0.9329432249069214,0.0007635809597559273
1780854577243669000,38.4826689453125,-0.5463421940803528,-0.9045380353927612,-1.2242493629455566
1780854577292185600,38.531185546875,-0.10086904466152191,-0.7728966474533081,-0.28405213356018066
1780854577340702000,38.579701904296876,0.5718457698822021,-0.46288278698921204,0.26626068353652954
1780854577389218300,38.62821826171875,0.5098429918289185,-0.07376192510128021,0.33567020297050476
1780854577486251000,38.7252509765625,-0.210442915558815,-0.8860593438148499,-0.4038579761981964
1780854577534767400,38.773767333984374,-0.677678108215332,-1.0780999660491943,-0.008246674202382565
1780854577583283700,38.82228369140625,-0.8316160440444946,-0.2900844216346741,0.01030834298580885
1780854577631800000,38.87080004882812,-0.2208276242017746,-0.20601414144039154,-0.6581304669380188
1780854577680316400,38.91931640625,-0.26595523953437805,0.1986074149608612,0.3242928385734558
1780854577728833000,38.9678330078125,0.07460185885429382,0.8868229389190674,-0.46250098943710327
1780854577777349000,39.01634912109375,0.28993168473243713,1.1190279722213745,-0.6713404059410095
1780854577825865500,39.06486547851563,0.1807396113872528,0.9392045736312866,0.22174391150474548
1780854577874381800,39.1133818359375,0.19822561740875244,0.38270679116249084,0.13660463690757751
1780854577922898400,39.1618984375,0.14286600053310394,0.22792892158031464,-1.10230553150177
1780854578019931100,39.25893115234375,-0.5478693246841431,1.4826451539993286,-0.7279980778694153
1780854578068447500,39.30744750976562,0.6785944104194641,0.13271036744117737,0.42859798669815063
1780854578116963800,39.3559638671875,0.7560214996337891,-0.19883649051189423,0.89705491065979
1780854578165480200,39.40448022460937,-0.2306014597415924,0.476779967546463,1.4495820999145508
1780854578213996500,39.45299658203125,-0.15951207280158997,0.26160284876823425,1.3424516916275024
1780854578311029500,39.550029541015626,0.1628718227148056,-1.0739766359329224,1.194546103477478
1780854578359545600,39.59854565429688,-0.8996511101722717,-0.11247547715902328,-1.1436152458190918
1780854578408062000,39.64706201171875,-0.25274530053138733,-0.4258491098880768,-1.0832923650741577
1780854578456578300,39.69557836914063,0.5346593856811523,-0.624456524848938,0.12736530601978302
1780854578505095000,39.744094970703124,0.9202677607536316,-0.5333613157272339,0.3543015718460083
1780854578553611300,39.792611328125,0.42936158180236816,-0.3998109996318817,0.1703549176454544
1780854578602127600,39.84112768554687,-0.08277218043804169,-0.7156280875205994,0.43631017208099365
1780854578650643700,39.889643798828125,0.1383608728647232,-2.1977386474609375,-0.4577668011188507
1780854578699160000,39.93816015625,-1.0460295677185059,-1.2857940196990967,0.31780239939689636
1780854578747676700,39.9866767578125,-0.5862774848937988,-0.9046143889427185,-0.9006437659263611
1780854578796193000,40.03519311523438,-0.4105774760246277,0.5502364635467529,-0.7887027859687805
1780854578844709400,40.08370947265625,0.26480987668037415,1.3820815086364746,-0.03298669680953026
1780854578893225500,40.1322255859375,0.8048906922340393,1.2179880142211914,0.061620984226465225
1780854578941742000,40.1807421875,0.3539961278438568,1.20577073097229,-0.10453423857688904
1780854578990258400,40.229258544921876,-0.10254892706871033,1.34947669506073,-0.28183773159980774
1780854579087291100,40.326291015625,-0.1943313628435135,0.9785290360450745,-1.2156208753585815
1780854579135807500,40.37480737304688,-0.6038398146629333,1.590157389640808,-0.8265000581741333
1780854579184323800,40.42332373046875,0.5426006317138672,0.5661189556121826,0.8675807118415833
1780854579232840200,40.47184008789063,-0.03245219215750694,1.0451133251190186,0.354225218296051
1780854579281356500,40.5203564453125,-0.13767364621162415,0.9314924478530884,1.4774528741836548
1780854579329873200,40.568873046875,0.0907897800207138,0.1879936307668686,1.4999784231185913
1780854579378389200,40.61738916015625,1.3395501375198364,-1.3547453880310059,0.7016545534133911
1780854579426905600,40.665905517578125,-0.08788817375898361,-0.5348120927810669,1.1882847547531128
1780854579475422000,40.714421875,-0.9285908341407776,-0.3263545036315918,-1.2224167585372925
1780854579523938600,40.7629384765625,-0.2810741662979126,-1.0764964818954468,-1.0487021207809448
1780854579572454700,40.81145458984375,0.4623482823371887,-1.2194387912750244,0.05024362727999687
1780854579620971000,40.85997094726562,1.0178533792495728,-0.919198751449585,0.4440223276615143
1780854579669487400,40.9084873046875,0.49189886450767517,-0.7316632866859436,0.07017309218645096
1780854579718003700,40.95700366210937,-0.15584687888622284,-1.4973822832107544,0.21029019355773926
1780854579766520000,41.00552001953125,-0.5702422857284546,-0.926376461982727,-0.30077454447746277
1780854579815036400,41.05403637695313,-1.0418298244476318,-0.5386300086975098,-0.5034289360046387
1780854579912069000,41.15106909179688,-0.0951421856880188,0.20021092891693115,-0.24037529528141022
1780854579960585700,41.199585693359374,0.09789107739925385,1.0551161766052246,-0.8693369626998901
1780854580009101800,41.248101806640626,0.12957969307899475,1.7515020370483398,-0.8927025198936462
1780854580057618200,41.2966181640625,0.191735178232193,1.7569998502731323,-0.41241008043289185
1780854580106134800,41.345134765625,0.2222784161567688,0.9949460029602051,0.13393209874629974
1780854580154651100,41.39365112304687,0.170965775847435,0.5464185476303101,-0.45967575907707214
1780854580203167500,41.44216748046875,-0.06765327602624893,0.6160571575164795,-0.8643736839294434
1780854580251683600,41.49068359375,-0.9772309064865112,1.4352267980575562,-1.0971895456314087
1780854580300200000,41.539199951171874,0.18791727721691132,0.7899245023727417,-0.12240202724933624
1780854580348716500,41.58771655273438,1.0596213340759277,-0.21731515228748322,0.7118101716041565
1780854580397232600,41.63623266601562,0.2556469142436981,0.20799945294857025,1.4169771671295166
1780854580445749000,41.6847490234375,-0.44463321566581726,0.9048434495925903,1.9791254997253418
1780854580494265300,41.73326538085937,1.176220178604126,-1.6068798303604126,0.9147700071334839
1780854580542781700,41.78178173828125,0.47578731179237366,-1.2931244373321533,0.6757691502571106
1780854580591298000,41.83029809570313,-0.7199041247367859,-0.5010618567466736,-0.4930442273616791
1780854580639814400,41.878814453125,-0.36598435044288635,-0.8571959733963013,-1.0220531225204468
1780854580736847000,41.97584716796875,0.8679624795913696,-0.7703768610954285,0.12415826320648193
1780854580785363500,42.024363525390626,0.3975966274738312,-0.2277761995792389,0.5411498546600342
1780854580833879800,42.0728798828125,-0.1611155867576599,-0.5154935121536255,-0.05192350596189499
1780854580882396200,42.121396240234375,-0.18310672044754028,-1.451491117477417,-1.0138828754425049
1780854580930912500,42.16991259765625,-1.1542290449142456,-0.8903354406356812,0.633008599281311
1780854580979428900,42.218428955078124,-0.48678287863731384,-0.2008981555700302,-0.24442227184772491
1780854581027945200,42.2669453125,-0.22075125575065613,-0.4799869954586029,-0.13507747650146484
1780854581076461600,42.31546166992187,0.0550541877746582,0.7427352070808411,-0.19876012206077576
1780854581124978000,42.36397802734375,0.46906778216362,1.0874156951904297,-0.9774600267410278
1780854581173494300,42.41249438476562,0.5439751148223877,0.9485966563224792,-0.5034289360046387
1780854581222010600,42.4610107421875,0.26213735342025757,0.4744892120361328,0.2003636509180069
1780854581270527000,42.50952685546875,0.131717711687088,0.011682788841426373,-0.4630354940891266
1780854581319043300,42.558043212890624,-0.09124792367219925,0.2548069655895233,-1.2744929790496826
1780854581367559700,42.6065595703125,-0.8658244609832764,1.4309507608413696,-0.6887500286102295
1780854581416075800,42.65507568359375,0.6398808360099792,0.18318307399749756,0.44440412521362305
1780854581464592100,42.703592041015625,0.7134137153625488,0.017256930470466614,0.364991694688797
1780854581513108500,42.7521083984375,0.34979644417762756,-0.06444623321294785,1.6492584943771362
1780854581561625000,42.800625,-0.2713003158569336,0.4525744318962097,1.4425572156906128
1780854581610141200,42.84914111328125,0.8410844206809998,-1.4264456033706665,0.7830522656440735
1780854581658657500,42.89765747070312,0.11003202199935913,-0.8498656153678894,1.1215476989746094
1780854581707174000,42.946173828125,-0.6830231547355652,-0.25549420714378357,-0.754265308380127
1780854581755690200,42.99469018554687,-0.46311184763908386,-0.5492438077926636,-0.9459241032600403
1780854581804206600,43.04320654296875,0.2651916742324829,-0.5492438077926636,-0.011911863461136818
1780854581852723000,43.09172290039062,0.9169843792915344,-0.343993216753006,0.01893680728971958
1780854581901239300,43.1402392578125,0.4992292523384094,-0.13446660339832306,0.17195843160152435
1780854581949755600,43.18875561523438,0.055741410702466965,-0.4529562294483185,0.15515965223312378
1780854581998272000,43.23727197265625,-0.2816850244998932,-1.097800374031067,-1.0609194040298462
1780854582046788400,43.28578833007813,-1.0413717031478882,-0.5067123174667358,0.409661203622818
1780854582095304400,43.33430444335937,-0.46799877285957336,0.28985533118247986,-0.1948658674955368
1780854582143820800,43.38282080078125,-0.32734715938568115,-0.12935061752796173,0.05757400393486023
1780854582192337200,43.43133715820313,-0.1196531355381012,0.5928442478179932,0.06536252796649933
1780854582289369900,43.52836987304688,0.24289511144161224,1.028390884399414,-0.8671225309371948
1780854582337886200,43.57688623046875,0.19066616892814636,0.6781362891197205,-0.04199695214629173
1780854582386402600,43.625402587890626,0.16997312009334564,0.2649625837802887,-0.15699224174022675
1780854582434919000,43.6739189453125,0.1764635592699051,0.0732274129986763,-1.3641374111175537
1780854582483435300,43.722435302734375,-0.7328850030899048,1.1302525997161865,-1.2846486568450928
1780854582531951400,43.77095141601563,0.22731806337833405,0.5669588446617126,0.18875721096992493
1780854582580467700,43.8194677734375,0.847956657409668,0.0029779658652842045,0.31413722038269043
1780854582628984000,43.86798413085938,0.5291616320610046,0.0023671009112149477,1.5885539054870605
1780854582677500400,43.91650048828125,-0.4915934205055237,0.8276454210281372,1.8732168674468994
1780854582726016800,43.965016845703126,0.7064651250839233,-1.1562143564224243,0.8519272804260254
1780854582774533000,44.013533203125,0.6020836234092712,-1.2260819673538208,0.9970840215682983
1780854582823049500,44.062049560546875,-0.5840631127357483,-0.48265954852104187,-0.09529490768909454
1780854582871565800,44.11056591796875,-0.6353757381439209,-0.5405389666557312,-0.8216894865036011
1780854582920082200,44.159082275390624,-0.12263110280036926,-0.47754353284835815,-0.0873536616563797
1780854582968598500,44.2075986328125,0.6177369952201843,-0.3849211633205414,0.055741410702466965
1780854583017115000,44.25611499023437,0.6618719696998596,-0.28328853845596313,0.09468404203653336
1780854583065631000,44.304630859375,0.05589412897825241,-0.0668896958231926,-0.23014330863952637
1780854583114147300,44.35314721679688,-0.1712712198495865,-0.9717331528663635,-0.546113133430481
1780854583162663700,44.40166357421875,-0.567951500415802,-1.0810779333114624,-0.04298960790038109
1780854583211180000,44.450179931640626,-0.9473749399185181,0.2216675579547882,0.27580544352531433
1780854583259696400,44.4986962890625,-0.40714138746261597,-0.07070759683847427,-0.5907825827598572
1780854583308212700,44.547212646484375,-0.33895358443260193,0.5406916737556458,0.14920371770858765
1780854583356728800,44.59572875976563,0.1885281354188919,1.1208604574203491,-1.029765248298645
1780854583405245400,44.644245361328124,0.3287216126918793,1.4985276460647583,-0.9495129585266113
1780854583453761500,44.69276147460938,0.14508038759231567,1.1919498443603516,0.44241881370544434
1780854583502278000,44.74127783203125,0.2611446976661682,0.2848156988620758,-0.004352411720901728
1780854583550794200,44.789794189453126,0.25954118371009827,0.06360629200935364,-1.201570987701416
1780854583599310600,44.838310546875,-0.7422770857810974,0.9714277386665344,-1.071762204170227
1780854583647827000,44.886826904296875,-0.21616977453231812,0.7483857274055481,-0.32971426844596863
1780854583696343300,44.93534326171875,0.8777363300323486,0.03168861195445061,0.152487114071846
1780854583793375700,45.032375732421876,0.22678354382514954,0.09766200929880142,2.2389721870422363
1780854583890408400,45.129408447265625,0.7798452377319336,-1.7258456945419312,0.8140536546707153
1780854583938924500,45.17792456054688,-0.24869832396507263,-1.0897064208984375,-0.04344775900244713
1780854583987441000,45.22644091796875,-0.6048324704170227,-0.8726203441619873,-1.1039090156555176
1780854584035957500,45.27495751953125,-0.2214384824037552,-0.8779653906822205,-0.33910632133483887
1780854584084473600,45.3234736328125,0.5083158612251282,-0.6635518670082092,0.07513637095689774
1780854584132990000,45.371989990234376,0.9815833568572998,-0.33276858925819397,0.4324922561645508
1780854584181506300,45.42050634765625,0.37545275688171387,-0.08300124853849411,0.07162389904260635
1780854584230022700,45.469022705078125,-0.17524182796478271,-0.7037925720214844,0.016416991129517555
1780854584278539000,45.5175390625,-0.3523162603378296,-1.0593922138214111,-0.7835868000984192
1780854584327055000,45.56605517578125,-1.1921026706695557,-0.4595230221748352,0.059864748269319534
1780854584375571500,45.614571533203126,-0.3620901107788086,-0.22204934060573578,-0.7724385261535645
1780854584424087800,45.663087890625,-0.39973464608192444,0.1876882016658783,0.205861434340477
1780854584472604200,45.711604248046875,0.014126247726380825,1.1196388006210327,-0.5003746151924133
1780854584521120500,45.76012060546875,0.3314704895019531,1.6574288606643677,-0.7825941443443298
1780854584569636600,45.80863671875,0.3898080885410309,1.5431971549987793,0.11033745110034943
1780854584618153200,45.8571533203125,0.38247770071029663,0.6958513259887695,0.5100721120834351
1780854584666669300,45.90566943359375,0.05528326332569122,0.4376846253871918,-0.9509637355804443
1780854584763702000,46.00270190429688,-0.7042507529258728,1.1155154705047607,-0.8617774844169617
1780854584812218400,46.05121826171875,0.7040216326713562,0.0013744457392022014,0.2805396616458893
1780854584860734500,46.099734375,0.6482039093971252,0.3026835024356842,-0.09376774728298187
1780854584909250800,46.14825073242187,0.6739365458488464,-0.47960519790649414,1.5829033851623535
1780854584957767200,46.19676708984375,-0.15172353386878967,0.30802857875823975,1.577405571937561
1780854585006283500,46.24528344726563,0.5620719790458679,-1.3064870834350586,0.9296598434448242
1780854585054800000,46.2937998046875,0.16569706797599792,-1.2039381265640259,1.3628393411636353
1780854585103316200,46.34231616210938,-0.6391936540603638,-0.7091376781463623,-0.7883210182189941
1780854585151832300,46.39083227539062,-0.45310893654823303,-0.7024181485176086,-1.0442733764648438
1780854585200348700,46.4393486328125,0.13446660339832306,-0.6133846044540405,-0.060781046748161316
1780854585248865000,46.48786499023438,0.7576250433921814,-0.25579962134361267,0.3043633699417114
1780854585297381400,46.53638134765625,0.5300015807151794,-0.17951788008213043,0.42248934507369995
1780854585345897500,46.5848974609375,0.1308777779340744,-0.7091376781463623,0.25465425848960876
1780854585394413800,46.63341381835937,-0.4676169753074646,-1.058781385421753,-0.6630173325538635
1780854585491446500,46.73044653320313,-0.44722938537597656,0.3004691004753113,-0.6728675365447998
1780854585539962600,46.77896264648437,0.010766491293907166,-0.5545888543128967,0.5416079759597778
1780854585588479000,46.82747900390625,-0.037720900028944016,0.8595631122589111,-0.027947064489126205
1780854585636995300,46.87599536132812,0.11171189695596695,1.3374884128570557,-1.2385283708572388
1780854585685511700,46.92451171875,0.28008151054382324,1.5400664806365967,-0.4787652790546417
1780854585734027800,46.97302783203125,0.3950004279613495,0.7569378018379211,0.1510363221168518
1780854585782544100,47.021544189453124,0.2605338394641876,0.11247547715902328,-0.27580544352531433
1780854585831060500,47.070060546875,0.026038112118840218,-0.07933606207370758,-1.1688133478164673
1780854585879576800,47.11857690429687,-0.955621600151062,1.3513092994689941,-1.1380411386489868
1780854585928093200,47.16709326171875,0.20273074507713318,0.9402735829353333,-0.018555017188191414
1780854585976609300,47.215609375,0.8904117941856384,0.06490438431501389,-0.12644900381565094
1780854586025125600,47.264125732421874,0.5576431751251221,-0.2182314395904541,1.7832670211791992
1780854586073642000,47.31264208984375,-0.47059494256973267,1.0138828754425049,2.2184317111968994
1780854586122158300,47.36115844726562,0.6508764028549194,-0.7205150127410889,1.0903172492980957
1780854586170674400,47.40967431640625,1.0701587200164795,-1.9394192695617676,1.091386318206787
1780854586219190800,47.45819067382813,-0.5333613157272339,-0.599334716796875,0.07971785217523575
1780854586267707100,47.50670703125,-0.7442623972892761,-0.7848085165023804,-1.4058289527893066
1780854586316223200,47.55522314453125,-0.283975750207901,-0.9127083420753479,-0.7021127343177795
1780854586364739600,47.60373950195312,0.6646972298622131,-0.7758746147155762,-0.14141519367694855
1780854586461772300,47.70077221679688,0.3467421233654022,-0.03145953640341759,0.16126830875873566
1780854586510288600,47.74928857421875,-0.08819360285997391,-0.8759037256240845,0.16241367161273956
1780854586558805000,47.79780493164063,-0.4834994673728943,-0.800385594367981,-0.6145299673080444
1780854586607321000,47.84632104492187,-1.0652718544006348,-0.15836669504642487,0.06635518372058868
1780854586655837400,47.89483740234375,-0.48998990654945374,0.10476330667734146,-0.6740893125534058
1780854586704353800,47.94335375976563,-0.4264599680900574,0.3061959743499756,-0.05589412897825241
1780854586752870000,47.99186987304687,-0.05520690605044365,1.2508983612060547,-0.7089085578918457
1780854586801386200,48.04038623046875,0.28932082653045654,1.8214460611343384,-0.9259182810783386
1780854586849902300,48.08890234375,0.23999349772930145,1.8345797061920166,0.3306305706501007
1780854586898419000,48.1374189453125,0.3701077103614807,0.5944477915763855,0.3174206018447876
1780854586995451400,48.234451416015624,-0.26656612753868103,0.34582582116127014,-1.2378411293029785
1780854587043967500,48.282967529296876,-1.0077741146087646,1.441946268081665,-1.0796271562576294
1780854587092484000,48.33148413085937,0.7234166264533997,0.17340923845767975,0.19364413619041443
1780854587141000200,48.380000244140625,0.8620828986167908,0.009850194677710533,0.2320522516965866
1780854587189516500,48.4285166015625,0.34834563732147217,-0.18257221579551697,1.5179226398468018
1780854587238032600,48.47703271484375,-0.2617555558681488,0.3707185685634613,1.7623448371887207
1780854587286549000,48.525549072265626,0.910952091217041,-1.697440505027771,1.0103703737258911
1780854587335065300,48.5740654296875,0.37171122431755066,-1.4861576557159424,1.147204041481018
1780854587383581400,48.62258154296875,-0.5891790986061096,-0.9984585046768188,-0.7101303339004517
1780854587432097800,48.67109790039063,-0.5199222564697266,-0.8659008145332336,-1.186299443244934
1780854587480614100,48.7196142578125,0.07628174126148224,-0.7748819589614868,0.23793183267116547
1780854587529130500,48.76813061523438,0.8632283210754395,-0.5427533388137817,0.27809619903564453
1780854587577646600,48.816646484375,0.939662754535675,-0.37026041746139526,0.1870773434638977
1780854587674679300,48.91367919921875,-0.08116865903139114,-1.0300707817077637,-0.8119156360626221
1780854587723195600,48.96219555664062,-0.8601739406585693,-0.966846227645874,0.04428769648075104
1780854587771711700,49.010711669921875,-0.7469348907470703,-0.03023780696094036,-0.1303432732820511
1780854587820228000,49.05922802734375,-0.06482802331447601,-0.5574141144752502,-0.3313177824020386
1780854587868744400,49.107744384765624,-0.2759581506252289,0.35789039731025696,0.12087486684322357
1780854587917260500,49.156260498046876,-0.018555017188191414,1.145676851272583,-0.6727911829948425
1780854587965777000,49.20477685546875,0.3196350038051605,1.3281728029251099,-0.5580250024795532
1780854588014293200,49.253293212890625,0.3482692837715149,0.787939190864563,0.3935496211051941
1780854588062809300,49.30180932617188,0.2831358313560486,0.34055712819099426,-0.023823726922273636
1780854588111325700,49.35032568359375,0.007024944759905338,0.19150610268115997,-1.2611303329467773
1780854588159842000,49.39884204101563,-0.6650790572166443,0.6256782412528992,-1.1814124584197998
1780854588208358100,49.44735815429687,-0.2525925934314728,1.0852012634277344,-0.1282816082239151
1780854588256874500,49.49587451171875,0.9527199864387512,0.022067490965127945,0.10537417232990265
1780854588305390800,49.54439086914063,0.6335431337356567,-0.09048434346914291,0.7529671788215637
1780854588353907000,49.59290698242187,-0.10102175921201706,0.3627009689807892,1.544037103652954
1780854588450939600,49.68993969726562,0.9208786487579346,-1.5331941843032837,1.2524255514144897
1780854588499455700,49.738455810546874,-0.06887500733137131,-0.9805143475532532,0.3638463318347931
1780854588547972000,49.78697216796875,-0.7139481902122498,-0.689513623714447,-1.4865394830703735
1780854588645004500,49.884004638671875,0.47357290983200073,-0.6745474338531494,0.46952593326568604
1780854588693521000,49.93252099609375,1.004338026046753,-0.32528549432754517,0.3597230017185211
1780854588742037000,49.981037109375,0.4436405599117279,-0.12270746380090714,-0.1366809904575348
1780854588790553600,50.0295537109375,-0.010613775812089443,-0.5138899683952332,-0.5773435831069946
1780854588839069700,50.07806958007812,-0.5176315307617188,-0.9795216917991638,-0.46776971220970154
1780854588887586000,50.1265859375,-1.1354448795318604,-0.12263110280036926,0.43715012073516846
1780854588936102100,50.17510205078125,-0.26618432998657227,0.1190422773361206,-0.35475972294807434
1780854588984618500,50.22361840820312,-0.12751802802085876,-0.1591302752494812,0.20861032605171204
1780854589033134800,50.272134765625,-0.002901607658714056,0.6414843797683716,-0.3413206934928894
1780854589081651000,50.32065087890625,0.11354449391365051,1.2718968391418457,-0.8533781170845032
1780854589130167000,50.3691669921875,0.16485713422298431,1.1943933963775635,-0.2724456787109375
1780854589178683400,50.417683349609376,0.16653701663017273,0.6388881802558899,0.29443681240081787
1780854589227199700,50.46619970703125,0.13614648580551147,0.16646064817905426,-0.9573014378547668
1780854589275715800,50.5147158203125,-0.5089266896247864,0.5128209590911865,-1.3561197519302368
1780854589324232200,50.56323217773438,-0.824896514415741,1.4842487573623657,-0.23541201651096344
1780854589372748500,50.61174853515625,0.9905936121940613,-0.07887791097164154,0.33689191937446594
1780854589421265000,50.66026489257813,0.8724676370620728,-0.16447533667087555,0.4133263826370239
1780854589469781000,50.70878100585937,0.07971785217523575,0.0951421856880188,1.2587631940841675
1780854589518297300,50.75729736328125,-0.19471314549446106,0.2577085793018341,1.5201369524002075
1780854589566813700,50.80581372070313,0.8287144303321838,-1.1218531131744385,1.3487894535064697
1780854589615329800,50.85432983398437,0.0691804364323616,-0.8917098641395569,1.057559609413147
1780854589663846100,50.90284619140625,-0.7254019379615784,-0.4292852282524109,-0.8774309158325195
1780854589712362500,50.95136254882812,-0.32765260338783264,-0.6351466774940491,-1.2527309656143188
1780854589760878600,50.999878662109374,0.24656029045581818,-0.6220130324363708,-0.22563818097114563
1780854589809394700,51.048394775390626,0.8156571984291077,-0.3517817556858063,0.27259841561317444
1780854589857911000,51.0969111328125,0.6922625303268433,-0.05871937796473503,0.684473991394043
1780854589906427400,51.145427490234376,-0.03711003437638283,-0.2887863218784332,0.2003636509180069
1780854589954943500,51.19394360351563,-0.09414953738451004,-1.4207950830459595,-1.2483022212982178
1780854590051976200,51.29097607421875,-0.6498073935508728,0.1360701322555542,-0.26167920231819153
1780854590100492500,51.33949243164062,-0.19532401859760284,-0.24892739951610565,-0.06444623321294785
1780854590149008600,51.388008544921874,-0.05306887626647949,0.7308996915817261,-0.35621052980422974
1780854590246041000,51.485041015625,0.23342670500278473,1.3654354810714722,0.03543015569448471
1780854590294557400,51.533557373046875,0.3401753306388855,0.7664825916290283,0.30512696504592896
1780854590343073500,51.58207348632813,0.20105087757110596,0.23021966218948364,-0.6335431337356567
1780854590391590000,51.63058984375,-0.12935061752796173,0.261526495218277,-1.2120320796966553
1780854590440106200,51.67910620117188,-0.8943824172019958,1.0209077596664429,-1.0991748571395874
1780854590488622300,51.72762231445312,0.3588830530643463,0.4930442273616791,0.1571449637413025
1780854590537138700,51.776138671875,0.7221949100494385,0.2237292230129242,-0.13423752784729004
1780854590585655000,51.82465502929688,0.377285361289978,0.17463096976280212,0.6601157784461975
1780854590634171100,51.87317114257812,-0.03940077871084213,0.35384342074394226,1.7345505952835083
1780854590682687500,51.9216875,0.10758855938911438,-0.33162322640419006,1.3687188625335693
1780854590731203600,51.97020361328125,0.8738420605659485,-1.3164899349212646,1.042517066001892
1780854590779719700,52.0187197265625,-0.11346813291311264,-0.7074577808380127,0.31230461597442627
1780854590828236000,52.067236083984376,-0.6154462695121765,-0.5588648915290833,-1.295109748840332
1780854590876752400,52.11575244140625,-0.1758527010679245,-0.6708058714866638,-0.5944477915763855
1780854590925268500,52.1642685546875,0.572151243686676,-0.6616429090499878,0.028863361105322838
1780854590973784800,52.21278491210938,0.733572244644165,-0.3358992636203766,0.15485422313213348
1780854591022301200,52.26130126953125,0.0524580143392086,0.07162389904260635,0.42531460523605347
1780854591070817300,52.3098173828125,-0.12026400119066238,-0.988455593585968,-0.3689623177051544
1780854591119333600,52.35833374023437,-0.42829257249832153,-1.2931244373321533,-0.4427242577075958
1780854591167849700,52.406849609375,-0.9580650329589844,-0.08582650125026703,0.2485456019639969
1780854591216366000,52.455365966796876,-0.14592032134532928,-0.495258629322052,-0.24480405449867249
1780854591264882400,52.50388232421875,-0.15928299725055695,-0.03390299528837204,-0.09941824525594711
1780854591313398500,52.5523984375,0.1530979871749878,0.9321032762527466,-0.6842449307441711
1780854591361915000,52.60091479492188,0.31497713923454285,1.3492475748062134,-0.5457313060760498
1780854591410431000,52.64943090820312,0.2833648920059204,0.7060832977294922,0.6743947267532349
1780854591458947300,52.697947265625,0.1118646115064621,0.31230461597442627,-0.15271618962287903
1780854591507463700,52.74646362304688,0.22754712402820587,0.04780016839504242,-1.6159664392471313
1780854591555979800,52.79497973632812,-0.349643737077713,0.5327504277229309,-1.3337469100952148
1780854591604496000,52.843495849609376,-0.5403099060058594,1.2328014373779297,-0.7082213759422302
1780854591653012200,52.89201220703125,0.858646810054779,-0.18677189946174622,0.7754928469657898
1780854591701528300,52.9405283203125,0.7748819589614868,-0.25503605604171753,0.9062942862510681
1780854591750044700,52.98904467773438,-0.14691297709941864,0.3012326955795288,1.7266093492507935
1780854591847077000,53.0860771484375,0.8097776174545288,-1.3947570323944092,1.2508219480514526
1780854591895593500,53.13459350585938,-0.32505643367767334,-0.6678279042243958,-0.19387321174144745
1780854591944109600,53.18310961914062,-0.6071232557296753,-0.6523272395133972,-1.3139700889587402
1780854591992626000,53.2316259765625,-0.29367324709892273,-0.5716930627822876,-0.32192572951316833
1780854592041142000,53.28014208984375,0.40981391072273254,-0.4114174246788025,0.2519817352294922
1780854592089658000,53.328658203125,0.81099933385849,-0.16073378920555115,0.508544921875
1780854592138174700,53.3771748046875,0.24266603589057922,-0.10903936624526978,-0.08277218043804169
1780854592186690800,53.42569091796875,-0.10285435616970062,-0.7134137153625488,-0.26213735342025757
1780854592235207000,53.47420703125,-0.5057196617126465,-0.8691841959953308,-0.3552178740501404
1780854592283723300,53.52272314453125,-1.0096831321716309,-0.11293362826108932,0.13477204740047455
1780854592332239600,53.57123950195312,-0.32826346158981323,-0.13240493834018707,-0.54962557554245
1780854592380755700,53.619755615234375,-0.3652207851409912,0.10575596243143082,0.003359756199643016
1780854592429271800,53.66827172851563,0.004352411720901728,0.9615775346755981,-0.6811906099319458
1780854592477788200,53.7167880859375,0.3324631452560425,1.143080711364746,-0.6072759628295898
1780854592526304500,53.765304443359376,0.2496146261692047,1.1026872396469116,0.2943604588508606
1780854592574820600,53.81382055664063,0.3081812858581543,0.48594292998313904,0.1773035079240799
1780854592623336700,53.86233666992187,0.11339177191257477,0.20418155193328857,-1.086804747581482
1780854592671853000,53.91085302734375,-0.3582721948623657,0.6391173005104065,-1.2122611999511719
1780854592720369400,53.95936938476562,-0.6401099562644958,1.5511384010314941,-0.7638100385665894
1780854592768885500,54.007885498046875,0.9482148289680481,0.10277800261974335,0.10254892706871033
1780854592817401900,54.05640185546875,0.7724385261535645,0.01107192412018776,0.4497492015361786
1780854592865918000,54.10491796875,0.18890993297100067,0.05688678100705147,1.6077960729599
1780854592914434300,54.153434326171876,-0.35475972294807434,0.5670352578163147,1.3481022119522095
1780854592962950400,54.20195043945313,0.9356157779693604,-1.4799726009368896,0.8565851449966431
1780854593011466800,54.250466796875,0.2929860055446625,-1.1012364625930786,1.0509928464889526
1780854593059983000,54.29898315429688,-0.8337540626525879,-0.3223838806152344,-0.7937424182891846
1780854593108499000,54.3474990234375,-0.5592467188835144,-0.45074185729026794,-0.9508110284805298
1780854593157015300,54.396015380859374,0.19562944769859314,-0.48273590207099915,0.20822852849960327
1780854593205531600,54.44453173828125,0.8988875150680542,-0.3181841969490051,0.1980729103088379
1780854593254048000,54.493048095703124,0.6323977708816528,-0.15141810476779938,0.1663079410791397
1780854593302564000,54.541564208984376,0.020922118797898293,-0.2473238706588745,-0.09162971377372742
1780854593351080200,54.590080078125,-0.11125374585390091,-1.107574224472046,-0.8497892618179321
1780854593448112600,54.687112548828125,-0.6540834903717041,0.2530507445335388,-0.06192641705274582
1780854593496629000,54.73562890625,-0.5196931958198547,-0.03329212963581085,-0.2853502035140991
1780854593545145000,54.78414501953125,-0.28901541233062744,0.45883581042289734,0.45364347100257874
1780854593593661400,54.832661376953126,0.2514472007751465,1.0603848695755005,-0.9986112117767334
1780854593642177800,54.881177734375,0.297872930765152,1.383150577545166,-1.0814597606658936
1780854593690694000,54.92969384765625,0.08338304609060287,1.1450660228729248,0.3094030022621155
1780854593739210000,54.9782099609375,0.03581194952130318,0.5794052481651306,-0.0409279391169548
1780854593787726300,55.02672631835937,0.061162836849689484,0.41645705699920654,-1.0034980773925781
1780854593836242400,55.075242431640625,-0.9741765856742859,1.483943223953247,-1.4335469007492065
1780854593884758800,55.1237587890625,0.06933315098285675,0.9314924478530884,0.10399972647428513
1780854593933275000,55.17227490234375,0.9229403138160706,0.07765618711709976,0.12805253267288208
1780854593981791200,55.220791259765626,0.5073995590209961,0.09361502528190613,0.8481857180595398
1780854594030307300,55.26930737304688,-0.12637265026569366,0.6420952677726746,2.0053927898406982
1780854594078823400,55.31782348632812,0.2949713170528412,-0.6893609166145325,1.5021164417266846
1780854594127339800,55.36633984375,0.8705586791038513,-1.4708096981048584,0.9582177400588989
1780854594175856000,55.41485620117187,-0.46021026372909546,-0.6946296095848083,-0.2089921087026596
1780854594224372200,55.463372314453125,-0.7587704062461853,-0.6039925217628479,-1.443168044090271
1780854594272888300,55.51188842773438,-0.1859319657087326,-0.7170025110244751,-0.39018988609313965
1780854594321404700,55.56040478515625,0.681801438331604,-0.6073523163795471,0.24266603589057922
1780854594369920800,55.608920654296874,1.0001384019851685,-0.3459021747112274,0.5832995176315308
1780854594418437000,55.65743701171875,0.08055779337882996,0.20250166952610016,0.37690356373786926
1780854594466953200,55.705953125,-0.019624030217528343,-0.8683443069458008,-0.7617483735084534
1780854594515469600,55.754469482421875,-0.26908594369888306,-1.0540472269058228,-0.8703296184539795
1780854594563985700,55.80298559570313,-0.9739475250244141,-0.1156061589717865,0.7330377101898193
1780854594612502000,55.851501953125,-0.4064541459083557,-0.17340923845767975,-0.6429351568222046
1780854594661018400,55.900018310546876,-0.49571678042411804,0.27053675055503845,0.11698060482740402
1780854594709534500,55.94853442382812,0.08315397053956985,0.9571487307548523,-0.4906007647514343
1780854594758050600,55.997050537109374,0.27030766010284424,1.317482590675354,-1.0499238967895508
1780854594806566700,56.045566650390626,0.16012293100357056,1.4008656740188599,-0.02932151034474373
1780854594855083000,56.0940830078125,0.06666062027215958,0.6925679445266724,0.31841325759887695
1780854594903599400,56.142599365234375,-0.029016077518463135,0.3995819091796875,-0.9036980867385864
1780854594952115500,56.19111547851563,-0.3998109996318817,0.7641154527664185,-1.5251766443252563
1780854595049148000,56.28814794921875,0.9862411618232727,-0.29474225640296936,0.38499751687049866
1780854595097664300,56.33666430664063,0.9908990263938904,-0.34376415610313416,0.601396381855011
1780854595146180400,56.38518041992187,0.019471315667033195,0.23014330863952637,2.077322006225586
1780854595194696400,56.433696533203126,-0.3635408878326416,0.3701077103614807,1.9834015369415283
1780854595243212500,56.48221264648438,1.2691479921340942,-1.7919718027114868,0.41408994793891907
1780854595291729200,56.530729248046875,0.0766635313630104,-1.0210604667663574,0.32100942730903625
1780854595340245000,56.579244873046875,-0.8575778007507324,-0.3000873327255249,-0.7008909583091736
1780854595388761300,56.62776123046875,-0.4600575268268585,-0.4376846253871918,-0.5524508357048035
1780854595485793800,56.724793701171876,0.9721912741661072,-0.3208567202091217,0.11988221108913422
1780854595534310000,56.77330981445313,0.6714931130409241,-0.22044582664966583,0.15615230798721313
1780854595582826200,56.821826171875,-0.1969275325536728,0.03894263133406639,0.0602465383708477
1780854595631342300,56.87034228515625,0.12163844704627991,-1.5587742328643799,-1.3258056640625
1780854595679858700,56.91885864257812,-1.160719394683838,-0.610559344291687,1.0931425094604492
1780854595728374800,56.967374755859375,-1.0344995260238647,-0.031230462715029716,-0.49082985520362854
1780854595776891000,57.01589086914063,-0.607886791229248,0.20288346707820892,-0.3329212963581085
1780854595825407200,57.0644072265625,0.03535379841923714,1.0672571659088135,-0.12202023714780807
1780854595873923300,57.11292333984375,0.3533852696418762,1.6074906587600708,-0.8662062287330627
1780854595922439700,57.16143969726563,0.3360520005226135,1.6296344995498657,0
1780854595970955800,57.20995581054687,0.10842850059270859,0.8596394658088684,0.3237583339214325
1780854596019472100,57.25847216796875,-0.025274530053138733,0.40141451358795166,-0.9862411618232727
1780854596067988200,57.30698828125,-0.478841632604599,0.640720784664154,-1.4043781757354736
1780854596165020700,57.40402075195313,0.9298125505447388,0.2401462197303772,0.45387253165245056
1780854596213537000,57.452537109375,0.9984585046768188,0.22953243553638458,0.06597339361906052
1780854596262052900,57.501052978515624,0.7455604672431946,-0.39332056045532227,1.6649882793426514
1780854596310569200,57.5495693359375,-0.07078395783901215,0.3857611119747162,2.1423027515411377
1780854596359085300,57.59808520507813,0.5621483325958252,-1.4608831405639648,0.910952091217041
1780854596407601700,57.6466015625,-0.015500693581998348,-1.203098177909851,0.47372564673423767
1780854596456117800,57.69511767578125,-0.6080395579338074,-0.6352230310440063,-0.7554870247840881
1780854596504634000,57.74363403320312,-0.4030180275440216,-0.6072759628295898,-0.8600975871086121
1780854596601666300,57.84066625976563,0.839099109172821,-0.18929173052310944,0.05253437161445618
1780854596650182700,57.8891826171875,0.6087267398834229,0.10071633011102676,0.2658788859844208
1780854596698698800,57.93769873046875,0.03168861195445061,0.0031306820455938578,0.36224281787872314
1780854596747214800,57.98621484375,-0.13179408013820648,-0.7830522656440735,-0.8495602011680603
1780854596795731200,58.03473120117187,-0.693026065826416,-0.6650790572166443,-0.26473352313041687
1780854596844247600,58.08324755859375,-1.019762396812439,0.5539016127586365,0.4855611324310303
1780854596892763600,58.131763671875,-0.3399462401866913,-0.014813470654189587,-0.6811906099319458
1780854596941279700,58.18027978515625,-0.3378845751285553,0.5401571989059448,-0.19204062223434448
1780854596989796000,58.228796142578126,0.019929463043808937,1.5473968982696533,-0.7632755637168884
1780854597038312200,58.27731225585938,0.27053675055503845,1.5873321294784546,-0.2162461280822754
1780854597086828300,58.32582836914062,0.1839466542005539,0.8721621632575989,0.2874118685722351
1780854597135344400,58.374344482421876,0.07918334752321243,0.6766854524612427,-0.3828594982624054
1780854597183860700,58.42286083984375,0.006185005884617567,0.3614792227745056,-1.1745402812957764
1780854597232377000,58.471377197265625,-0.7662535309791565,1.036942958831787,-1.1619411706924438
1780854597280893200,58.51989306640625,-0.35216355323791504,1.170493245124817,-0.44784024357795715
1780854597329409500,58.56840942382812,1.2663990259170532,-0.11804962158203125,0.19036073982715607
1780854597377925600,58.616925537109374,0.7392227649688721,0.11804962158203125,0.6543889045715332
1780854597426441700,58.665441650390626,-0.083306685090065,0.624456524848938,1.8813871145248413
1780854597474957800,58.71395776367188,-0.03260490670800209,0.08666644245386124,1.8292346000671387
1780854597523474200,58.76247412109375,1.0509928464889526,-1.711337685585022,0.367053359746933
1780854597571990300,58.810990234375,-0.2360992431640625,-0.8514691591262817,0.3741546869277954
1780854597669022700,58.908022705078125,-0.28092142939567566,-0.6287325620651245,-0.61827152967453
1780854597717539000,58.9565390625,0.4961749315261841,-0.6039925217628479,0.12133301794528961
1780854597766055200,59.00505517578125,0.9543235301971436,-0.25931209325790405,0.3701077103614807
1780854597814571300,59.0535712890625,0.3228420317173004,-0.10415244847536087,0.14294235408306122
1780854597863087600,59.10208764648438,-0.1265253722667694,-0.5586358308792114,0.1052214577794075
1780854597911603700,59.15060375976562,-0.1715002804994583,-1.1682789325714111,-0.9523382186889648
1780854597960119800,59.199119873046875,-1.4330123662948608,-0.31291547417640686,0.8416953086853027
1780854598008636000,59.24763598632813,-0.8601739406585693,0.31871870160102844,-0.8129082918167114
1780854598057152300,59.29615234375,-0.3712530732154846,0.42012226581573486,-0.3205513060092926
1780854598105668600,59.34466870117188,0.15691588819026947,1.293887972831726,-0.5473348498344421
1780854598202700500,59.44170043945312,0.14996729791164398,1.7353904247283936,0.2599993348121643
1780854598251217200,59.490217041015626,0.1467602699995041,0.8248201608657837,0.19379685819149017
1780854598299733200,59.53873315429688,0.06062832847237587,0.3075704276561737,-1.3510801792144775
1780854598348249300,59.58724926757812,-0.49777844548225403,0.8730021119117737,-1.3347395658493042
1780854598396765400,59.635765380859375,-0.7367792725563049,1.4073561429977417,-0.678288996219635
1780854598445281500,59.68428149414063,1.0441206693649292,-0.0012980876490473747,0.08689551800489426
1780854598493798000,59.7327978515625,0.9934188723564148,-0.13332124054431915,0.4560105502605438
1780854598542314000,59.78131396484375,0.15187625586986542,-0.02328922040760517,1.5979459285736084
1780854598590830000,59.829830078125,-0.2098320573568344,0.3926333487033844,1.740964651107788
1780854598639346400,59.878346435546874,1.2037854194641113,-1.6946152448654175,0.9498947262763977
1780854598687862800,59.92686279296875,0.1853974610567093,-1.2183698415756226,0.9097303748130798
1780854598736379000,59.97537890625,-0.825507402420044,-0.25243985652923584,-0.826958179473877
1780854598784895000,60.02389501953125,-0.12163844704627991,-0.8294780254364014,-1.1425461769104004
1780854598833411000,60.0724111328125,0.20456334948539734,-0.6808087825775146,0.0461202897131443
1780854598881927400,60.12092749023437,0.9359211921691895,-0.3900371491909027,0.37804892659187317
1780854598930443500,60.169443603515624,0.6643154621124268,-0.23648102581501007,0.26427537202835083
1780854598978960100,60.21796020507813,-0.05062541738152504,-0.060551971197128296,-0.2503018379211426
1780854599027476000,60.26647607421875,-0.002901607658714056,-1.505858063697815,-1.2260055541992188
1780854599075992000,60.314991943359374,-1.00998854637146,-0.8584177494049072,0.6436223983764648
1780854599124508200,60.363508056640626,-0.8522327542304993,-0.07383827865123749,0.3125337064266205
1780854599173024500,60.4120244140625,-0.45799586176872253,-0.416304349899292,-0.4575377106666565
1780854599221540600,60.46054052734375,-0.10697769373655319,0.30512696504592896,-0.06765327602624893
1780854599270056700,60.509056640625,0.23182319104671478,1.3979640007019043,-0.8452841639518738
1780854599318573000,60.55757299804687,0.2666424810886383,1.6054290533065796,0.04558578506112099
1780854599367089400,60.60608935546875,0.13271036744117737,0.9098830819129944,0.63568115234375
1780854599415605200,60.65460522460938,0.04589121788740158,0.5564214587211609,-0.9844086170196533
1780854599464121600,60.70312158203125,0.06772962957620621,0.41325002908706665,-1.6197079420089722
1780854599512637700,60.7516376953125,-0.9776890873908997,1.6281073093414307,-1.2910627126693726
1780854599561154000,60.80015405273438,0.5391645431518555,0.374765545129776,0.3269653618335724
1780854599609670100,60.84867016601562,0.8756746649742126,0.1037706509232521,0.0034361144062131643
1780854599706702600,60.94570263671875,-0.261526495218277,0.5902481079101562,2.1673481464385986
1780854599755218700,60.99421875,0.8138245940208435,-1.511737585067749,1.1280381679534912
1780854599803734800,61.04273486328125,0.5438223481178284,-1.3461933135986328,0.6823359727859497
1780854599852251000,61.0912509765625,-0.767551600933075,-0.6060542464256287,-0.5404626131057739
1780854599900767000,61.13976708984375,-0.5704713463783264,-0.7396808862686157,-0.8807142972946167
1780854599949283300,61.188283447265626,0.039477135986089706,-0.6897426843643188,0.0665842592716217
1780854599997799400,61.23679931640625,0.7411317229270935,-0.4607447683811188,0.18486295640468597
1780854600046315500,61.2853154296875,0.754570722579956,-0.2585485279560089,0.21410810947418213
1780854600143348000,61.38234790039063,-0.2326631247997284,-0.8884264826774597,-1.0349576473236084
1780854600191864300,61.4308642578125,-0.7825941443443298,-0.7329613566398621,-0.1960112303495407
1780854600240380400,61.47938037109375,-0.9222530722618103,0.3848448097705841,0.5344303250312805
1780854600288896500,61.527896484375,-0.17486004531383514,-0.18547381460666656,-0.5771908760070801
1780854600337412600,61.57641259765625,-0.2623664140701294,0.36919140815734863,0.14256057143211365
1780854600385929000,61.624928955078126,0.024281874299049377,0.9222530722618103,-0.5720748901367188
1780854600434445000,61.67344506835938,0.19165882468223572,1.2380702495574951,-1.1687370538711548
1780854600482961200,61.72196118164062,0.19837833940982819,1.1701878309249878,0.6500364542007446
1780854600531477500,61.7704775390625,0.17172935605049133,0.48296496272087097,0.2540434002876282
1780854600579993600,61.81899365234375,0.05451968312263489,0.21281002461910248,-1.1422407627105713
1780854600628509700,61.867509765625,-0.6956222653388977,0.851545512676239,-1.5889356136322021
1780854600677026000,61.916026123046876,-0.23747368156909943,1.1152100563049316,-0.23655737936496735
1780854600725542100,61.96454223632813,1.281441569328308,-0.152487114071846,-0.02741255611181259
1780854600774058200,62.01305834960937,0.9235512018203735,-0.284586638212204,0.7268527150154114
1780854600822574300,62.06157421875,-0.07528908550739288,0.39194610714912415,1.9124648571014404
1780854600871090400,62.11009033203125,0.025503603741526604,0.1089630052447319,1.8965823650360107
1780854600919606800,62.15860668945312,0.8080213665962219,-1.4894410371780396,0.7225003242492676
1780854600968123000,62.207122802734375,-0.21945317089557648,-0.7692314982414246,0.28550294041633606
1780854601016639000,62.25563891601563,-0.7245619893074036,-0.6030762791633606,-0.9233221411705017
1780854601065155300,62.3041552734375,-0.3767508566379547,-0.5894845128059387,-0.6630937457084656
1780854601113671400,62.35267138671875,0.37461283802986145,-0.5065596103668213,0.16355904936790466
1780854601162187500,62.4011875,0.8628464937210083,-0.21342088282108307,0.3698022663593292
1780854601210703600,62.44970361328125,0.38843363523483276,-0.06536252796649933,-0.010766491293907166
1780854601307736000,62.54673608398438,-0.3539961278438568,-0.9211077094078064,-0.6515636444091797
1780854601356252200,62.59525219726562,-1.2914445400238037,-0.29397866129875183,0.10957387089729309
1780854601404768300,62.643768310546875,-0.5233584046363831,0.1513417512178421,-0.6563742160797119
1780854601453284600,62.69228466796875,-0.397825688123703,0.14698933064937592,-0.27809619903564453
1780854601501800700,62.74080078125,-0.1562286615371704,1.172020435333252,-0.6509527564048767
1780854601550316800,62.78931689453125,0.15470150113105774,1.7200424671173096,-0.8025999665260315
1780854601598833200,62.83783325195313,0.3197877109050751,1.4518728256225586,0.06375901401042938
1780854601647349200,62.88634936523437,0.2652680277824402,0.8132901191711426,0.48647743463516235
1780854601695865300,62.934865234375,0.0951421856880188,0.25641047954559326,-0.784426748752594
1780854601744381400,62.98338134765625,-0.030466880649328232,0.2274707704782486,-1.2722022533416748
1780854601792897500,63.0318974609375,-0.9890664219856262,1.3671917915344238,-1.0699297189712524
1780854601841414000,63.080413818359375,0.4912116527557373,0.41760244965553284,0.06765327602624893
1780854601889930000,63.12892993164063,1.1892009973526,-0.15935935080051422,0.05100720748305321
