time,seconds_elapsed,z,y,x
1780854539015709700,0.254709716796875,0.3397808074951172,-9.920642852783203,-0.8925228714942932
1780854539093530400,0.3325302734375,0.36729827523231506,-9.883553504943848,-0.8733802437782288
1780854539152914700,0.391914794921875,0.35533416271209717,-9.906285285949707,-0.8554341197013855
1780854539251888600,0.490888671875,0.36729827523231506,-9.91107177734375,-0.8315058946609497
1780854539349781500,0.588781494140625,0.3481557071208954,-9.91107177734375,-0.7992027401924133
1780854539446814700,0.685814697265625,0.3565305769443512,-9.927821159362793,-0.8159525394439697
1780854539543848400,0.782848388671875,0.4426721930503845,-9.897911071777344,-0.7573283910751343
1780854539640881700,0.879881591796875,0.397208571434021,-9.89432144165039,-0.7836494445800781
1780854539699101700,0.938101806640625,0.2919243574142456,-9.927821159362793,-0.8566305041313171
1780854539796135200,1.03513525390625,0.29431718587875366,-9.919445991516113,-0.8327022790908813
1780854539893168400,1.13216845703125,0.31824541091918945,-9.90269660949707,-0.8219345808029175
1780854539990201900,1.229201904296875,0.259621262550354,-9.93978500366211,-0.8781659007072449
1780854540048422000,1.287421875,0.21655045449733734,-9.91107177734375,-0.8769695162773132
1780854540145455000,1.384455078125,0.1495514214038849,-10.003194808959961,-0.9858429431915283
1780854540242488600,1.481488525390625,0.24047867953777313,-9.850054740905762,-1.01814603805542
1780854540339522000,1.57852197265625,-0.029910283163189888,-9.755537986755371,-1.1976077556610107
1780854540397742000,1.6367421875,0.040677983313798904,-9.9469633102417,-1.1306086778640747
1780854540494775300,1.733775390625,0.3409772217273712,-9.913464546203613,-1.1162517070770264
1780854540591808800,1.830808837890625,0.4043870270252228,-9.578469276428223,-1.2131611108779907
1780854540688842000,1.927842041015625,-0.36251261830329895,-9.372686386108398,-1.6402798891067505
1780854540747062000,1.98606201171875,0.10887342691421509,-9.689735412597656,-0.4342973232269287
1780854540844095500,2.083095458984375,0.8315058946609497,-10.784451484680176,-1.7096717357635498
1780854540941129000,2.18012890625,-0.5670989751815796,-9.774680137634277,-0.9332008361816406
1780854540999349000,2.238348876953125,1.7802600860595703,-9.6466646194458,-0.9236295223236084
1780854541096382200,2.33538232421875,0.9463613629341125,-11.507083892822266,-0.849452018737793
1780854541193415700,2.432415771484375,1.5852450132369995,-8.769695281982422,-0.3086741268634796
1780854541290449000,2.529448974609375,1.5170495510101318,-10.415956497192383,-0.9128618240356445
1780854541348669000,2.5876689453125,2.2648067474365234,-11.233105659484863,-1.3938192129135132
1780854541445702400,2.684702392578125,1.5960127115249634,-11.519047737121582,-0.7501499056816101
1780854541542735600,2.781735595703125,-0.0729810893535614,-7.7180495262146,-1.5481562614440918
1780854541639769000,2.87876904296875,-0.2225325107574463,-11.492727279663086,0.9822536706924438
1780854541697989000,2.936989013671875,0.003589233849197626,-10.419546127319336,0.623330295085907
1780854541795022600,3.034022705078125,2.0027925968170166,-8.662017822265625,-0.5742774605751038
1780854541892055800,3.131055908203125,1.1365907192230225,-8.067401885986328,-1.4141582250595093
1780854541989089300,3.22808935546875,4.0833516120910645,-9.391828536987305,0.973878800868988
1780854542047309300,3.286309326171875,3.266202926635742,-11.670992851257324,1.475175142288208
1780854542144342500,3.383342529296875,-0.7920243144035339,-14.662020683288574,-3.0927233695983887
1780854542241376000,3.4803759765625,0.9906286001205444,-9.621540069580078,-0.6783652305603027
1780854542338409200,3.5774091796875,0.8769695162773132,-8.608179092407227,-1.820937991142273
1780854542396629200,3.635629150390625,2.2121646404266357,-8.400003433227539,-1.3076776266098022
1780854542493662700,3.732662841796875,1.1258230209350586,-8.714659690856934,0.36251261830329895
1780854542590696200,3.8296962890625,1.1509476900100708,-8.358129501342773,1.171286702156067
1780854542648916200,3.887916259765625,2.5399811267852783,-8.401200294494629,0.6436693072319031
1780854542745949400,3.984949462890625,3.1310083866119385,-10.776076316833496,-2.5220351219177246
1780854542842983000,4.08198291015625,1.0408778190612793,-12.994223594665527,2.6213371753692627
1780854542940016000,4.17901611328125,0.9320043921470642,-7.738388538360596,-3.263810157775879
1780854542998236200,4.237236083984375,0.19621145725250244,-13.925031661987305,1.4799607992172241
1780854543095269400,4.334269287109375,0.973878800868988,-8.087740898132324,-1.4189438819885254
1780854543192302800,4.431302734375,1.534995675086975,-7.512266635894775,-1.2813565731048584
1780854543289336000,4.528336181640625,3.5030922889709473,-7.767102241516113,2.8115665912628174
1780854543347556000,4.58655615234375,3.146561861038208,-12.713067054748535,0.6161518096923828
1780854543444589600,4.683589599609375,0.5108676552772522,-15.27458381652832,-0.9786644577980042
1780854543541622800,4.780622802734375,1.4536397457122803,-11.212766647338867,-1.222732424736023
1780854543638656300,4.87765625,0.37088751792907715,-7.9489569664001465,-2.6847469806671143
1780854543696876000,4.9358759765625,2.9288148880004883,-8.049455642700195,0.08733802288770676
1780854543793909500,5.032909423828125,0.12083754688501358,-9.548559188842773,1.6187444925308228
1780854543890943000,5.12994287109375,2.724228620529175,-8.163114547729492,1.022931694984436
1780854543949163000,5.1881630859375,4.433900356292725,-10.905289649963379,-3.9876389503479004
1780854544046196500,5.285196533203125,2.152343988418579,-14.249258995056152,2.1056840419769287
1780854544143229700,5.382229736328125,0.18424734473228455,-6.597012042999268,-0.7537391185760498
1780854544240263200,5.47926318359375,-0.029910283163189888,-11.248659133911133,1.9860427379608154
1780854544298483000,5.53748291015625,-0.5455635786056519,-8.874979019165039,-1.0791629552841187
1780854544395516400,5.634516357421875,2.462214469909668,-6.544369697570801,-0.6448656916618347
1780854544492549600,5.731549560546875,3.315255880355835,-8.256434440612793,2.7493531703948975
1780854544589583000,5.8285830078125,4.7126641273498535,-12.601800918579102,4.380061626434326
1780854544647803100,5.88680322265625,1.23589289188385,-14.020744323730469,-1.1820544004440308
1780854544744836400,5.98383642578125,1.0133603811264038,-11.359925270080566,-0.5252245664596558
1780854544841869800,6.080869873046875,0.04426721855998039,-7.706085205078125,-3.078366279602051
1780854544938903000,6.177903076171875,2.2851455211639404,-6.577869415283203,0.672383189201355
1780854544997123000,6.236123046875,-0.6305087804794312,-9.284152030944824,1.545763373374939
1780854545094156300,6.33315625,2.5914268493652344,-10.645668029785156,-0.7561319470405579
1780854545191189800,6.430189697265625,2.210968017578125,-13.006187438964844,-1.5302101373672485
1780854545288223000,6.527222900390625,-0.3409772217273712,-9.760323524475098,1.5996019840240479
1780854545346443000,6.585443115234375,1.1377872228622437,-7.782655715942383,-2.389233350753784
1780854545443476200,6.682476318359375,-1.3674981594085693,-10.955538749694824,2.451446771621704
1780854545540509400,6.779509521484375,4.230510234832764,-6.118447303771973,-1.911865234375
1780854545598729500,6.8377294921875,1.7874385118484497,-6.307480335235596,-2.200200319290161
1780854545695762700,6.9347626953125,3.5341989994049072,-10.152746200561523,2.994617462158203
1780854545792796200,7.031796142578125,4.930410861968994,-13.255041122436523,3.6167514324188232
1780854545889829400,7.128829345703125,0.2584248483181,-6.369693756103516,-3.3104701042175293
1780854545948049400,7.18704931640625,0.6185446381568909,-13.992030143737793,-0.13639089465141296
1780854546045083000,7.284082763671875,1.7431713342666626,-7.685746192932129,-1.9154545068740845
1780854546142116000,7.3811162109375,1.8532410860061646,-6.667600154876709,0.7692924737930298
1780854546239149600,7.478149658203125,2.8761727809906006,-8.397610664367676,0.7286145091056824
1780854546297369600,7.53636962890625,4.832305431365967,-10.163514137268066,-1.7730815410614014
1780854546394402800,7.63340283203125,1.4093725681304932,-14.385649681091309,1.7024933099746704
1780854546491436000,7.73043603515625,1.164108157157898,-5.710471153259277,-1.9250258207321167
1780854546588469500,7.827469482421875,-1.8340985774993896,-11.235498428344727,3.0101709365844727
1780854546646689300,7.885689208984375,-1.0827522277832031,-7.859225749969482,-1.1078768968582153
1780854546743722500,7.982722412109375,3.6131622791290283,-6.2871413230896,-1.1545369625091553
1780854546840756000,8.079755859375,3.9110686779022217,-10.247262954711914,3.3547372817993164
1780854546898976000,8.13797607421875,4.328616142272949,-15.278172492980957,2.455035924911499
1780854546996009200,8.23500927734375,0.11724831163883209,-10.595418930053711,-5.272584915161133
1780854547093042400,8.33204248046875,0.2069791555404663,-13.568500518798828,-2.045863389968872
1780854547190076000,8.429075927734376,1.8161523342132568,-7.642675399780273,-1.077966570854187
1780854547248296000,8.4872958984375,3.2889347076416016,-5.830112457275391,0.04905286431312561
1780854547345329200,8.5843291015625,0.3326023519039154,-9.749555587768555,1.1114661693572998
1780854547442362400,8.6813623046875,6.193821430206299,-8.623732566833496,-1.2502498626708984
1780854547539395600,8.7783955078125,0.8422735929489136,-13.596017837524414,1.7336000204086304
1780854547597615600,8.83661572265625,-0.2189432680606842,-7.779066562652588,0.12442677468061447
1780854547694648800,8.93364892578125,-0.1663011759519577,-16.40519142150879,2.0267207622528076
1780854547791682300,9.030682373046876,1.1832507848739624,-7.856832981109619,-1.1820544004440308
1780854547888715500,9.127715576171875,1.6785650253295898,-5.764309883117676,-2.438286304473877
1780854547946935300,9.185935302734375,5.419743061065674,-4.8813581466674805,0.898504912853241
1780854548043968800,9.28296875,3.865604877471924,-12.224930763244629,1.7132610082626343
1780854548141002000,9.380001953125,-1.430907964706421,-12.945170402526855,-7.03489875793457
1780854548199222000,9.438221923828126,0.0933200865983963,-7.427321434020996,0.9702895879745483
1780854548296255200,9.535255126953125,-0.1950150430202484,-8.151150703430176,-3.8213376998901367
1780854548393288700,9.632288818359376,3.229114055633545,-6.284748554229736,0.4259224236011505
1780854548490321700,9.72932177734375,0.4259224236011505,-9.005388259887695,1.459621787071228
1780854548548541700,9.787541748046875,1.5780665874481201,-9.883553504943848,-0.5359922647476196
1780854548645575200,9.8845751953125,3.040081262588501,-13.99083423614502,-0.1543370634317398
1780854548742608400,9.9816083984375,-1.0193424224853516,-9.376275062561035,0.058624155819416046
1780854548839641600,10.0786416015625,1.4979069232940674,-13.969298362731934,-1.2011969089508057
1780854548897861600,10.136861572265625,-2.20737886428833,-10.99860954284668,4.2006001472473145
1780854548994894800,10.233894775390626,3.7698919773101807,-6.364908218383789,-1.97407865524292
1780854549091928000,10.330927978515625,3.737588882446289,-5.588437080383301,-0.014356935396790504
1780854549188961500,10.42796142578125,2.550748825073242,-14.934802055358887,0.5312066078186035
1780854549247181300,10.486181396484374,4.549952030181885,-16.305889129638672,3.1992039680480957
1780854549344214500,10.583214599609375,1.6689938306808472,-6.628118515014648,-0.3026920557022095
1780854549441248000,10.680248046875,-1.0049854516983032,-7.867600917816162,-2.6368906497955322
1780854549499467800,10.7384677734375,3.950550079345703,-7.774280548095703,-0.8027920126914978
1780854549596501000,10.8355009765625,-1.3902299404144287,-8.62732219696045,0.9296116232872009
1780854549693534200,10.9325341796875,3.4061830043792725,-8.475378036499023,0.9032905697822571
1780854549790567700,11.029567626953124,4.351347923278809,-12.533604621887207,-1.887937068939209
1780854549848787500,11.087787353515624,2.282752752304077,-13.682159423828125,2.297109842300415
1780854549945820700,11.184820556640625,0.6209374666213989,-7.472784996032715,-2.9838497638702393
1780854550042854100,11.281854248046875,-1.7204394340515137,-12.265608787536621,5.547759532928467
1780854550139887400,11.378887451171876,3.3511481285095215,-6.885347366333008,-1.789831280708313
1780854550198107100,11.437107177734376,1.672582983970642,-5.787041664123535,-2.093719720840454
1780854550295140400,11.534140380859375,0.5575276613235474,-10.831111907958984,3.700500249862671
1780854550392173600,11.631173583984374,6.516852378845215,-12.882957458496094,5.093122959136963
1780854550489206800,11.728206787109375,-1.2287144660949707,-10.168299674987793,-3.1489546298980713
1780854550547426800,11.7864267578125,1.373480200767517,-11.863615036010742,-1.4524433612823486
1780854550644460000,11.8834599609375,2.2707886695861816,-7.3292155265808105,-1.3722838163375854
1780854550741493200,11.9804931640625,-0.7214360237121582,-8.553144454956055,1.089930772781372
1780854550799713300,12.03871337890625,1.3926228284835815,-9.614361763000488,1.0971091985702515
1780854550896746500,12.13574658203125,6.385247230529785,-9.189635276794434,-1.5828521251678467
1780854550993779700,12.23277978515625,1.3387842178344727,-14.249258995056152,0.6580262184143066
1780854551090813000,12.32981298828125,1.7718851566314697,-6.675975322723389,-2.139183521270752
1780854551149033000,12.388032958984375,0.02512463741004467,-15.970894813537598,0.04307080805301666
1780854551246066200,12.485066162109375,1.179661512374878,-8.055437088012695,-0.16390834748744965
1780854551343099400,12.582099365234376,1.9872392416000366,-5.691328525543213,-2.094916343688965
1780854551401319200,12.640319091796876,4.059423446655273,-5.599205017089844,0.4977070987224579
1780854551498352400,12.737352294921875,4.4243292808532715,-13.98365592956543,1.6606189012527466
1780854551595385600,12.834385498046874,-0.5778666734695435,-13.927424430847168,-4.922036170959473
1780854551692418800,12.931418701171875,1.6163517236709595,-11.399407386779785,0.11246266216039658
1780854551750638800,12.989638916015625,-0.09092725813388824,-9.525827407836914,-3.902693748474121
1780854551847672000,13.086672119140625,3.297309637069702,-7.2813591957092285,0.5970092415809631
1780854551944705300,13.183705322265626,0.5024927258491516,-9.594022750854492,1.428515076637268
1780854552041738500,13.280738525390625,2.7529425621032715,-10.242477416992188,-2.2851455211639404
1780854552099958300,13.338958251953125,4.015156269073486,-12.201003074645996,-1.2442678213119507
1780854552196991500,13.435991455078126,0.4570291340351105,-10.597811698913574,2.111665964126587
1780854552294024700,13.533024658203125,0.8446664214134216,-13.462019920349121,-2.6500511169433594
1780854552391058000,13.630057861328124,-1.4464613199234009,-9.245866775512695,2.0243279933929443
1780854552449278000,13.68827783203125,2.3916261196136475,-7.083951473236084,-1.7324036359786987
1780854552546311200,13.785311279296875,1.9106688499450684,-6.441478729248047,-0.9391828775405884
1780854552643344400,13.882344482421875,2.638087034225464,-14.178670883178711,1.3028919696807861
1780854552701564200,13.940564208984375,5.234299659729004,-12.111271858215332,3.201596736907959
1780854552798597400,14.037597412109376,-1.4919248819351196,-7.775477409362793,-3.3056845664978027
1780854552895630600,14.134630615234375,0.3158525824546814,-11.643474578857422,-4.121636867523193
1780854552992663800,14.231663818359374,2.526820659637451,-7.304090976715088,0.3194418251514435
1780854553050883600,14.289883544921874,0.6340979933738708,-7.9250288009643555,0.8422735929489136
1780854553147916800,14.386916748046875,2.9312076568603516,-8.286344528198242,1.6821542978286743
1780854553244950000,14.483949951171875,5.67338228225708,-10.628918647766113,-1.521835207939148
1780854553341983200,14.580983154296876,0.6532405614852905,-11.228320121765137,2.338984251022339
1780854553400203000,14.639203125,-0.05503492057323456,-8.648857116699219,-2.909672260284424
1780854553497236200,14.736236328125,-0.4450650215148926,-11.96172046661377,4.145565032958984
1780854553594269400,14.83326953125,2.737389087677002,-6.55992317199707,-2.389233350753784
1780854553652489500,14.891489501953124,2.775674343109131,-5.44008207321167,-2.8737800121307373
1780854553749522700,14.988522705078125,0.5276173949241638,-12.297911643981934,3.198007345199585
1780854553846555600,15.0855556640625,6.5252275466918945,-11.300105094909668,4.575077056884766
1780854553943588900,15.1825888671875,-2.1032910346984863,-8.689535140991211,-3.0652058124542236
1780854554001809000,15.240808837890626,1.8987047672271729,-11.93898868560791,-1.0301101207733154
1780854554098841900,15.337841796875,1.0923235416412354,-8.717052459716797,-1.3782658576965332
1780854554195875300,15.434875244140626,1.0456634759902954,-7.289734363555908,0.40319061279296875
1780854554292908300,15.531908203125,2.410768747329712,-8.030312538146973,1.6175481081008911
1780854554351128300,15.59012841796875,2.9144580364227295,-9.402596473693848,-1.0791629552841187
1780854554448161300,15.687161376953124,1.3423734903335571,-13.39143180847168,1.9202401638031006
1780854554545194800,15.78419482421875,-0.7585247755050659,-7.786244869232178,-2.1822543144226074
1780854554603414500,15.84241455078125,0.9619147181510925,-14.616557121276855,-1.7288143634796143
1780854554700447700,15.93944775390625,-1.1162517070770264,-8.992227554321289,1.490728497505188
1780854554797481000,16.03648095703125,3.7256247997283936,-6.216553211212158,-2.3545374870300293
1780854554894514000,16.133513916015627,2.1403799057006836,-8.57468032836914,4.796412944793701
1780854554952734000,16.19173388671875,3.201596736907959,-13.190434455871582,0.05623133108019829
1780854555049767000,16.288766845703126,1.1808580160140991,-14.025529861450195,-1.2765709161758423
1780854555146800000,16.385800048828123,2.148754835128784,-12.465409278869629,-1.5852450132369995
1780854555243833300,16.482833251953124,1.153340458869934,-8.082955360412598,-2.4873390197753906
1780854555302053400,16.541053466796875,3.0281169414520264,-6.638886451721191,0.15912270545959473
1780854555399086600,16.638086669921876,0.4773681163787842,-9.818947792053223,1.144965648651123
1780854555496119600,16.73511962890625,3.647858142852783,-8.842676162719727,-0.17108681797981262
1780854555554339600,16.793339599609375,2.6285157203674316,-12.891331672668457,-0.4043870270252228
1780854555651372500,16.89037255859375,0.882951557636261,-8.173882484436035,1.2801600694656372
1780854555748405800,16.98740576171875,0.3900300860404968,-17.090736389160156,-0.32662028074264526
1780854555845439000,17.08443896484375,0.8757730722427368,-7.988438606262207,-0.1986042857170105
1780854555903659000,17.142658935546876,2.967100143432617,-5.940182209014893,-1.7958134412765503
1780854556000692200,17.239692138671874,5.641079425811768,-4.555934429168701,0.882951557636261
1780854556097725200,17.33672509765625,4.435096740722656,-13.576875686645508,-0.50129634141922
1780854556194758400,17.43375830078125,-3.566502094268799,-12.349357604980469,-4.420739650726318
1780854556252978200,17.491978271484374,1.2059825658798218,-11.146964073181152,-0.7334001660346985
1780854556350011400,17.589011474609375,0.36729827523231506,-7.63310432434082,-3.1453654766082764
1780854556447044600,17.686044677734376,1.2167502641677856,-6.821937561035156,1.0552347898483276
1780854556505264600,17.7442646484375,-1.089930772781372,-10.04148006439209,1.4572290182113647
1780854556602297900,17.8412978515625,1.4033905267715454,-8.459824562072754,0.06340979784727097
1780854556699330800,17.938330810546876,-0.39122650027275085,-15.323636054992676,-0.5539384484291077
1780854556796364000,18.035364013671874,-1.3914263248443604,-8.868997573852539,-0.7968099117279053
1780854556854583800,18.093583740234376,0.4342973232269287,-16.661224365234375,-3.649054527282715
1780854556951617000,18.190616943359377,-0.09810572862625122,-8.755337715148926,2.124826431274414
1780854557048650200,18.287650146484374,2.906083106994629,-5.821737289428711,-3.328416347503662
1780854557145683500,18.384683349609375,1.4249259233474731,-7.17368221282959,3.497110366821289
1780854557203903200,18.4429033203125,2.9826533794403076,-13.580465316772461,-0.98703932762146
1780854557300936400,18.5399365234375,0.7238288521766663,-13.456038475036621,-2.0997018814086914
1780854557397969400,18.636969482421875,-0.1256231814622879,-13.970495223999023,-2.998206853866577
1780854557456189400,18.695189453125,0.5527420043945312,-7.735995769500732,-3.7878382205963135
1780854557553222700,18.79222265625,2.3150558471679688,-7.3914289474487305,0.11246266216039658
1780854557650256000,18.889255859375,0.9702895879745483,-9.92542839050293,0.8554341197013855
1780854557747289000,18.9862890625,2.7984061241149902,-8.447860717773438,-1.459621787071228
1780854557805508900,19.0445087890625,3.7220356464385986,-11.739188194274902,-0.5563312768936157
1780854557902542000,19.1415419921875,-0.4055834412574768,-11.623135566711426,1.2849457263946533
1780854557999575000,19.238574951171874,1.3986048698425293,-15.162120819091797,-2.2959132194519043
1780854558096608300,19.335608154296875,-0.8745766878128052,-8.670392990112305,1.038485050201416
1780854558154828000,19.393828125,2.9001009464263916,-6.339783668518066,-2.218146562576294
1780854558251861200,19.490861328125,3.7878382205963135,-6.234499454498291,0.380458801984787
1780854558348894500,19.58789453125,4.115654945373535,-13.292129516601562,0.49292147159576416
1780854558407114500,19.646114501953125,4.204189300537109,-14.126028060913086,1.537388563156128
1780854558504147500,19.7431474609375,-0.275174617767334,-8.388039588928223,0.7992027401924133
1780854558601180400,19.840180419921875,-0.8374879360198975,-8.237292289733887,-3.6526436805725098
1780854558698214000,19.9372138671875,2.526820659637451,-6.126822471618652,0.4582255482673645
1780854558756433700,19.99543359375,-1.794616937637329,-9.30449104309082,0.641276478767395
1780854558853466600,20.092466552734376,1.8532410860061646,-8.662017822265625,0.29312077164649963
1780854558950499800,20.189499755859377,-1.2131611108779907,-16.701902389526367,-0.4007977843284607
1780854559047533000,20.286532958984374,-0.623330295085907,-8.870193481445312,-1.5912270545959473
1780854559105752800,20.3447529296875,-0.22612173855304718,-17.83011817932129,-2.740978240966797
1780854559202786000,20.4417861328125,-1.2191431522369385,-7.818548202514648,0.7860422134399414
1780854559299819300,20.5388193359375,3.0855448246002197,-5.553741455078125,-3.486342668533325
1780854559358039000,20.5970390625,2.423929452896118,-5.357530117034912,-1.1258230209350586
1780854559455072300,20.694072265625,3.3308091163635254,-14.9611234664917,1.195214867591858
1780854559552105200,20.791105224609375,1.454836130142212,-13.446466445922852,-3.737588882446289
1780854559649138400,20.888138427734376,0.882951557636261,-11.623135566711426,-1.6378871202468872
1780854559707358200,20.946358154296874,0.30508488416671753,-8.958727836608887,-5.461617469787598
1780854559804391400,21.043391357421875,4.432703971862793,-5.752345561981201,0.8925228714942932
1780854559901424600,21.140424560546876,0.26919254660606384,-10.638489723205566,0.5862415432929993
1780854559998457600,21.23745751953125,2.671586513519287,-7.940581798553467,0.3170489966869354
1780854560056677600,21.295677734375,2.197807550430298,-16.114463806152344,-1.786242127418518
1780854560153710600,21.392710693359376,1.3986048698425293,-7.989634990692139,2.410768747329712
1780854560250743800,21.489743896484374,-1.399801254272461,-16.651653289794922,-1.6929219961166382
1780854560308963600,21.547963623046876,-1.9716858863830566,-9.375079154968262,3.348755359649658
1780854560405996800,21.644996826171877,2.480160713195801,-5.936593055725098,-2.6871397495269775
1780854560503029800,21.74202978515625,3.1106693744659424,-6.087340831756592,0.18783657252788544
1780854560600063000,21.83906298828125,5.956932067871094,-10.890932083129883,0.46899324655532837
1780854560658282800,21.89728271484375,1.7694923877716064,-13.468002319335938,-1.439282774925232
1780854560755315700,21.994315673828126,4.342973232269287,-11.101500511169434,-2.469393014907837
1780854560852349000,22.091348876953123,-0.10887342691421509,-9.061619758605957,2.1535403728485107
1780854560949382100,22.188382080078124,0.4630111753940582,-6.5252275466918945,-0.3684946894645691
1780854561007602000,22.246601806640626,0.833898663520813,-8.22413158416748,0.6616154313087463
1780854561104635100,22.34363525390625,4.182653903961182,-10.256834030151367,-0.3888336718082428
1780854561201668000,22.440668212890625,2.0865414142608643,-12.695120811462402,-0.40797626972198486
1780854561298701300,22.537701416015626,-1.1078768968582153,-11.229516983032227,-2.1822543144226074
1780854561356921000,22.595921142578124,-1.3698909282684326,-16.169498443603516,-0.8386843204498291
1780854561453954000,22.6929541015625,1.2131611108779907,-8.599804878234863,0.2799602448940277
1780854561550987300,22.7899873046875,1.3411771059036255,-6.825526714324951,-2.310270309448242
1780854561609207000,22.84820703125,5.000999450683594,-4.7952165603637695,-0.9990034699440002
1780854561706240300,22.945240234375,4.573880672454834,-14.998211860656738,-1.934597134590149
1780854561803273200,23.042273193359375,-5.112265586853027,-13.16650676727295,-4.488935470581055
1780854561900306200,23.13930615234375,2.231307029724121,-13.73360538482666,-4.074976921081543
1780854561958526200,23.197526123046874,-1.6211373805999756,-9.073583602905273,-3.438486099243164
1780854562055559200,23.29455908203125,3.610769271850586,-5.559723377227783,0.4821537733078003
1780854562152592400,23.39159228515625,0.6843472719192505,-9.850054740905762,1.3411771059036255
1780854562249625300,23.488625244140625,8.62014389038086,-8.206185340881348,-1.3950155973434448
1780854562307845400,23.546845458984375,-1.3782658576965332,-16.792829513549805,-0.05623133108019829
1780854562404878300,23.64387841796875,-1.2059825658798218,-8.898907661437988,-2.26959228515625
1780854562501911300,23.740911376953125,-1.5948163270950317,-15.401402473449707,4.037888050079346
1780854562598944500,23.837944580078126,1.0767701864242554,-7.755138397216797,-1.6785650253295898
1780854562657164300,23.896164306640625,3.5330026149749756,-5.575276851654053,-2.4873390197753906
1780854562754197500,23.993197509765626,3.64546537399292,-5.136193752288818,2.3617160320281982
1780854562851230500,24.09023046875,5.633901119232178,-12.812368392944336,2.266003131866455
1780854562948263700,24.187263671875,-2.9048867225646973,-11.450852394104004,-3.3571300506591797
1780854563006483500,24.2454833984375,2.4227328300476074,-12.096915245056152,-1.908276081085205
1780854563103516400,24.342516357421875,0.5826523303985596,-8.730213165283203,-1.628315806388855
1780854563200549400,24.43954931640625,1.6845471858978271,-6.102894306182861,1.4608181715011597
1780854563258769400,24.497769287109374,0.08973085135221481,-10.50090217590332,2.4849462509155273
1780854563355802400,24.59480224609375,2.6847469806671143,-8.96829891204834,-1.2442678213119507
1780854563452835600,24.691835693359376,0.3481557071208954,-14.47298812866211,-0.06340979784727097
1780854563549868500,24.78886865234375,-0.16031911969184875,-8.380861282348633,-0.7441678643226624
1780854563608088300,24.84708837890625,0.062213387340307236,-16.36810302734375,-1.7443677186965942
1780854563705121300,24.944121337890625,-0.13280165195465088,-8.421539306640625,0.9104689955711365
1780854563802154500,25.041154541015626,2.53399920463562,-5.509474277496338,-3.0616166591644287
1780854563860374300,25.099374267578124,2.6668007373809814,-5.663811206817627,-0.8709874153137207
1780854563957407500,25.196407470703125,2.678765058517456,-16.07976722717285,0.38285163044929504
1780854564054440200,25.293440185546874,0.05742774158716202,-12.087343215942383,-3.462414264678955
1780854564151473400,25.390473388671875,1.074377417564392,-11.002198219299316,-0.7872386574745178
1780854564209693200,25.448693115234374,-0.381655216217041,-10.561919212341309,-3.5018959045410156
1780854564306726400,25.545726318359375,3.589233875274658,-7.0061845779418945,0.3170489966869354
1780854564403759400,25.64275927734375,-0.5826523303985596,-10.444670677185059,1.5361921787261963
1780854564500792300,25.739792236328125,2.059023857116699,-9.521040916442871,-0.7513462901115417
1780854564559012400,25.798012451171875,6.416353702545166,-11.967702865600586,-2.8486554622650146
1780854564656045000,25.895045166015624,-0.8111668825149536,-11.08475112915039,2.200200319290161
1780854564753078300,25.992078369140625,0.3936193287372589,-14.860625267028809,-2.908475875854492
1780854564811298000,26.050298095703123,-1.9860427379608154,-12.162717819213867,4.36809778213501
1780854564908331000,26.1473310546875,3.8464624881744385,-6.011966705322266,-2.2372891902923584
1780854565005364200,26.2443642578125,2.390429735183716,-5.335994720458984,-0.607776939868927
1780854565102397200,26.341397216796874,3.3882367610931396,-16.867006301879883,0.2476571500301361
1780854565160617200,26.3996171875,5.197210788726807,-12.178271293640137,3.6741790771484375
1780854565257650000,26.49664990234375,-1.195214867591858,-9.114261627197266,0.06580262631177902
1780854565354683000,26.593682861328126,-0.7968099117279053,-10.315458297729492,-5.554937839508057
1780854565451716000,26.690716064453124,3.6059837341308594,-6.295516490936279,0.849452018737793
1780854565509935900,26.748935791015626,-0.9631111025810242,-9.042476654052734,2.204986095428467
1780854565606968800,26.84596875,1.5230315923690796,-8.372486114501953,1.7132610082626343
1780854565704002000,26.943001953125,3.5533416271209717,-13.526626586914062,-0.9571290612220764
1780854565762221600,27.0012216796875,2.60339093208313,-12.415160179138184,2.007578134536743
1780854565859254800,27.0982548828125,-0.016749758273363113,-7.908278942108154,-3.128615617752075
1780854565956287700,27.195287841796876,-1.2263215780258179,-11.380264282226562,3.6849467754364014
1780854566053320700,27.29232080078125,2.097309112548828,-6.308676719665527,-1.7922241687774658
1780854566111540700,27.350540771484376,2.7086751461029053,-6.87816858291626,-1.7623138427734375
1780854566208573400,27.447573486328125,0.42831525206565857,-12.223734855651855,2.365305185317993
1780854566305606700,27.544606689453126,4.439882278442383,-13.73480224609375,4.992624282836914
1780854566402639600,27.6416396484375,1.2263215780258179,-9.32004451751709,-0.6771687865257263
1780854566460859400,27.699859375,-0.09092725813388824,-12.5742826461792,-3.304488182067871
1780854566557892400,27.796892333984374,2.530410051345825,-7.287341594696045,-0.8614161610603333
1780854566654925300,27.89392529296875,-0.8255237936973572,-9.349954605102539,2.025524377822876
1780854566713145300,27.952145263671873,1.786242127418518,-9.242277145385742,1.0660024881362915
1780854566810178000,28.049177978515626,8.500502586364746,-7.966903209686279,-0.8291130661964417
1780854566907211000,28.1462109375,0.486939400434494,-11.532208442687988,2.0279171466827393
1780854567062464000,28.301464111328126,-1.1748759746551514,-14.804393768310547,4.402793884277344
1780854567159497000,28.3984970703125,2.3222343921661377,-7.403393268585205,-1.5792629718780518
1780854567256530000,28.495530029296877,1.9908283948898315,-5.6925249099731445,-2.2540390491485596
1780854567353563000,28.59256298828125,2.283949136734009,-14.446666717529297,0.008374879136681557
1780854567411782700,28.65078271484375,5.927021503448486,-12.058629989624023,3.972085475921631
1780854567508815600,28.747815673828125,-1.168893814086914,-9.148957252502441,-3.3690943717956543
1780854567605848600,28.8448486328125,-0.6508477330207825,-12.472587585449219,-4.436293125152588
1780854567664068600,28.903068603515624,0.7489534616470337,-8.182256698608398,-2.3162522315979004
1780854567761101300,29.000101318359373,2.854637384414673,-7.134200572967529,1.1892328262329102
1780854567858134300,29.09713427734375,2.5495524406433105,-7.869993686676025,2.132004976272583
1780854567955167200,29.194167236328123,7.110272407531738,-9.780662536621094,-2.719442844390869
1780854568013387300,29.25238720703125,2.449054002761841,-14.055439949035645,2.2576282024383545
1780854568110420000,29.349419921875,-1.786242127418518,-8.508877754211426,-2.5196423530578613
1780854568207453200,29.446453125,-1.0827522277832031,-13.714463233947754,4.784449100494385
1780854568304486000,29.54348583984375,3.535395383834839,-6.130411624908447,-2.528017044067383
1780854568362706000,29.601705810546875,1.6809579133987427,-6.063412666320801,-3.377469062805176
1780854568459738600,29.698738525390624,0.4486542344093323,-9.739984512329102,3.9972102642059326
1780854568556771800,29.795771728515625,5.807380676269531,-13.373485565185547,3.733999729156494
1780854568653804500,29.892804443359374,0.1902294009923935,-8.086544036865234,-0.2476571500301361
1780854568712024600,29.951024658203124,0.9667003750801086,-14.9072847366333,-4.291527271270752
1780854568809057500,30.0480576171875,2.6488547325134277,-7.061219692230225,-0.5312066078186035
1780854568906090200,30.14509033203125,-0.17946170270442963,-8.208578109741211,1.1234302520751953
1780854568964310300,30.203310302734376,0.9643075466156006,-7.707281589508057,0.9439685344696045
1780854569061343000,30.300343017578125,7.746763229370117,-8.912068367004395,-1.246660590171814
1780854569158376200,30.397376220703126,-0.25244277715682983,-12.264412879943848,2.3808584213256836
1780854569255409000,30.494408935546875,0.7154539823532104,-14.44188117980957,-4.481756687164307
1780854569313628700,30.552628662109374,-3.3475589752197266,-12.766904830932617,5.61954402923584
1780854569410661600,30.64966162109375,4.152743816375732,-5.525027275085449,-2.5220351219177246
1780854569507694600,30.746694580078124,2.8654050827026367,-5.26181697845459,-0.6293123364448547
1780854569604727600,30.8437275390625,2.4849462509155273,-16.963916778564453,-1.1808580160140991
1780854569662947300,30.901947265625,9.150154113769531,-11.630314826965332,7.383054256439209
1780854569759980300,30.998980224609376,-1.8987047672271729,-11.952149391174316,0.17347964644432068
1780854569857013200,31.09601318359375,-1.357926845550537,-10.326226234436035,-6.198606967926025
1780854569915233000,31.15423291015625,1.6235301494598389,-7.9657063484191895,-0.08374879509210587
1780854570012265700,31.251265625,0.5802595019340515,-7.959724426269531,1.29810631275177
1780854570109299000,31.348298828125,0.8446664214134216,-9.573683738708496,1.404586911201477
1780854570206331600,31.44533154296875,1.0923235416412354,-15.468401908874512,-1.3794622421264648
1780854570264551400,31.503551513671876,1.8137595653533936,-10.667202949523926,2.258824586868286
1780854570361584400,31.60058447265625,0.7716853022575378,-11.279766082763672,-3.6083765029907227
1780854570458617300,31.697617431640627,-0.9116654396057129,-9.445667266845703,2.056631088256836
1780854570516837000,31.755837158203125,3.9601213932037354,-6.6149582862854,-1.5517455339431763
1780854570613869800,31.852869873046874,1.3483555316925049,-6.289534091949463,-2.018345832824707
1780854570710903000,31.949903076171875,2.713460922241211,-14.577075958251953,0.8578268885612488
1780854570846749000,32.0857490234375,-3.043670415878296,-11.135000228881836,-5.66620397567749
1780854570904968700,32.14396875,1.4620146751403809,-11.453245162963867,-1.5337992906570435
1780854570963188200,32.202188232421875,-0.6113662123680115,-10.606185913085938,-3.899104595184326
1780854571060221400,32.299221435546876,4.273581027984619,-6.02393102645874,-0.363709032535553
1780854571157254100,32.396254150390625,-1.8029918670654297,-10.746166229248047,2.280359983444214
1780854571215474000,32.454473876953124,1.9298114776611328,-8.410771369934082,0.763310432434082
1780854571312506600,32.55150659179687,3.9912281036376953,-12.509676933288574,-0.7489534616470337
1780854571409539800,32.648539794921874,0.22971096634864807,-7.548159122467041,0.8841479420661926
1780854571506572800,32.74557275390625,-1.4488540887832642,-19.107885360717773,0.31465616822242737
1780854571564792300,32.80379223632813,-1.6965112686157227,-9.360722541809082,2.854637384414673
1780854571661825300,32.9008251953125,3.212364435195923,-5.333601474761963,-2.6141586303710938
1780854571758858000,32.99785791015625,2.5710878372192383,-5.138586521148682,1.2263215780258179
1780854571817077800,33.05607788085938,3.704089403152466,-13.332807540893555,0.9511470198631287
1780854571914110700,33.15311083984375,1.6869399547576904,-15.416955947875977,3.104687452316284
1780854572011143700,33.25014379882813,2.4562325477600098,-11.904293060302734,-2.964707374572754
1780854572108176400,33.34717626953125,0.15194423496723175,-7.1748785972595215,-2.7361927032470703
1780854572166396200,33.405396240234374,3.1070802211761475,-6.721438884735107,0.1423729509115219
1780854572263428900,33.50242895507812,-1.8831514120101929,-10.163514137268066,1.301695466041565
1780854572360462000,33.599462158203124,3.6227335929870605,-8.950352668762207,-0.537188708782196
1780854572457495000,33.6964951171875,0.5802595019340515,-14.663217544555664,-1.160519003868103
1780854572515714600,33.75471459960937,-0.4570291340351105,-8.33300495147705,0.9547362327575684
1780854572612747500,33.85174755859375,-0.42711883783340454,-19.162919998168945,-1.3663017749786377
1780854572709780200,33.9487802734375,0.8470591902732849,-8.467002868652344,-0.18544375896453857
1780854572768000000,34.007,3.136990547180176,-4.746163845062256,-2.4993033409118652
1780854572865032700,34.10403271484375,4.034298896789551,-5.124229907989502,0.6999006271362305
1780854572962065700,34.201065673828126,4.679164886474609,-15.123835563659668,2.2887349128723145
1780854573059098600,34.2980986328125,-2.3054845333099365,-9.748359680175781,-5.820540904998779
1780854573117318100,34.35631811523437,2.874976396560669,-11.915060043334961,-1.5086746215820312
1780854573214351000,34.45335107421875,0.17706887423992157,-8.017151832580566,-3.0544381141662598
1780854573311384000,34.55038403320312,2.276770830154419,-6.619743824005127,1.2574282884597778
1780854573369603800,34.60860375976562,-0.12083754688501358,-9.986445426940918,2.1032910346984863
1780854573466636500,34.70563647460938,5.9676995277404785,-7.574480056762695,-0.3409772217273712
1780854573563669500,34.80266943359375,1.6307085752487183,-15.915860176086426,0.08374879509210587
1780854573660702200,34.8997021484375,-0.9511470198631287,-8.425128936767578,-2.045863389968872
1780854573718922000,34.957921875,1.1593226194381714,-16.180267333984375,-1.9142581224441528
1780854573815954700,35.05495458984375,-0.8614161610603333,-8.206185340881348,0.2476571500301361
1780854573912987600,35.151987548828124,2.5878376960754395,-5.824130535125732,-2.335394859313965
1780854574010020400,35.24902026367187,0.380458801984787,-8.776873588562012,3.342773199081421
1780854574068240100,35.307240234375,3.8727834224700928,-15.022140502929688,0.38644084334373474
1780854574165272800,35.40427294921875,-2.148754835128784,-12.15793228149414,-5.115854740142822
1780854574262305800,35.50130590820312,1.2717852592468262,-12.448659896850586,-3.001796007156372
1780854574320525600,35.55952563476563,-0.39601215720176697,-8.493324279785156,-4.528416633605957
1780854574417558300,35.65655834960938,3.7902309894561768,-6.708278179168701,0.6269195079803467
1780854574514591200,35.75359130859375,0.24646073579788208,-9.945767402648926,1.6869399547576904
1780854574611624000,35.8506240234375,3.7531423568725586,-9.562915802001953,-1.2717852592468262
1780854574669843700,35.90884375,3.5341989994049072,-13.801800727844238,-2.6213371753692627
1780854574766876400,36.00587646484375,-0.7166503667831421,-10.717453002929688,1.153340458869934
1780854574863909400,36.10290942382812,0.36729827523231506,-15.27338695526123,-3.050848960876465
1780854574960942000,36.19994213867187,-0.1818545162677765,-7.883154392242432,0.31465616822242737
1780854575019161600,36.25816162109375,4.340580463409424,-5.730810165405273,-2.36291241645813
1780854575116194600,36.35519458007813,2.8977081775665283,-5.559723377227783,-0.4055834412574768
1780854575213227500,36.4522275390625,3.9732820987701416,-14.147563934326172,0.29790642857551575
1780854575271447000,36.510447021484374,2.221735715866089,-15.665809631347656,4.595416069030762
1780854575368479700,36.60747973632812,2.42512583732605,-10.450653076171875,-1.9752750396728516
1780854575465512400,36.70451245117187,-0.45583271980285645,-7.781459331512451,-4.18863582611084
1780854575562545400,36.80154541015625,4.193421840667725,-6.7692952156066895,1.495514154434204
1780854575620765200,36.85976513671875,-1.9214365482330322,-9.10229778289795,1.5876377820968628
1780854575717798000,36.9567978515625,2.4011974334716797,-9.527023315429688,-0.7226324677467346
1780854575814830800,37.05383081054688,2.203789710998535,-14.782857894897461,-0.18424734473228455
1780854575911863600,37.150863525390626,-2.7625136375427246,-8.85224723815918,-0.6652047038078308
1780854575970083000,37.2090830078125,0.04426721855998039,-11.3180513381958,-6.03948450088501
1780854576067116000,37.306115966796874,-2.204986095428467,-8.835497856140137,3.704089403152466
1780854576164148700,37.40314868164062,3.830909013748169,-5.654240131378174,-3.0041887760162354
1780854576222368500,37.46136840820313,3.4719855785369873,-5.209175109863281,-1.9525432586669922
1780854576319401200,37.55840112304688,2.5710878372192383,-14.976676940917969,-0.039481572806835175
1780854576416434000,37.65543383789063,-0.12681959569454193,-13.202399253845215,-3.0903303623199463
1780854576513467000,37.752466796875,2.2540390491485596,-10.938788414001465,-1.6654045581817627
1780854576571686400,37.810686279296874,-2.0793628692626953,-10.36929702758789,-4.326223373413086
1780854576668719000,37.90771899414062,3.8608193397521973,-6.675975322723389,-0.16271193325519562
1780854576765752000,38.004751953125,-1.1270195245742798,-9.7005033493042,1.6342978477478027
1780854576862784800,38.10178466796875,4.466203689575195,-9.616754531860352,-1.3028919696807861
1780854576921004500,38.16000463867187,2.510071039199829,-14.392827987670898,-2.0303099155426025
1780854576998630700,38.23763061523437,1.561316728591919,-10.883753776550293,2.667997360229492
1780854577056850400,38.29585034179688,-1.7359927892684937,-9.142974853515625,-1.482353687286377
1780854577115070000,38.35407006835938,0.33738797903060913,-16.295122146606445,-1.8077775239944458
1780854577173289700,38.412289794921875,-1.454836130142212,-11.532208442687988,4.789234638214111
1780854577270322400,38.509322509765624,3.3966116905212402,-6.129215240478516,-2.513660192489624
1780854577367355100,38.60635522460937,4.2209391593933105,-5.492724418640137,-0.6879364848136902
1780854577464388000,38.70338818359375,4.07258415222168,-15.110674858093262,1.3507484197616577
1780854577522607600,38.76160766601563,5.490331649780273,-13.678570747375488,4.522434711456299
1780854577619640300,38.85864038085938,2.0542383193969727,-8.908478736877441,-0.3158525824546814
1780854577716673000,38.955673095703126,-1.1653046607971191,-8.874979019165039,-2.988635540008545
1780854577813705700,39.052705810546875,2.964707374572754,-6.27278470993042,-0.12203395366668701
1780854577871925500,39.110925537109374,-0.6185446381568909,-8.298309326171875,0.9439685344696045
1780854577968958200,39.20795825195312,1.098305583000183,-8.7505521774292,0.8602197170257568
1780854578065991200,39.3049912109375,3.128615617752075,-13.329218864440918,-1.7491533756256104
1780854578124210700,39.36321069335938,0.19262222945690155,-15.136996269226074,2.913261651992798
1780854578221243400,39.46024340820313,1.812563180923462,-6.696314334869385,-5.203192710876465
1780854578318276000,39.557276123046876,-3.2004003524780273,-11.541780471801758,4.724628448486328
1780854578415308800,39.654308837890625,4.928018093109131,-6.111268997192383,-1.7024933099746704
1780854578473528600,39.71252856445312,2.1092731952667236,-5.5692949295043945,-1.0827522277832031
1780854578570561300,39.80956127929687,2.1032910346984863,-12.471391677856445,1.7419748306274414
1780854578667593700,39.90659375,2.531606435775757,-15.63111400604248,5.426921844482422
1780854578764626700,40.00362670898438,1.703689694404602,-9.032905578613281,-3.7531423568725586
1780854578822846500,40.061846435546876,2.885744094848633,-11.23789119720459,-7.884350776672363
1780854578919879000,40.15887890625,1.6761722564697266,-8.063812255859375,1.1724830865859985
1780854579016911600,40.25591162109375,0.1986042857170105,-8.2695951461792,0.008374879136681557
1780854579075131400,40.31413134765625,0.8626125454902649,-8.628518104553223,-0.019142581149935722
1780854579172164000,40.4111640625,8.206185340881348,-10.131211280822754,2.2743778228759766
1780854579269196800,40.50819677734375,0.2715853750705719,-9.726823806762695,-0.1136590763926506
1780854579366229500,40.6052294921875,1.672582983970642,-18.73221206665039,-1.2562319040298462
1780854579424449000,40.66344897460937,-3.376272678375244,-10.816754341125488,6.1950178146362305
1780854579521482000,40.76048193359375,3.702893018722534,-5.420939922332764,-1.5182459354400635
1780854579618514400,40.85751440429687,3.696911096572876,-5.929414749145508,-0.605384111404419
1780854579715547400,40.95454736328125,3.620340585708618,-15.188441276550293,2.778067111968994
1780854579773767000,41.012766845703126,2.3712873458862305,-15.214762687683105,0.2907279431819916
1780854579909612800,41.14861279296875,-0.4654040038585663,-13.854443550109863,-3.8907296657562256
1780854579967832300,41.206832275390624,0.48095735907554626,-7.613961696624756,-3.0281169414520264
1780854580064865000,41.30386499023437,3.0005996227264404,-6.379265308380127,-0.2715853750705719
1780854580123084800,41.36208471679687,0.3577269911766052,-8.676374435424805,2.225325107574463
1780854580220117500,41.45911743164063,0.8805587291717529,-9.455238342285156,-0.26440688967704773
1780854580317150000,41.55614990234375,4.97348165512085,-14.598610877990723,-1.4404792785644531
1780854580375369700,41.61436962890625,0.5216353535652161,-12.101700782775879,2.352144718170166
1780854580472402400,41.71140234375,1.4428720474243164,-9.504291534423828,-5.407779216766357
1780854580569435100,41.80843505859375,-1.454836130142212,-8.848658561706543,3.45882511138916
1780854580666467800,41.9054677734375,3.2817561626434326,-5.109872817993164,-1.9884356260299683
1780854580724687400,41.96368725585938,2.1032910346984863,-6.000002861022949,-2.4155545234680176
1780854580821720000,42.060719970703126,1.3004990816116333,-14.438291549682617,1.054038405418396
1780854580918752800,42.157752685546875,2.1607189178466797,-13.659427642822266,-1.1030912399291992
1780854581015785500,42.254785400390624,2.746960401535034,-14.962320327758789,-2.963510751724243
1780854581074005200,42.31300512695312,-1.0719845294952393,-9.292527198791504,-4.018745422363281
1780854581171037700,42.41003759765625,2.524427890777588,-5.803791522979736,0.7621139883995056
1780854581268070400,42.5070703125,-0.9260223507881165,-9.773484230041504,1.4572290182113647
1780854581326290200,42.565290283203126,1.2418749332427979,-9.66819953918457,0.13280165195465088
1780854581423322600,42.66232250976562,2.8522446155548096,-14.08415412902832,-2.252842426300049
1780854581520355300,42.75935522460937,-1.5960127115249634,-9.133403778076172,1.5960127115249634
1780854581617388000,42.85638793945313,0.8949156403541565,-16.095321655273438,-0.33499518036842346
1780854581675607600,42.91460766601563,-3.1561331748962402,-9.934999465942383,2.389233350753784
1780854581772640300,43.01164013671875,3.566502094268799,-5.188836097717285,-2.3270199298858643
1780854581869673000,43.1086728515625,3.4540395736694336,-6.1088762283325195,0.7800601720809937
1780854581966705700,43.20570556640625,3.1453654766082764,-14.500505447387695,0.6879364848136902
1780854582024925200,43.26392529296875,3.376272678375244,-14.6668062210083,0.9379864931106567
1780854582121958000,43.3609580078125,2.4921247959136963,-11.3180513381958,-0.5862415432929993
1780854582218990600,43.457990478515626,-0.2835494875907898,-8.526823043823242,-2.80558443069458
1780854582277210000,43.516210205078124,2.1415762901306152,-7.142575740814209,-0.1052841991186142
1780854582374242800,43.61324291992187,-0.1136590763926506,-8.86660385131836,1.2789636850357056
1780854582471275500,43.71027563476562,2.9180471897125244,-8.475378036499023,-0.14356936514377594
1780854582587714600,43.826714599609375,1.1593226194381714,-14.488540649414062,1.459621787071228
1780854582665340700,43.904340576171876,-2.093719720840454,-9.617950439453125,-1.4225330352783203
1780854582723560400,43.962560546875,0.363709032535553,-12.971491813659668,-2.5986053943634033
1780854582820593000,44.05959301757812,-1.2610175609588623,-9.08554744720459,2.148754835128784
1780854582917625600,44.15662548828125,3.128615617752075,-6.019145488739014,-2.200200319290161
1780854582975845000,44.21484521484375,2.5746772289276123,-6.251249313354492,-2.1643080711364746
1780854583072877800,44.3118779296875,2.589034080505371,-13.213166236877441,0.23808585107326508
1780854583169910500,44.40891064453125,1.1653046607971191,-11.958130836486816,-1.6354942321777344
1780854583228130300,44.46713037109375,-0.8470591902732849,-9.399007797241211,-1.7790635824203491
1780854583325162800,44.56416284179687,-1.892722725868225,-9.359525680541992,-3.431307554244995
1780854583422195500,44.66119555664063,5.234299659729004,-6.294320106506348,0.12323036789894104
1780854583519228000,44.758227783203125,-0.6089733839035034,-10.140782356262207,1.9465612173080444
1780854583577447700,44.81644775390625,2.9168508052825928,-8.651249885559082,1.8029918670654297
1780854583674480000,44.91348022460937,4.920839786529541,-12.595818519592285,-1.3710874319076538
1780854583771512800,45.01051293945312,0.16031911969184875,-9.343972206115723,2.359323024749756
1780854583868545500,45.10754565429688,-0.5000999569892883,-17.769100189208984,-2.4119651317596436
1780854583926765000,45.16576513671875,-2.348555326461792,-11.359925270080566,4.266402721405029
1780854584023797500,45.262797607421874,3.4791641235351562,-5.437689304351807,-1.7910277843475342
1780854584120830200,45.35983032226562,4.242474555969238,-4.807180881500244,-1.4835500717163086
1780854584217863000,45.45686279296875,3.62153697013855,-16.151552200317383,-0.747757077217102
1780854584276082400,45.51508251953125,6.626922130584717,-14.849857330322266,8.763712882995605
1780854584373115100,45.612115234375,1.8771693706512451,-10.5152587890625,-0.9308080077171326
1780854584470147600,45.709147705078124,-1.5960127115249634,-9.036494255065918,-3.8368911743164062
1780854584528367000,45.7673671875,3.2374889850616455,-7.294519901275635,-1.231107234954834
1780854584625399800,45.86439990234375,-0.5407779216766357,-8.445467948913574,2.3150558471679688
1780854584722432500,45.9614326171875,2.111665964126587,-8.280363082885742,0.4737788736820221
1780854584819465000,46.05846484375,1.0325030088424683,-15.677774429321289,-1.3962119817733765
1780854584877684500,46.1166845703125,2.313859462738037,-11.708081245422363,1.4859428405761719
1780854584974717200,46.21371728515625,2.1068804264068604,-9.419346809387207,-2.871387243270874
1780854585071750000,46.31075,-3.4983067512512207,-10.728219985961914,2.974278450012207
1780854585129969400,46.368969482421875,1.1988041400909424,-6.959524631500244,-1.3555340766906738
1780854585227002000,46.466002197265624,2.6632115840911865,-5.4867424964904785,-2.5387847423553467
1780854585324034600,46.56303466796875,1.4691931009292603,-13.299307823181152,1.3639088869094849
1780854585421067300,46.6600673828125,1.9334007501602173,-16.09651756286621,1.8376877307891846
1780854585479286800,46.718286865234376,2.118844509124756,-4.890929698944092,-3.867997884750366
1780854585576319200,46.8153193359375,-2.4394826889038086,-12.17109203338623,-2.526820659637451
1780854585673352000,46.91235205078125,3.212364435195923,-6.9690961837768555,-1.3232308626174927
1780854585731571500,46.97057153320313,2.1571295261383057,-6.094519138336182,0.5108676552772522
1780854585828604200,47.06760424804688,1.7575281858444214,-8.361719131469727,2.53399920463562
1780854585925636600,47.16463671875,7.64865779876709,-9.865608215332031,-2.6871397495269775
1780854586022669300,47.26166943359375,0.3122633695602417,-11.85165023803711,2.937189817428589
1780854586080888600,47.319888671875,-1.7886348962783813,-7.623532772064209,-3.064009428024292
1780854586177921300,47.41692138671875,-1.5792629718780518,-15.4360990524292,6.820741176605225
1780854586274954000,47.5139541015625,2.2480568885803223,-7.000202655792236,-0.6029912829399109
1780854586333173500,47.57217358398437,3.3379876613616943,-5.322834014892578,-3.5856447219848633
1780854586430206000,47.6692060546875,0.031106693670153618,-6.052644729614258,4.101297855377197
1780854586527238700,47.76623876953125,5.6685967445373535,-13.189238548278809,5.481956481933594
1780854586624271000,47.86327099609375,-2.059023857116699,-9.138189315795898,-3.8847475051879883
1780854586682491000,47.921490966796874,1.191625714302063,-12.93200969696045,-2.135594129562378
1780854586779523000,48.01852319335938,1.399801254272461,-8.590232849121094,-3.0616166591644287
1780854586876555800,48.1155556640625,1.3387842178344727,-6.9344000816345215,1.2382856607437134
1780854586973588500,48.21258837890625,2.5531418323516846,-9.002995491027832,2.6775684356689453
1780854587031808000,48.27080810546875,0.31824541091918945,-9.366703987121582,-1.3603196144104004
1780854587128840400,48.36784033203125,1.3866406679153442,-14.025529861450195,0.9320043921470642
1780854587225873200,48.464873046875,-1.2993026971817017,-7.527820110321045,-1.3710874319076538
1780854587322905600,48.561905517578126,-1.8448662757873535,-15.677774429321289,3.678964853286743
1780854587381125000,48.620125,-1.2574282884597778,-9.460023880004883,0.4582255482673645
1780854587478157800,48.71715771484375,2.9659037590026855,-5.599205017089844,-3.0867412090301514
1780854587575190300,48.81419018554688,4.583451747894287,-5.56450891494751,1.9573289155960083
1780854587672222700,48.91122265625,5.123033046722412,-14.496915817260742,1.892722725868225
1780854587730442200,48.96944213867187,0.9308080077171326,-11.770294189453125,-1.6139588356018066
1780854587827475000,49.06647485351562,1.3710874319076538,-13.520644187927246,-2.366501569747925
1780854587924507400,49.16350732421875,0.6628118753433228,-7.782655715942383,-2.854637384414673
1780854587982727200,49.22172705078125,4.3070807456970215,-6.905686378479004,-0.16031911969184875
1780854588079759400,49.31875927734375,-0.39960137009620667,-9.410971641540527,2.458625316619873
1780854588176792000,49.4157919921875,2.2133610248565674,-9.975677490234375,-1.8340985774993896
1780854588273824500,49.51282446289063,1.8376877307891846,-13.791033744812012,1.0911271572113037
1780854588332044300,49.571044189453126,-0.30628129839897156,-10.461421012878418,2.0482561588287354
1780854588467889700,49.7068896484375,-2.5698914527893066,-14.435898780822754,3.1752755641937256
1780854588526109200,49.76510913085937,-1.2658032178878784,-8.681160926818848,1.3782658576965332
1780854588623141600,49.8621416015625,3.0209386348724365,-5.364708423614502,-3.418147087097168
1780854588681361200,49.920361083984375,2.5052852630615234,-5.693721294403076,-2.310270309448242
1780854588778393600,50.0173935546875,3.438486099243164,-15.233905792236328,0.7585247755050659
1780854588875426300,50.11442626953125,-2.531606435775757,-11.69133186340332,-5.069194793701172
1780854588933645800,50.17264575195313,1.6259230375289917,-7.759923934936523,-0.02273181453347206
1780854589030678300,50.26967822265625,-2.2755744457244873,-8.730213165283203,-3.022135019302368
1780854589127710700,50.36671069335937,3.390629768371582,-6.63769006729126,-0.28235307335853577
1780854589224743400,50.46374340820312,-0.061016976833343506,-9.013762474060059,1.6713865995407104
1780854589282962700,50.521962646484376,2.4095723628997803,-8.851051330566406,0.8614161610603333
1780854589379995400,50.618995361328125,1.6175481081008911,-16.106088638305664,-0.6795616149902344
1780854589477027800,50.71602783203125,-0.6652047038078308,-8.605786323547363,0.23449662327766418
1780854589574060500,50.813060546875,0.9846464991569519,-15.65384578704834,0.7022934556007385
1780854589632279800,50.87127978515625,-2.39401912689209,-10.395618438720703,3.6227335929870605
1780854589729312500,50.9683125,3.5581271648406982,-5.608776092529297,-1.8041882514953613
1780854589826345000,51.06534497070312,4.884947299957275,-5.367101192474365,-0.3194418251514435
1780854589923377400,51.16237744140625,3.7495529651641846,-14.22293758392334,1.8388842344284058
1780854589981597000,51.220596923828126,3.689732551574707,-14.049458503723145,3.1752755641937256
1780854590078629400,51.31762939453125,1.9489539861679077,-11.295319557189941,-1.628315806388855
1780854590175661800,51.41466186523437,0.8470591902732849,-8.109275817871094,-3.016152858734131
1780854590233881300,51.47288134765625,3.3966116905212402,-7.234699249267578,-0.2787638306617737
1780854590330914000,51.5699140625,0.02512463741004467,-9.089137077331543,2.7254250049591064
1780854590427946500,51.666946533203124,1.0971091985702515,-9.534201622009277,0.08015955984592438
1780854590524979000,51.76397900390625,0.8817551732063293,-15.682559967041016,-1.2143574953079224
1780854590583198500,51.822198486328126,1.7336000204086304,-10.948360443115234,2.7122645378112793
1780854590680231000,51.91923095703125,1.0097711086273193,-9.347561836242676,-3.2039895057678223
1780854590777263400,52.01626342773437,-2.5387847423553467,-10.722238540649414,3.462414264678955
1780854590874296000,52.11329614257812,3.3619158267974854,-5.8097734451293945,-2.0207388401031494
1780854590932515300,52.171515380859375,2.2923240661621094,-6.100501537322998,-1.7682958841323853
1780854591029548000,52.268548095703125,1.333998680114746,-14.394024848937988,-0.22372891008853912
1780854591126580200,52.36558032226562,2.441875457763672,-13.044472694396973,-0.04187439754605293
1780854591223613000,52.46261303710938,0.6843472719192505,-11.394621849060059,-1.444068431854248
1780854591281832400,52.52083251953125,-0.7405785918235779,-10.470992088317871,-3.7746777534484863
1780854591378865000,52.617864990234374,5.347958564758301,-6.696314334869385,-0.1866401731967926
1780854591475897300,52.7148974609375,-1.2275179624557495,-10.277173042297363,0.20817556977272034
1780854591534116900,52.773116943359376,3.4947173595428467,-8.433503150939941,1.4943177700042725
1780854591631149300,52.8701494140625,7.296912670135498,-11.030912399291992,-1.8029918670654297
1780854591728181800,52.967181640625,-0.18544375896453857,-9.497113227844238,1.856830358505249
1780854591825214500,53.06421435546875,-0.1339980661869049,-17.697317123413086,-1.3950155973434448
1780854591922246700,53.16124658203125,0.07537391036748886,-8.227720260620117,-0.19740787148475647
1780854591980466200,53.21946606445312,4.260420799255371,-5.44008207321167,-1.5696916580200195
1780854592077498600,53.31649853515625,4.030709743499756,-4.735395908355713,-1.0061819553375244
1780854592174531300,53.41353125,3.8871402740478516,-15.555740356445312,0.8590233325958252
1780854592232750600,53.47175048828125,4.067798614501953,-14.146367073059082,4.729413986206055
1780854592329783000,53.56878295898437,1.7443677186965942,-10.71984577178955,-0.9918249845504761
1780854592426815500,53.6658154296875,-0.39601215720176697,-8.514859199523926,-3.5928232669830322
1780854592485035000,53.724034912109374,2.970689296722412,-7.82692289352417,-0.698704183101654
1780854592582067500,53.8210673828125,-0.6735795736312866,-8.768498420715332,1.9046868085861206
1780854592679100000,53.91809985351563,1.8556339740753174,-8.9312105178833,0.17347964644432068
1780854592776132400,54.01513232421875,1.7336000204086304,-16.02712631225586,-0.7190431952476501
1780854592834351900,54.07335180664062,0.885344386100769,-12.191431045532227,3.82373046875
1780854592931384300,54.17038427734375,1.3196417093276978,-9.78664493560791,-4.023531436920166
1780854593028416800,54.26741674804688,-3.071187973022461,-10.084550857543945,3.4121651649475098
1780854593086636300,54.32563623046875,1.2693923711776733,-7.405786037445068,-1.6211373805999756
1780854593183668700,54.42266870117187,1.490728497505188,-6.161518096923828,-2.3844478130340576
1780854593280701200,54.519701171875,1.3615161180496216,-14.080564498901367,2.245664119720459
1780854593377733600,54.616733642578126,4.192225456237793,-12.912867546081543,2.6213371753692627
1780854593435953000,54.67495288085937,-3.5928232669830322,-11.108678817749023,-4.693521499633789
1780854593532985600,54.77198559570313,-0.013160524889826775,-13.785051345825195,-5.559723377227783
1780854593630018000,54.86901806640625,1.8305093050003052,-7.377072334289551,-0.7250252366065979
1780854593688237600,54.927237548828124,3.867997884750366,-6.795616149902344,0.6999006271362305
1780854593785269800,55.02426977539063,1.4727823734283447,-8.02193832397461,1.2717852592468262
1780854593882302200,55.12130224609375,7.899903774261475,-9.388239860534668,-2.073380708694458
1780854593979334700,55.218334716796875,1.852044701576233,-11.184053421020508,2.919243574142456
1780854594037554200,55.27655419921875,-0.9882357716560364,-9.542576789855957,-2.1930220127105713
1780854594134586600,55.37358666992188,-1.5326029062271118,-14.319847106933594,4.297509670257568
1780854594231619000,55.470619140625,2.495713949203491,-6.173482418060303,-1.5876377820968628
1780854594328651500,55.567651611328124,2.403590440750122,-5.444868087768555,-2.6739792823791504
1780854594386870800,55.62587084960938,1.4213366508483887,-7.963313579559326,3.8297126293182373
1780854594483903200,55.7229033203125,6.93320369720459,-11.257034301757812,4.956732273101807
1780854594580935700,55.819935791015624,-2.5387847423553467,-9.908679008483887,-4.390829563140869
1780854594677968400,55.91696850585937,-1.0348957777023315,-12.07777214050293,-4.749752998352051
1780854594736187600,55.97518774414063,0.8578268885612488,-8.248059272766113,-1.643869161605835
1780854594833220000,56.07222021484375,2.2612173557281494,-6.740581512451172,0.9966106414794922
1780854594930252500,56.16925244140625,0.9726824164390564,-9.317651748657227,1.153340458869934
1780854595027285000,56.26628491210938,7.668996810913086,-8.641678810119629,-1.8269200325012207
1780854595085504500,56.32450439453125,1.7395820617675781,-14.548361778259277,1.8197416067123413
1780854595182537000,56.42153686523437,-1.098305583000183,-9.036494255065918,-3.8907296657562256
1780854595279569200,56.51856909179688,-1.7371892929077148,-13.468002319335938,6.141179084777832
1780854595337788700,56.57678857421875,-0.08015955984592438,-8.038687705993652,-0.06580262631177902
1780854595473634000,56.71263403320312,2.7457640171051025,-5.732006549835205,-1.275374412536621
1780854595531853600,56.770853515625,1.0971091985702515,-8.9910306930542,4.022335052490234
1780854595628886000,56.867885986328126,7.241877555847168,-12.21655559539795,5.353940486907959
1780854595687105300,56.92610522460937,-4.3896331787109375,-13.551751136779785,-5.077569484710693
1780854595784137700,57.0231376953125,2.4059832096099854,-13.931013107299805,-5.772684574127197
1780854595881170200,57.120170166015626,1.7790635824203491,-7.660621643066406,-0.38644084334373474
1780854595939389700,57.1783896484375,2.2480568885803223,-6.1710896492004395,0.9343972206115723
1780854596036422100,57.27542211914062,1.8221344947814941,-8.988637924194336,1.9250258207321167
1780854596133454300,57.372454345703126,8.34855842590332,-8.62732219696045,-4.158725738525391
1780854596230487000,57.469487060546875,2.6524438858032227,-12.082557678222656,3.7435710430145264
1780854596288706300,57.52770629882812,-1.3351950645446777,-9.487542152404785,0.3290131092071533
1780854596385738800,57.62473876953125,-1.1832507848739624,-15.656238555908203,2.9168508052825928
1780854596482771200,57.721771240234375,1.2681959867477417,-6.768098831176758,-1.1150553226470947
1780854596579803600,57.8188037109375,2.0614166259765625,-5.836094379425049,-2.785245656967163
1780854596638023000,57.87702294921875,3.882354736328125,-5.357530117034912,1.810170292854309
1780854596735055400,57.974055419921875,3.3583266735076904,-12.029915809631348,1.8687944412231445
1780854596832087800,58.071087890625,-3.153740167617798,-12.28953742980957,-6.290730953216553
1780854596890307300,58.12930737304688,1.4177473783493042,-10.85145092010498,-1.3746765851974487
1780854596987339800,58.22633984375,0.8901300430297852,-8.483752250671387,-2.9419753551483154
1780854597084372000,58.3233720703125,0.6975077986717224,-7.061219692230225,1.0037890672683716
1780854597181404400,58.420404296875,1.7072789669036865,-8.865407943725586,1.6271194219589233
1780854597239624000,58.4786240234375,1.1222338676452637,-8.372486114501953,-0.15553347766399384
1780854597336656400,58.575656494140624,2.011167526245117,-15.029318809509277,1.0528420209884644
1780854597433688600,58.6726884765625,-1.5984054803848267,-10.345368385314941,-1.4416756629943848
1780854597530721000,58.769720947265625,-0.747757077217102,-14.81396484375,3.0687949657440186
1780854597588940300,58.82794018554687,-1.6342978477478027,-9.278169631958008,2.3916261196136475
1780854597685972700,58.92497265625,3.012563705444336,-5.507081508636475,-2.794816732406616
1780854597783005200,59.022005126953125,4.132404804229736,-6.2428741455078125,2.0207388401031494
1780854597880037600,59.11903759765625,4.949553489685059,-12.89492130279541,2.9455647468566895
1780854597938257000,59.1772568359375,1.9405791759490967,-12.972687721252441,-0.4941178858280182
1780854598035289300,59.274289306640625,3.2410783767700195,-12.30389404296875,-2.414358139038086
1780854598132321800,59.37132177734375,0.8111668825149536,-8.746963500976562,-1.3950155973434448
1780854598190541000,59.429541015625,4.42193603515625,-6.114858150482178,0.5120640397071838
1780854598287573500,59.526573486328125,0.1256231814622879,-9.929018020629883,2.7278177738189697
1780854598384606000,59.62360595703125,3.3714871406555176,-8.657232284545898,-1.8376877307891846
1780854598481638100,59.72063818359375,1.1306086778640747,-13.807783126831055,2.1200408935546875
1780854598539857700,59.778857666015625,-1.5050854682922363,-10.658828735351562,1.6666009426116943
1780854598636890000,59.87589013671875,0.9296116232872009,-16.549957275390625,-0.7657032608985901
1780854598733922600,59.97292260742187,-0.9176474809646606,-8.331808090209961,-1.0911271572113037
1780854598792141800,60.031141845703125,3.2267212867736816,-5.227120876312256,-1.5002998113632202
1780854598889174300,60.12817431640625,3.0867412090301514,-5.97727108001709,-1.5756736993789673
1780854598986206700,60.22520678710937,3.177668571472168,-14.22413444519043,0.3577269911766052
1780854599083239000,60.322239013671876,-1.038485050201416,-13.234702110290527,-4.456632137298584
1780854599141458400,60.38045849609375,-0.08614161610603333,-8.96949577331543,0.25722843408584595
1780854599238490600,60.47749072265625,-1.7048860788345337,-8.719446182250977,-4.535595417022705
1780854599335523000,60.574523193359376,3.7507495880126953,-6.763313293457031,0.48813581466674805
1780854599393742600,60.63274267578125,-1.6151553392410278,-9.382257461547852,1.3806586265563965
1780854599490775000,60.72977514648438,2.812762975692749,-7.342376232147217,0.9367900490760803
1780854599587807200,60.82680712890625,0.8063812255859375,-16.192230224609375,0.14356936514377594
1780854599684839700,60.92383959960937,-1.8340985774993896,-9.839286804199219,-0.8602197170257568
1780854599743059000,60.98205883789063,-0.4498506486415863,-13.141382217407227,-3.7363924980163574
1780854599840091400,61.07909130859375,-1.191625714302063,-9.865608215332031,2.606980323791504
1780854599937123600,61.17612353515625,3.0891339778900146,-5.529813289642334,-2.3676979541778564
1780854599995343000,61.23434301757813,2.3030917644500732,-5.907878875732422,-2.8558337688446045
1780854600092375300,61.331375244140624,1.9621145725250244,-15.50549030303955,1.100698471069336
1780854600189408000,61.42840795898437,3.5808591842651367,-12.212966918945312,0.7896314859390259
1780854600286440200,61.52544018554688,1.3351950645446777,-9.680164337158203,-0.9032905697822571
1780854600344659500,61.583659423828124,-0.760917603969574,-11.998808860778809,-2.985046148300171
1780854600441692000,61.68069189453125,3.102294445037842,-7.534998416900635,-1.3555340766906738
1780854600538724400,61.77772436523438,-1.0887342691421509,-9.826126098632812,2.794816732406616
1780854600635756500,61.874756591796874,1.9405791759490967,-9.022137641906738,-0.4019941985607147
1780854600693976000,61.93297607421875,5.30129861831665,-11.21515941619873,-2.9479575157165527
1780854600791008300,62.03000830078125,0.7956135272979736,-11.132607460021973,3.5270206928253174
1780854600888040700,62.127040771484374,0.10767702013254166,-13.818551063537598,-3.1034910678863525
1780854600946260000,62.18526000976563,-1.6737794876098633,-12.407981872558594,4.150351047515869
1780854601043292400,62.28229248046875,2.5196423530578613,-6.905686378479004,-1.3806586265563965
1780854601140324600,62.37932470703125,2.7278177738189697,-6.104090690612793,-1.5194423198699951
1780854601237357000,62.47635717773438,3.3690943717956543,-13.74198055267334,0.259621262550354
1780854601295576300,62.534576416015625,6.885347366333008,-13.915459632873535,6.98704195022583
1780854601392608800,62.63160888671875,-0.8877372145652771,-8.011170387268066,-4.340580463409424
1780854601489641000,62.72864086914063,-1.459621787071228,-9.565308570861816,-3.4157543182373047
1780854601586673400,62.82567333984375,3.379862070083618,-7.05763053894043,-0.07537391036748886
1780854601644892700,62.883892578125,0.9391828775405884,-7.433303356170654,1.8580267429351807
1780854601741925000,62.98092504882813,3.139383316040039,-8.520841598510742,2.146361827850342
1780854601838957300,63.077957275390624,7.077969551086426,-10.116853713989258,-3.3104701042175293
1780854601897176800,63.1361767578125,1.9250258207321167,-13.306487083435059,2.5184457302093506
1780854601994209000,63.233208984375,-0.36251261830329895,-8.760123252868652,-3.4468610286712646
1780854602091241500,63.330241455078124,-1.7336000204086304,-13.148560523986816,5.467599868774414
1780854602188273700,63.42727368164063,2.9048867225646973,-6.535995006561279,-1.8436698913574219
1780854602246493200,63.4854931640625,2.719442844390869,-5.630311489105225,-3.64546537399292
1780854602343525400,63.582525390625,-0.4175475537776947,-8.455039024353027,4.045066833496094
1780854602440557800,63.67955786132813,6.419943332672119,-12.9954195022583,6.55992317199707
1780854602537590300,63.77659033203125,0.17946170270442963,-8.711071014404297,-2.981456995010376
1780854602595809500,63.8348095703125,0.6735795736312866,-14.102100372314453,-3.5306098461151123
1780854602692841700,63.931841796875,2.451446771621704,-7.623532772064209,-1.8975083827972412
1780854602789874200,64.02887426757812,-0.8973084688186646,-7.978867053985596,1.812563180923462
1780854602848093700,64.08709375,0.4247260093688965,-10.012765884399414,2.2648067474365234
1780854602945126000,64.1841259765625,3.696911096572876,-7.929814338684082,-1.932204246520996
1780854603042158000,64.28115795898438,2.007578134536743,-13.96690559387207,2.2480568885803223
1780854603139190500,64.3781904296875,0.2225325107574463,-8.628518104553223,-3.91705060005188
1780854603197409800,64.43640991210937,-0.2715853750705719,-18.057435989379883,0.9631111025810242
1780854603294442200,64.53344213867187,0.12323036789894104,-8.415556907653809,0.605384111404419
1780854603391474400,64.63047436523438,2.4574289321899414,-5.333601474761963,-3.541377544403076
1780854603488507000,64.7275068359375,-1.2430713176727295,-8.679964065551758,4.04985237121582
1780854603546726100,64.78572607421874,4.604987144470215,-16.161123275756836,0.5491527915000916
1780854603643758300,64.88275830078125,-3.9984066486358643,-13.055240631103516,-7.001399040222168
1780854603740790500,64.97979052734375,0.7860422134399414,-14.379667282104492,-3.600001573562622
1780854603799010000,65.03801000976563,-1.1054840087890625,-8.12123966217041,-3.135794162750244
1780854603896042500,65.13504248046875,3.610769271850586,-6.602993965148926,0.11485548317432404
1780854603993074700,65.23207470703124,1.3040883541107178,-9.245866775512695,2.073380708694458
1780854604090107000,65.32910693359375,4.977071285247803,-8.616554260253906,-3.2267212867736816
1780854604148326400,65.38732641601563,3.0999016761779785,-14.388042449951172,-0.9272187948226929
1780854604245358800,65.48435888671875,-2.059023857116699,-9.728020668029785,0.1579262912273407
1780854604342391000,65.58139111328126,-0.6640082597732544,-17.66142463684082,0.656829833984375
1780854604439423500,65.67842358398437,0.9930213689804077,-7.546962738037109,0.7465606927871704
1780854604497642500,65.736642578125,4.561916351318359,-4.865804672241211,-3.7806596755981445
1780854604594675000,65.83367504882813,4.140779495239258,-5.559723377227783,-0.29431718587875366
1780854604691707100,65.93070703125,3.6406795978546143,-15.105889320373535,1.451246976852417
1780854604788739600,66.02773950195312,-1.726421594619751,-10.354940414428711,-5.672185897827148
1780854604846958800,66.08595874023437,1.781456470489502,-10.445867538452148,-0.4331009089946747
1780854604943991000,66.18299096679688,0.02871387079358101,-7.844869136810303,-3.1334011554718018
1780854605041023200,66.28002319335937,3.321237802505493,-7.191628456115723,1.0755738019943237
1780854605099242800,66.33824267578125,-0.6101697683334351,-9.637093544006348,2.6428725719451904
1780854605196275000,66.43527490234375,1.9525432586669922,-7.940581798553467,0.259621262550354
1780854605273901000,66.51290112304687,2.2743778228759766,-14.169098854064941,-2.359323024749756
1780854605332120000,66.5711201171875,2.365305185317993,-11.583654403686523,3.830909013748169
1780854605429152500,66.66815258789063,1.1114661693572998,-11.227124214172363,-3.783052682876587
1780854605526184700,66.76518481445312,-2.0578274726867676,-9.605986595153809,2.7840490341186523
1780854605584404000,66.82340405273438,2.7661030292510986,-6.55992317199707,-1.1497513055801392
1780854605681436200,66.92043627929688,1.4727823734283447,-5.9437713623046875,-2.6572296619415283
1780854605778468600,67.01746850585937,2.6273193359375,-14.452649116516113,2.108076810836792
1780854605933720300,67.17272021484375,-0.30508488416671753,-8.623732566833496,-3.954139471054077
1780854606030752500,67.26975244140625,-0.9236295223236084,-10.730612754821777,-2.999403238296509
1780854606127784700,67.36678466796874,3.8979079723358154,-7.456035137176514,0.5407779216766357
1780854606186004000,67.42500390625,-0.15912270545959473,-7.458428382873535,1.1186445951461792
1780854606283036400,67.52203637695312,3.535395383834839,-7.728816986083984,2.0279171466827393
1780854606380068600,67.61906860351563,6.098108291625977,-11.906685829162598,-4.1623148918151855
1780854606477101000,67.71610107421876,0.9499505758285522,-10.809576034545898,4.394418716430664
1780854606535320300,67.7743203125,-0.4701896607875824,-8.401200294494629,-2.4538395404815674
1780854606632352500,67.8713525390625,-1.7407784461975098,-13.088739395141602,4.280759811401367
1780854606729384700,67.968384765625,3.1130621433258057,-6.1914286613464355,-1.5302101373672485
1780854606826417200,68.06541723632813,2.465803623199463,-5.429314613342285,-2.3030917644500732
1780854606884636200,68.12363623046875,0.8590233325958252,-9.970891952514648,3.6873397827148438
1780854606981668600,68.22066870117187,6.306283950805664,-13.111472129821777,5.955735683441162
1780854607078700800,68.31770068359376,0.4570291340351105,-8.498109817504883,-2.1236300468444824
1780854607136920300,68.37592041015625,-0.5623133182525635,-13.824532508850098,-3.5066816806793213
1780854607233952300,68.4729521484375,2.6117658615112305,-7.447660446166992,-1.4057832956314087
1780854607330984700,68.56998461914063,-0.29790642857551575,-8.48734188079834,2.3365912437438965
1780854607428017000,68.66701684570313,1.4608181715011597,-8.517251968383789,0.3242274820804596
1780854607486236400,68.725236328125,6.230910301208496,-8.958727836608887,-2.6727828979492188
1780854607583268400,68.82226831054687,1.1437692642211914,-12.809975624084473,2.4765713214874268
1780854607680300800,68.91930078125,1.368694543838501,-8.536395072937012,-2.5603201389312744
1780854607777333000,69.0163330078125,-2.9312076568603516,-11.094322204589844,2.6907291412353516
1780854607835552300,69.07455224609375,0.6891329288482666,-7.1270222663879395,-0.6664010882377625
1780854607932584400,69.17158447265625,2.251646041870117,-5.995217323303223,-2.1332013607025146
1780854608029617000,69.26861694335938,1.6259230375289917,-13.707284927368164,2.0039889812469482
1780854608087836200,69.32683618164063,4.960321426391602,-12.76929759979248,3.570091485977173
1780854608184868400,69.42386840820312,-1.7934205532073975,-9.363115310668945,-5.371886730194092
1780854608281900500,69.52090063476562,-1.0217353105545044,-11.861222267150879,-3.617947816848755
1780854608378933000,69.61793310546875,3.390629768371582,-7.560122966766357,-0.5982056856155396
1780854608437152300,69.67615234375,1.5708880424499512,-6.872186660766602,0.8733802437782288
1780854608534184400,69.77318432617187,2.695514678955078,-8.670392990112305,1.5146567821502686
1780854608631216600,69.87021655273438,7.286144733428955,-9.454042434692383,-2.89890456199646
1780854608728249000,69.9672490234375,1.934597134590149,-10.711470603942871,3.7674992084503174
1780854608786468400,70.02546826171876,-0.23210379481315613,-9.299705505371094,-2.4299113750457764
1780854608883500800,70.12250073242187,-0.8386843204498291,-13.04207992553711,4.7234320640563965
1780854608980532700,70.21953271484375,2.3018953800201416,-6.547959327697754,-1.4033905267715454
1780854609038752300,70.27775219726563,2.1930220127105713,-5.962913990020752,-2.726621389389038
1780854609135784700,70.37478466796875,2.417947292327881,-9.710074424743652,3.810570001602173
1780854609232817000,70.47181689453124,5.62672233581543,-12.701102256774902,6.299105644226074
1780854609329849300,70.56884936523437,-0.35892340540885925,-8.80798053741455,-2.6907291412353516
1780854609388068400,70.627068359375,1.129412293434143,-12.829118728637695,-2.496910333633423
1780854609485100800,70.72410083007813,2.517249345779419,-8.242077827453613,-1.179661512374878
1780854609582133000,70.82113305664062,-0.21774685382843018,-7.995616912841797,2.0578274726867676
1780854609679165400,70.91816552734375,2.8079774379730225,-8.12961483001709,1.7395820617675781
1780854609737384400,70.97638452148438,2.255235433578491,-8.774480819702148,-1.867598056793213
1780854609834417000,71.0734169921875,1.8508483171463013,-14.065011024475098,1.7886348962783813
1780854609931449000,71.17044897460937,0.6831508874893188,-7.130611419677734,-3.2757742404937744
1780854609989668600,71.22866870117187,1.3028919696807861,-16.996219635009766,1.0121639966964722
1780854610086700800,71.32570068359375,-0.3194418251514435,-7.9621171951293945,-0.5527420043945312
1780854610183733200,71.42273315429688,1.8616160154342651,-5.918646812438965,-2.6081767082214355
1780854610280765400,71.51976538085937,-0.7322037220001221,-9.315258979797363,3.6921253204345703
1780854610338984700,71.57798461914062,3.730410575866699,-15.729219436645508,-0.8733802437782288
1780854610436017000,71.67501684570313,-1.9932212829589844,-11.903096199035645,-5.289334297180176
1780854610533049300,71.77204931640625,1.4189438819885254,-14.410774230957031,-4.595416069030762
1780854610630081500,71.86908154296874,2.3437697887420654,-8.6033935546875,-0.2715853750705719
1780854610688300800,71.92730078125,3.049652576446533,-6.859025955200195,0.6963114142417908
1780854610785333200,72.02433325195312,1.0480563640594482,-9.542576789855957,1.8556339740753174
1780854610882365700,72.12136572265625,4.266402721405029,-8.405985832214355,-1.2382856607437134
1780854610940585000,72.1795849609375,2.14516544342041,-14.298311233520508,-2.2600209712982178
1780854611037617200,72.2766171875,-1.8472590446472168,-9.91107177734375,0.3206382393836975
1780854611134649300,72.3736494140625,1.25144624710083,-17.042879104614258,0.6005984544754028
1780854611231681800,72.47068188476563,0.29431718587875366,-8.188239097595215,0.1495514214038849
1780854611289900800,72.52890087890626,3.1824541091918945,-6.282355785369873,-2.062613010406494
1780854611386933200,72.62593334960937,3.452843189239502,-4.790431022644043,-0.9487541913986206
1780854611483965400,72.72296533203125,3.759124279022217,-14.482559204101562,-0.24287149310112
1780854611580998000,72.81999780273438,-3.9361932277679443,-14.270793914794922,-5.539384365081787
1780854611639217200,72.87821704101563,0.8733802437782288,-11.577672004699707,-1.1306086778640747
1780854611736249600,72.97524951171874,0.24167509377002716,-9.324830055236816,-2.8809585571289062
1780854611833281800,73.07228173828125,1.0049854516983032,-6.814758777618408,1.3806586265563965
1780854611891501000,73.1305009765625,-0.10289137065410614,-9.078369140625,1.8041882514953613
1780854611988533200,73.227533203125,2.135594129562378,-7.460821151733398,0.5958128571510315
1780854612085565700,73.32456567382812,0.07776673883199692,-16.034303665161133,-0.9774680733680725
1780854612182598100,73.42159814453125,-1.4093725681304932,-9.632308006286621,-1.6689938306808472
1780854612240817400,73.4798173828125,0.08733802288770676,-15.948163032531738,-1.144965648651123
1780854612337849600,73.576849609375,-0.1782652884721756,-7.677371501922607,2.390429735183716
1780854612434882000,73.67388208007813,2.9527430534362793,-5.544169902801514,-3.6430723667144775
1780854612493101300,73.73210131835937,1.3555340766906738,-5.2115678787231445,-1.8580267429351807
1780854612590133500,73.82913354492187,2.4059832096099854,-15.626328468322754,-0.21415762603282928
1780854612687165700,73.92616577148438,0.0729810893535614,-12.973884582519531,-2.8247270584106445
1780854612784198100,74.0231982421875,2.317448616027832,-13.141382217407227,-3.487539052963257
1780854612842417700,74.08141772460938,-0.6711867451667786,-9.001798629760742,-5.700900077819824
1780854612939449900,74.17844995117187,4.581058979034424,-6.429514408111572,0.9702895879745483
1780854613036482000,74.27548193359375,0.5168496966362,-9.835697174072266,2.465803623199463
1780854613133514500,74.37251440429688,3.906282901763916,-8.642875671386719,-0.3206382393836975
1780854613191733800,74.43073364257812,2.181057929992676,-14.764911651611328,-2.2612173557281494
1780854613288766000,74.52776586914062,-1.2502498626708984,-9.804591178894043,-0.1495514214038849
1780854613385798100,74.62479809570313,-1.5720844268798828,-17.46999740600586,3.999603033065796
1780854613444017700,74.683017578125,-1.4225330352783203,-8.95513916015625,3.238685369491577
1780854613541050000,74.78005004882813,3.4372897148132324,-5.617151260375977,-3.410968780517578
1780854613638082300,74.87708227539062,3.170490026473999,-5.708078384399414,-0.18903298676013947
1780854613735114800,74.97411474609375,4.509274482727051,-14.330615043640137,0.7561319470405579
1780854613793333800,75.03233374023438,3.019742250442505,-14.017154693603516,0.6616154313087463
1780854613890366200,75.1293662109375,2.6392834186553955,-12.805190086364746,-1.8077775239944458
1780854613987398400,75.2263984375,-0.02512463741004467,-8.632107734680176,-2.5148565769195557
1780854614084430800,75.32343090820312,2.1296122074127197,-6.9344000816345215,1.0887342691421509
1780854614142650000,75.38165014648438,-1.25144624710083,-9.718449592590332,1.6235301494598389
1780854614239682600,75.4786826171875,2.933600664138794,-8.878568649291992,0.2883351147174835
1780854614336714800,75.57571484375,0.2883351147174835,-14.847464561462402,1.1186445951461792
1780854614394934300,75.63393432617187,-0.6005984544754028,-11.407781600952148,1.5146567821502686
1780854614491966500,75.73096655273437,2.166700839996338,-14.586647033691406,-2.3784656524658203
1780854614588999000,75.8279990234375,-1.5086746215820312,-8.709874153137207,1.2035897970199585
1780854614686031000,75.92503100585938,3.5365917682647705,-5.181657314300537,-2.568695068359375
1780854614744250400,75.98325048828124,2.6261229515075684,-5.139782905578613,-1.2335001230239868
1780854614841282600,76.08028247070312,2.926422119140625,-16.0642147064209,-0.7776673436164856
1780854614938315000,76.17731494140625,0.8997012972831726,-13.01097297668457,-3.087937593460083
1780854615035347200,76.27434716796876,1.2873386144638062,-12.546765327453613,-0.9104689955711365
1780854615093566700,76.33256665039063,-0.537188708782196,-10.3621187210083,-3.865604877471924
1780854615190599000,76.42959887695312,4.170690059661865,-7.010970115661621,0.064606212079525
1780854615287631400,76.52663134765625,0.02273181453347206,-9.236295700073242,2.2372891902923584
1780854615345851000,76.58485083007812,2.495713949203491,-8.26839828491211,2.5148565769195557
1780854615442883000,76.68188305664063,5.737988471984863,-11.170892715454102,-4.411168575286865
1780854615539915300,76.77891528320312,0.12681959569454193,-11.921042442321777,2.9168508052825928
1780854615636947700,76.87594775390625,0.8003991842269897,-13.5242338180542,-3.428914785385132
1780854615695167000,76.9341669921875,-0.3756731450557709,-12.507284164428711,4.47697114944458
1780854615792199200,77.03119921875,2.5220351219177246,-6.128018856048584,-1.490728497505188
1780854615889231400,77.1282314453125,1.8687944412231445,-6.057430744171143,-1.8903298377990723
1780854615986264000,77.22526416015624,2.882154941558838,-15.481562614440918,1.2382856607437134
1780854616044483000,77.28348315429687,6.87099027633667,-12.061022758483887,6.770491600036621
1780854616141515500,77.380515625,1.5002998113632202,-8.304290771484375,-0.6939185857772827
1780854616238547700,77.47754760742187,-2.17627215385437,-11.790633201599121,-4.191029071807861
1780854616296767200,77.53576733398438,1.2299108505249023,-7.618747234344482,-1.7204394340515137
1780854616393799700,77.63279956054687,1.6821542978286743,-7.140182971954346,1.210768222808838
1780854616490832000,77.72983178710938,2.9036903381347656,-8.257631301879883,1.950150489807129
1780854616587864000,77.82686401367188,6.805187702178955,-10.698309898376465,-2.7385854721069336
1780854616646083600,77.88508349609376,1.470389485359192,-13.700105667114258,2.108076810836792
1780854616743116000,77.98211596679687,1.430907964706421,-6.860222339630127,-3.806980848312378
1780854616840148200,78.07914819335937,-1.2681959867477417,-12.636496543884277,3.4372897148132324
1780854616937180400,78.17618041992188,2.6763720512390137,-6.236892223358154,-1.3615161180496216
1780854616995399700,78.23439965820313,2.403590440750122,-5.374279499053955,-2.7768707275390625
1780854617092432100,78.33143212890624,-0.4737788736820221,-12.032308578491211,4.076173305511475
1780854617189464300,78.42846435546875,6.209374904632568,-11.80738353729248,4.490131855010986
1780854617286496800,78.52549682617187,0.8757730722427368,-8.5100736618042,-0.004785645287483931
1780854617344716000,78.58371606445313,1.7455641031265259,-13.724034309387207,-3.809373617172241
1780854617441748500,78.68074853515625,1.6007983684539795,-7.597211837768555,-0.6376872062683105
1780854617538780700,78.77778076171874,-1.9836499691009521,-8.128418922424316,1.7838492393493652
1780854617597000000,78.836,1.5445669889450073,-9.379864692687988,1.1461620330810547
1780854617694032100,78.9330322265625,7.909475326538086,-8.038687705993652,-0.9762716293334961
1780854617791064600,79.03006469726563,0.8769695162773132,-13.86521053314209,2.2468605041503906
1780854617888096800,79.1270966796875,1.9597218036651611,-8.605786323547363,-4.01037073135376
1780854617946316300,79.18531640625,-0.7860422134399414,-15.8572359085083,2.9347970485687256
1780854618043348500,79.28234838867188,0.8685946464538574,-7.779066562652588,-0.8195417523384094
1780854618140381000,79.379380859375,2.2576282024383545,-5.740381717681885,-2.304288148880005
1780854618237413000,79.4764130859375,1.153340458869934,-14.628520965576172,2.833101987838745
1780854618295632400,79.53463232421875,5.02133846282959,-12.607782363891602,4.984249591827393
1780854618392664600,79.63166455078125,-0.5623133182525635,-9.337990760803223,-3.7124643325805664
1780854618489697000,79.72869702148438,-0.3900300860404968,-12.021540641784668,-3.5844483375549316
1780854618547916300,79.78691625976562,1.062413215637207,-8.408378601074219,-2.7936203479766846
1780854618644948700,79.88394873046875,1.5074782371520996,-6.660421848297119,1.1318050622940063
1780854618741981000,79.98098095703125,2.1918256282806396,-9.470791816711426,1.9417755603790283
1780854618839013400,80.07801342773438,7.10429048538208,-8.642875671386719,-2.500499725341797
1780854618897232400,80.136232421875,0.6592226624488831,-14.7206449508667,-0.8255237936973572
1780854618994264800,80.23326489257812,-1.5361921787261963,-8.617751121520996,-0.16031911969184875
1780854619091297000,80.33029711914062,-1.2251251935958862,-15.663416862487793,2.4370899200439453
1780854619149516500,80.3885166015625,-1.215553879737854,-8.45743179321289,2.2959132194519043
1780854619246548700,80.485548828125,3.0352954864501953,-5.863611698150635,-2.276770830154419
1780854619343581200,80.58258129882813,2.5710878372192383,-5.5106706619262695,0.6783652305603027
1780854619440613400,80.67961328125,4.374079704284668,-13.447663307189941,3.291327476501465
1780854619498833000,80.7378330078125,1.6354942321777344,-12.866207122802734,-3.4169507026672363
1780854619595864800,80.83486474609376,1.4608181715011597,-13.164113998413086,-0.6520441770553589
1780854619692897300,80.93189721679687,0.916451096534729,-7.424928665161133,-2.8223342895507812
1780854619789929500,81.02892944335937,1.628315806388855,-6.788437843322754,1.2394821643829346
1780854619848148700,81.08714868164063,-0.37926238775253296,-7.982456207275391,2.0410776138305664
1780854619945181200,81.18418115234375,8.23968505859375,-10.707880973815918,-1.9226330518722534
1780854620042213400,81.28121337890624,1.4261223077774048,-14.520844459533691,1.093519926071167
1780854620100433000,81.33943286132812,0.16510476171970367,-7.793423175811768,0.06580262631177902
1780854620197465000,81.43646508789062,-0.778863787651062,-17.568103790283203,0.11246266216039658
1780854620294497300,81.53349731445313,0.16390834748744965,-7.7491559982299805,-0.2392822653055191
1780854620391529700,81.63052978515626,2.1714866161346436,-5.535795211791992,-1.7515461444854736
1780854620449749000,81.6887490234375,3.6945180892944336,-5.138586521148682,-1.420140266418457
1780854620546781200,81.78578125,3.7088751792907715,-17.367107391357422,1.7694923877716064
1780854620643813400,81.8828134765625,-1.1820544004440308,-9.842875480651855,-5.887540340423584
1780854620799065000,82.03806518554687,-0.7932206988334656,-7.8664045333862305,-3.4959139823913574
1780854620896097300,82.13509716796875,4.011567115783691,-6.114858150482178,0.4989035129547119
1780854620993129500,82.23212939453126,0.607776939868927,-9.379864692687988,1.6091731786727905
1780854621090162000,82.32916186523437,4.553541660308838,-9.21715259552002,-1.7802600860595703
1780854621148381200,82.38738110351562,1.9202401638031006,-13.970495223999023,-1.1545369625091553
1780854621245413600,82.48441357421875,-1.2885349988937378,-9.268598556518555,0.4953143000602722
1780854621342445600,82.58144555664063,-0.2273181527853012,-17.115859985351562,-0.8171489238739014
1780854621400665000,82.6396650390625,-1.404586911201477,-10.480563163757324,3.0939197540283203
1780854621497697500,82.73669750976562,3.0305099487304688,-5.875576019287109,-0.9487541913986206
1780854621594729700,82.83372973632812,2.5878376960754395,-5.97727108001709,-1.592423439025879
1780854621691762000,82.93076196289063,3.267399311065674,-14.92283821105957,2.7589244842529297
1780854621749981200,82.98898120117188,4.225724697113037,-14.886945724487305,1.825723648071289
1780854621847013600,83.086013671875,2.8773691654205322,-8.09252643585205,-0.48813581466674805
1780854621944045800,83.1830458984375,-0.5539384484291077,-9.550951957702637,-1.97407865524292
1780854622002265000,83.24126513671875,1.8963119983673096,-8.476573944091797,-0.08733802288770676
1780854622099297300,83.33829736328126,0.37088751792907715,-7.0301127433776855,0.22851456701755524
1780854622196329700,83.43532983398437,1.4835500717163086,-8.544769287109375,0.12921242415905
1780854622293362000,83.53236181640625,5.349154949188232,-11.540583610534668,-0.6245267391204834
1780854622351581200,83.59058129882813,2.5399811267852783,-13.100704193115234,2.5292134284973145
1780854622448613400,83.68761328125,-0.20099709928035736,-9.547362327575684,-4.40757942199707
1780854622545645600,83.7846455078125,-0.6735795736312866,-12.32542896270752,4.311866283416748
1780854622642677800,83.881677734375,3.6885361671447754,-6.099305152893066,-1.919043779373169
1780854622700897300,83.93989721679688,2.537588357925415,-5.862415313720703,-3.049652576446533
1780854622797929500,84.03692944335937,1.210768222808838,-7.601997375488281,3.387040376663208
1780854622894961400,84.13396142578125,5.876772403717041,-11.58126163482666,5.570491313934326
1780854622991993900,84.23099389648438,-1.4404792785644531,-10.783255577087402,-2.59621262550354
1780854623050213000,84.28921313476563,1.2095718383789062,-11.461620330810547,-1.2717852592468262
1780854623147245300,84.38624536132812,0.3936193287372589,-8.595019340515137,-1.2454642057418823
1780854623244277500,84.48327758789063,3.510270833969116,-6.803991317749023,1.0827522277832031
1780854623302497000,84.5414970703125,-0.7597211599349976,-9.073583602905273,0.9834501147270203
1780854623399529200,84.638529296875,4.43031120300293,-9.422935485839844,-1.0564311742782593
1780854623496561400,84.7355615234375,2.1822543144226074,-13.182060241699219,1.7910277843475342
1780854623593593900,84.83259375,-0.6604190468788147,-10.159924507141113,-3.9601213932037354
1780854623651812900,84.89081274414062,-0.6245267391204834,-15.773487091064453,-1.659422516822815
1780854623748845300,84.98784521484374,-0.21655045449733734,-8.160721778869629,1.7288143634796143
1780854623845877500,85.08487744140625,2.5016961097717285,-6.39601469039917,-3.0592236518859863
1780854623904096800,85.1430966796875,3.6394832134246826,-5.665007591247559,-1.6534404754638672
1780854624001129000,85.24012890625,3.647858142852783,-17.18644905090332,1.6785650253295898
1780854624098161200,85.3371611328125,-0.2560320198535919,-11.741580963134766,-5.426921844482422
1780854624195193300,85.434193359375,1.3471591472625732,-12.825529098510742,-1.659422516822815
1780854624253412600,85.49241259765626,-1.3495519161224365,-9.081958770751953,-3.7639100551605225
1780854624350444800,85.58944482421875,3.38105845451355,-6.807580471038818,-0.064606212079525
1780854624447477200,85.68647729492187,0.2907279431819916,-9.66221809387207,1.8149559497833252
1780854624544509200,85.78350927734375,3.13220477104187,-9.399007797241211,-1.6414763927459717
1780854624602728700,85.84172875976563,3.9158542156219482,-12.299108505249023,-0.5204389095306396
1780854624699761000,85.93876098632812,0.4618147611618042,-9.193224906921387,0.6436693072319031
1780854624796792800,86.03579272460938,0.6664010882377625,-16.371692657470703,-1.9573289155960083
1780854624893825300,86.1328251953125,0.19740787148475647,-8.277970314025879,0.30149564146995544
1780854624952044500,86.19104443359375,4.088137626647949,-5.769095420837402,-2.1260228157043457
1780854625049076700,86.28807666015625,4.419543266296387,-4.870590686798096,-0.6879364848136902
1780854625146108700,86.38510864257813,4.107280254364014,-15.650256156921387,-0.08733802288770676
1780854625204328200,86.443328125,5.699703693389893,-13.379467964172363,3.397808074951172
1780854625301360400,86.5403603515625,2.0099709033966064,-8.112865447998047,0.1256231814622879
1780854625398392600,86.637392578125,-1.0863415002822876,-8.525627136230469,-3.280559778213501
1780854625495424800,86.7344248046875,3.6287155151367188,-6.455835342407227,-0.038285162299871445
1780854625553644000,86.79264404296875,-1.215553879737854,-7.885547161102295,1.4979069232940674
1780854625650676200,86.88967626953125,2.888136863708496,-8.669196128845215,1.4632110595703125
1780854625747708400,86.98670849609375,3.2410783767700195,-13.582858085632324,-2.785245656967163
1780854625844740600,87.08374072265624,-0.98703932762146,-9.80937671661377,0.9391828775405884
1780854625902959900,87.1419599609375,1.5038890838623047,-8.910871505737305,-3.5581271648406982
1780854625999992000,87.23899194335938,-1.657029628753662,-10.194621086120605,2.6117658615112305
1780854626097024300,87.33602416992187,2.8390841484069824,-5.669793128967285,-1.6019947528839111
1780854626155243500,87.39424340820312,2.706282377243042,-5.793023586273193,-2.7912275791168213
1780854626252275700,87.49127563476563,0.7345965504646301,-11.905488967895508,3.3092737197875977
1780854626349308000,87.58830786132812,4.557130813598633,-14.226527214050293,3.954139471054077
1780854626504559400,87.74355932617188,-1.1030912399291992,-13.72642707824707,-4.679164886474609
1780854626601591600,87.84059155273438,2.444268226623535,-7.47637414932251,-1.2789636850357056
1780854626698623700,87.93762377929687,-1.0947163105010986,-8.688339233398438,1.6498512029647827
1780854626795656000,88.03465600585938,2.169093608856201,-8.34138011932373,1.7431713342666626
1780854626853875200,88.09287524414063,6.2297139167785645,-8.8438720703125,-3.345165967941284
1780854626950907400,88.18990747070312,1.4967105388641357,-13.64148235321045,3.8907296657562256
1780854627047939300,88.28693920898438,1.5290136337280273,-8.34855842590332,-3.961317777633667
1780854627106158800,88.34515893554688,-1.7383856773376465,-16.26760482788086,2.7050859928131104
1780854627203191000,88.44219091796874,0.47258245944976807,-7.665407180786133,-1.176072359085083
1780854627300223200,88.53922314453125,2.2372891902923584,-6.16271448135376,-2.7385854721069336
1780854627397255200,88.63625512695313,1.5649060010910034,-11.636296272277832,2.878565549850464
1780854627455474700,88.694474609375,4.425525665283203,-13.807783126831055,1.337587833404541
1780854627552507000,88.7915068359375,-3.511467218399048,-11.668600082397461,-6.440282344818115
1780854627649538800,88.88853881835938,0.5000999569892883,-14.860625267028809,-2.764906644821167
1780854627746571300,88.9855712890625,1.5756736993789673,-7.817351341247559,-1.1868400573730469
1780854627804790300,89.04379028320312,4.862215518951416,-6.674778938293457,0.2679961323738098
1780854627901822500,89.14082250976563,0.8973084688186646,-9.107083320617676,1.4931213855743408
1780854627998854700,89.23785473632813,7.806583881378174,-8.825926780700684,-2.0195422172546387
1780854628095886800,89.33488696289062,2.1439690589904785,-12.253644943237305,2.128415822982788
1780854628154106000,89.39310620117188,-0.8685946464538574,-9.05444049835205,0.32542386651039124
1780854628251138300,89.49013818359376,-1.0157532691955566,-16.17548179626465,0.8662018179893494
1780854628348170500,89.58717041015625,0.22971096634864807,-7.970492362976074,0.2105683982372284
1780854628406389500,89.64538940429688,3.682554006576538,-5.675775527954102,-2.8187451362609863
1780854628503421700,89.74242163085937,3.744767427444458,-5.158925533294678,-0.9523434042930603
1780854628600454000,89.83945385742187,4.930410861968994,-15.55215072631836,1.1521440744400024
1780854628658673200,89.89767309570313,1.9680966138839722,-15.095121383666992,0.23808585107326508
1780854628755705300,89.99470532226563,2.190629243850708,-11.862418174743652,-0.9248259663581848
1780854628852737500,90.09173754882812,-0.3326023519039154,-7.800601959228516,-2.6321048736572266
1780854628949769700,90.18876977539063,3.232703447341919,-6.539584159851074,0.6675975322723389
1780854629007988700,90.24698876953126,-1.3818551301956177,-8.537590980529785,1.5984054803848267
1780854629105021000,90.34402099609375,2.830709218978882,-9.245866775512695,-0.6352944374084473
1780854629202053000,90.44105322265625,-0.5024927258491516,-15.332011222839355,0.29431718587875366
1780854629299085300,90.53808520507812,-0.9858429431915283,-8.935996055603027,-2.1714866161346436
1780854629357304300,90.59630419921875,1.31365966796875,-13.676177978515625,-2.6249263286590576
1780854629454336500,90.69333642578125,-0.4989035129547119,-8.426324844360352,0.6161518096923828
1780854629551368700,90.79036865234374,2.678765058517456,-5.900700569152832,-1.97407865524292
1780854629609588000,90.848587890625,2.5710878372192383,-5.733202934265137,-1.8149559497833252
1780854629706620200,90.9456201171875,3.4911282062530518,-14.30907917022705,0.885344386100769
1780854629803652000,91.04265209960937,-0.26440688967704773,-13.122239112854004,-3.451646566390991
1780854629900684300,91.13968432617187,2.6596224308013916,-12.722638130187988,-1.8819550275802612
1780854629958903600,91.19790356445313,-2.60339093208313,-9.714859962463379,-4.768895626068115
1780854630055935700,91.29493579101562,6.31944465637207,-5.766702651977539,-0.15553347766399384
1780854630152968000,91.39196801757812,-0.137587308883667,-9.744770050048828,1.5649060010910034
1780854630211187200,91.45018725585938,2.6572296619415283,-7.324429988861084,3.236292600631714
1780854630308219100,91.54721923828124,1.8843477964401245,-13.775480270385742,-3.759124279022217
1780854630405251300,91.64425122070313,0.0023928226437419653,-10.626524925231934,2.688336133956909
1780854630502283300,91.741283203125,-0.4366901218891144,-17.837295532226562,-1.8903298377990723
1780854630560502500,91.79950244140625,-0.5575276613235474,-10.553544044494629,3.1788649559020996
1780854630657534700,91.89653466796875,2.4813570976257324,-5.522634506225586,-1.3040883541107178
1780854630754567000,91.99356689453126,3.7782669067382812,-4.811966419219971,-2.2360928058624268
1780854630851599000,92.09059912109375,4.00319242477417,-16.475780487060547,0.3565305769443512
1780854630909818000,92.14881811523438,6.157928943634033,-12.461820602416992,4.168296813964844
1780854631006850300,92.24585034179688,1.1102696657180786,-8.34138011932373,0.3206382393836975
1780854631103882200,92.34288232421875,-1.5302101373672485,-8.988637924194336,-4.1036906242370605
1780854631162101500,92.4011015625,1.970489501953125,-7.540980339050293,-0.714257538318634
1780854631259133700,92.4981337890625,0.05623133108019829,-7.9621171951293945,1.710868239402771
1780854631356165600,92.59516552734375,2.33180570602417,-8.556734085083008,1.2131611108779907
1780854631453197800,92.69219775390626,5.897111415863037,-11.334800720214844,-2.087737798690796
1780854631511417000,92.7504169921875,1.4069796800613403,-13.667802810668945,2.96111798286438
1780854631608449000,92.84744897460938,0.8195417523384094,-8.873783111572266,-3.6323046684265137
1780854631705481200,92.94448120117187,-1.6869399547576904,-11.834900856018066,2.7110681533813477
1780854631802513400,93.04151342773437,2.599801778793335,-6.4941205978393555,-2.097309112548828
1780854631860732400,93.099732421875,2.2444677352905273,-6.16391134262085,-2.5220351219177246
1780854631957764600,93.1967646484375,0.5060819983482361,-10.067801475524902,3.6335012912750244
1780854632054796500,93.29379663085938,5.279763221740723,-13.689338684082031,5.19242525100708
1780854632151828700,93.39082885742188,3.3020951747894287,-7.308876991271973,-0.16390834748744965
1780854632210048000,93.44904809570312,0.064606212079525,-15.224333763122559,-2.568695068359375
1780854632307080000,93.54607983398438,2.1343977451324463,-7.740781307220459,-1.0121639966964722
1780854632404112100,93.64311206054687,0.4163511395454407,-7.310073375701904,0.9427721500396729
1780854632462331400,93.70133129882812,0.2835494875907898,-9.639486312866211,1.7001005411148071
1780854632559363300,93.79836328125,2.8929226398468018,-9.308079719543457,-1.8699909448623657
1780854632656395500,93.8953955078125,-0.5706881880760193,-17.193626403808594,4.576273441314697
1780854632753427700,93.992427734375,1.8269200325012207,-7.004988193511963,-5.5142598152160645
1780854632811646700,94.05064672851563,-2.0398812294006348,-16.07976722717285,2.9587252140045166
1780854632908679000,94.14767895507812,0.776470959186554,-7.776673793792725,0.020338991656899452
1780854633005710800,94.2447109375,2.623729944229126,-6.393621921539307,-2.528017044067383
1780854633102743000,94.34174291992187,-0.6652047038078308,-8.10807991027832,3.8811583518981934
1780854633160962000,94.39996215820312,4.614558696746826,-16.606189727783203,2.3736801147460938
1780854633257994200,94.496994140625,-2.1774685382843018,-9.026923179626465,-4.615755081176758
1780854633355026200,94.59402612304687,-0.6508477330207825,-15.63829231262207,-3.4193434715270996
1780854633413245400,94.65224536132813,-0.18065811693668365,-7.848458290100098,-3.1070802211761475
1780854633510277400,94.74927734375,4.296313285827637,-6.508477687835693,0.1423729509115219
1780854633607309600,94.8463095703125,0.31465616822242737,-9.546165466308594,1.5744773149490356
1780854633704341800,94.943341796875,6.401997089385986,-8.714659690856934,-2.575873613357544
1780854633762560800,95.00156079101562,2.2025933265686035,-13.489537239074707,-1.3004990816116333
1780854633859593000,95.09859301757812,-2.5232315063476562,-10.176674842834473,-0.8901300430297852
1780854633956625000,95.195625,-0.04905286431312561,-16.028322219848633,4.013959884643555
1780854634014844200,95.25384423828125,-2.094916343688965,-9.119047164916992,2.062613010406494
1780854634111876000,95.3508759765625,3.432504177093506,-5.3312087059021,-2.3437697887420654
1780854634208908300,95.447908203125,2.884547710418701,-5.862415313720703,-1.4967105388641357
1780854634305940200,95.54494018554688,4.088137626647949,-14.851054191589355,0.02273181453347206
1780854634364159500,95.60315942382813,4.157529354095459,-15.511472702026367,2.3258235454559326
1780854634461191400,95.70019140625,3.397808074951172,-11.428120613098145,-1.820937991142273
1780854634558223600,95.7972236328125,-0.8566305041313171,-8.909674644470215,-2.4777679443359375
1780854634655255300,95.89425537109375,3.651447296142578,-6.750152587890625,0.6221339106559753
1780854634713474600,95.952474609375,-1.293320655822754,-9.519845008850098,1.8340985774993896
1780854634810506500,96.04950659179687,1.6893328428268433,-7.058826923370361,2.2504496574401855
1780854634907538700,96.14653857421875,2.181057929992676,-13.677373886108398,-1.3399807214736938
1780854634965758000,96.20475805664063,1.2251251935958862,-12.240484237670898,5.312066078186035
1780854635062790000,96.30178979492187,0.25722843408584595,-11.330015182495117,-6.0538411140441895
1780854635159821800,96.39882177734376,-0.9092726111412048,-9.4660062789917,1.919043779373169
1780854635256854000,96.49585400390625,2.9551360607147217,-5.295316696166992,-2.383251428604126
1780854635315073300,96.5540732421875,1.9980069398880005,-6.786045074462891,-1.8975083827972412
1780854635412105200,96.65110522460938,1.7395820617675781,-11.849257469177246,4.302295207977295
1780854635509137200,96.74813720703125,3.1130621433258057,-16.27358627319336,4.076173305511475
1780854635567356400,96.8063564453125,-1.4763715267181396,-8.134400367736816,-4.124029636383057
1780854635664388400,96.90338842773437,-2.091326951980591,-13.548161506652832,-3.59043025970459
1780854635761420300,97.00042016601563,1.9920248985290527,-8.251648902893066,-1.3794622421264648
1780854635858452500,97.09745239257812,-0.607776939868927,-8.761320114135742,1.7240287065505981
1780854635916671500,97.15567138671875,0.7250252366065979,-9.387042999267578,2.581855535507202
1780854636013703400,97.25270336914062,6.821937561035156,-8.798408508300781,-2.311466693878174
1780854636110735600,97.34973559570312,2.7254250049591064,-11.199605941772461,3.047259569168091
1780854636207767600,97.446767578125,-0.005982056725770235,-10.155138969421387,-4.338187217712402
1780854636265986800,97.50498681640624,-1.2813565731048584,-16.632511138916016,1.8005990982055664
1780854636363018800,97.60201879882813,0.09571290761232376,-8.00518798828125,0.015553346835076809
1780854636460050700,97.69905078125,2.4119651317596436,-6.273981094360352,-2.5124638080596924
1780854636518270000,97.75727001953125,4.511667251586914,-5.009374141693115,-1.0444670915603638
1780854636615302000,97.85430200195313,5.243870735168457,-15.220745086669922,1.5840486288070679
1780854636712333800,97.95133374023438,-4.636094093322754,-11.781062126159668,-5.525027275085449
1780854636809365800,98.04836572265626,-1.3184453248977661,-14.994623184204102,-5.340780258178711
1780854636867585000,98.1065849609375,-0.12323036789894104,-8.037490844726562,-3.5605201721191406
1780854636964617000,98.20361694335938,4.53200626373291,-6.307480335235596,0.30508488416671753
1780854637061649000,98.30064892578125,1.9884356260299683,-8.855836868286133,2.4717857837677
1780854637158681000,98.39768115234375,7.734799385070801,-8.556734085083008,-3.513859987258911
1780854637216900000,98.45590014648438,1.1186445951461792,-15.495919227600098,0.5108676552772522
1780854637313932000,98.55293212890625,-1.6342978477478027,-9.068798065185547,-1.5122638940811157
1780854637410964200,98.64996411132813,-1.6701902151107788,-15.921841621398926,3.6370904445648193
1780854637507996200,98.74699609375,0.11485548317432404,-7.253841876983643,-1.6223337650299072
1780854637566215200,98.80521508789063,3.658625841140747,-5.053641319274902,-2.0063817501068115
1780854637663247000,98.9022470703125,3.6047873497009277,-5.527420520782471,-0.4019941985607147
1780854637760279300,98.999279296875,4.526023864746094,-14.776876449584961,3.080759048461914
1780854637818498600,99.05749853515626,2.2851455211639404,-14.282758712768555,1.4632110595703125
1780854637915530200,99.1545302734375,1.794616937637329,-8.839086532592773,-1.0528420209884644
1780854638012562200,99.25156225585937,-0.3290131092071533,-8.342576026916504,-3.0352954864501953
1780854638109594400,99.34859448242187,4.118047714233398,-5.997610092163086,0.9260223507881165
1780854638167813400,99.4068134765625,-0.20937198400497437,-8.411968231201172,1.2598211765289307
1780854638264845300,99.50384521484375,1.825723648071289,-9.345169067382812,0.9774680733680725
1780854638361877200,99.60087719726563,2.5938198566436768,-13.0492582321167,-2.9766714572906494
1780854638458909400,99.69790942382812,-0.14715859293937683,-10.082158088684082,1.9597218036651611
1780854638517128400,99.75612841796875,0.9044869542121887,-8.003992080688477,-2.8893332481384277
1780854638614160400,99.85316040039062,-1.542174220085144,-11.569297790527344,3.284149169921875
1780854638711192300,99.9501923828125,2.633301258087158,-6.27996301651001,-1.3603196144104004
1780854638769411600,100.00841162109376,2.2325034141540527,-6.673582553863525,-2.438286304473877
1780854638866443500,100.10544360351562,0.2967100143432617,-9.489934921264648,5.123033046722412
1780854638963475500,100.20247534179687,6.375676155090332,-12.90329647064209,5.424529075622559
1780854639060507400,100.29950732421875,0.24287149310112,-8.644071578979492,-2.066202402114868
1780854639118726400,100.35772631835937,0.6699903607368469,-12.114861488342285,-0.625723123550415
1780854639215758600,100.45475854492187,1.3758729696273804,-6.942774772644043,-2.531606435775757
1780854639312790500,100.55179052734375,1.7539390325546265,-7.752745151519775,0.9415757060050964
1780854639409822500,100.64882250976562,1.7527425289154053,-8.567501068115234,0.5850451588630676
1780854639506854400,100.7458544921875,7.0025954246521,-9.967302322387695,-1.6522440910339355
1780854639565073400,100.80407348632812,1.6582261323928833,-14.524433135986328,2.682354211807251
1780854639662105300,100.90110522460938,-0.727418065071106,-8.301898002624512,-2.654836654663086
1780854639720324600,100.95932470703124,0.45583271980285645,-15.862021446228027,-1.9728822708129883
1780854639817356500,101.0563564453125,-1.2873386144638062,-8.267202377319336,0.42352959513664246
1780854639914388200,101.15338818359375,2.438286304473877,-5.766702651977539,-2.445464849472046
1780854640011420200,101.25042016601563,1.4931213855743408,-7.9381890296936035,3.3056845664978027
1780854640069639400,101.30863940429687,4.4243292808532715,-16.366907119750977,1.5002998113632202
1780854640166671400,101.40567138671875,-1.8891334533691406,-12.224930763244629,-5.820540904998779
1780854640263703300,101.50270336914062,1.1868400573730469,-14.648859977722168,-3.487539052963257
1780854640360735500,101.59973559570312,1.3208380937576294,-7.478767395019531,-1.2346965074539185
1780854640457767200,101.69676708984375,2.2648067474365234,-7.4572319984436035,1.5852450132369995
1780854640515986200,101.75498608398438,-0.30628129839897156,-9.287740707397461,2.021935224533081
1780854640613018000,101.85201806640625,4.232903480529785,-9.060422897338867,-1.526620864868164
1780854640671237400,101.9102373046875,0.989432156085968,-14.43350601196289,-1.9609181880950928
1780854640768269300,102.00726928710938,-0.4163511395454407,-9.772287368774414,1.2538390159606934
1780854640865301000,102.10430102539063,0.7417750358581543,-15.328421592712402,-2.0231316089630127
1780854640962333200,102.20133325195313,-0.9248259663581848,-8.453842163085938,0.8195417523384094
1780854641020552200,102.25955224609375,3.623929977416992,-6.120840549468994,-1.9262222051620483
1780854641117584100,102.35658422851563,2.806781053543091,-6.020341873168945,-1.5996019840240479
1780854641214616000,102.45361596679687,3.6909289360046387,-16.40160369873047,2.9204399585723877
1780854641272835300,102.51183544921875,6.607779502868652,-13.087543487548828,5.066802024841309
1780854641369867000,102.60886694335937,1.7407784461975098,-7.968099594116211,-0.6664010882377625
1780854641466899000,102.70589892578126,-1.7635103464126587,-9.34875774383545,-3.8632121086120605
1780854641563931100,102.80293115234375,3.0424740314483643,-6.91765022277832,0.3756731450557709
1780854641622150000,102.86114990234375,1.5445669889450073,-7.21316385269165,1.6247265338897705
1780854641719181800,102.95818188476562,1.8197416067123413,-8.24566650390625,2.392822742462158
1780854641816213800,103.0552138671875,4.572684288024902,-11.179266929626465,-3.844069480895996
1780854641913246000,103.15224584960937,0.25363919138908386,-11.416156768798828,2.7972097396850586
1780854641971464700,103.21046459960938,-0.35892340540885925,-8.671588897705078,-2.203789710998535
1780854642068496600,103.30749658203125,-1.404586911201477,-12.605389595031738,4.234099864959717
1780854642165528600,103.40452856445313,2.1643080711364746,-6.702296257019043,-1.526620864868164
1780854642223747600,103.46274755859375,2.6261229515075684,-5.862415313720703,-2.262413740158081
1780854642320779500,103.55977954101563,-0.1459621787071228,-8.896514892578125,4.0905303955078125
1780854642417811500,103.6568115234375,6.03948450088501,-11.741580963134766,5.96889591217041
1780854642514843400,103.75384350585938,0.43908295035362244,-9.418149948120117,-2.2360928058624268
1780854642573062400,103.8120625,0.7848458290100098,-13.35314655303955,-1.3902299404144287
1780854642670094300,103.90909423828126,0.6352944374084473,-7.122236728668213,-2.482553482055664
1780854642767126300,104.00612622070312,1.5948163270950317,-7.714460372924805,1.3543375730514526
1780854642864158200,104.103158203125,2.9659037590026855,-8.717052459716797,1.1066805124282837
1780854642922377200,104.16137719726562,3.913461446762085,-8.531609535217285,-1.1748759746551514
1780854643019409200,104.2584091796875,2.3294129371643066,-13.216755867004395,0.6999006271362305
1780854643116440800,104.35544091796875,0.02632104977965355,-10.526026725769043,-2.796013355255127
1780854643174660000,104.41366015625,-0.07417750358581543,-16.93161392211914,0.5934200286865234
1780854643271692000,104.51069213867187,0.16869398951530457,-7.981259822845459,0.1782652884721756
1780854643368724000,104.60772387695313,2.152343988418579,-6.015556335449219,-3.4337005615234375
1780854643465755600,104.70475561523438,1.3316057920455933,-9.615557670593262,3.817748546600342
1780854643523975000,104.76297485351563,4.226921081542969,-15.815361022949219,0.8099704384803772
1780854643621006600,104.86000659179687,-2.355733871459961,-12.696316719055176,-5.752345561981201
1780854643718038500,104.95703857421876,1.0325030088424683,-13.411770820617676,-2.8115665912628174
1780854643815070500,105.05407055664062,1.5278172492980957,-7.891529083251953,-1.7383856773376465
1780854643873289500,105.11228955078126,4.293920040130615,-6.649653911590576,0.6939185857772827
1780854643970321400,105.2093212890625,0.8015955686569214,-9.751948356628418,1.9692929983139038
1780854644067353000,105.30635302734375,4.362115859985352,-8.7445707321167,-1.3962119817733765
1780854644164385000,105.40338500976563,2.358126640319824,-13.076775550842285,1.0600204467773438
1780854644222604300,105.46160424804688,-1.1700903177261353,-9.840482711791992,0.4426721930503845
1780854644319636000,105.55863598632813,0.349352091550827,-16.6719913482666,-0.9320043921470642
1780854644416668000,105.65566796875,-0.13160525262355804,-8.400003433227539,0.47258245944976807
1780854644474887200,105.71388720703125,3.4983067512512207,-6.096911907196045,-2.7912275791168213
1780854644571918800,105.8109189453125,2.0482561588287354,-5.460421085357666,-1.7694923877716064
1780854644668950800,105.90795068359375,4.238885402679443,-16.712669372558594,0.3290131092071533
1780854644765982700,106.00498266601562,-2.0985054969787598,-12.019147872924805,-5.430510997772217
1780854644824201500,106.06320141601563,3.2482566833496094,-8.175078392028809,-0.3900300860404968
1780854644921233400,106.1602333984375,-2.1403799057006836,-8.84506893157959,-3.3583266735076904
1780854645018265300,106.25726538085938,5.660222053527832,-6.122036933898926,-0.33858439326286316
1780854645076484400,106.315484375,-2.273181438446045,-8.93958568572998,2.273181438446045
1780854645173516300,106.41251635742188,3.9828531742095947,-7.722835063934326,1.9956140518188477
1780854645270548000,106.5095478515625,2.5914268493652344,-14.093725204467773,-3.5054850578308105
1780854645367580000,106.60657983398437,-0.6029912829399109,-10.00439167022705,0.8709874153137207
1780854645425799000,106.664798828125,0.6843472719192505,-8.505288124084473,-2.3030917644500732
1780854645522830800,106.76183081054687,-0.8626125454902649,-11.782258987426758,3.442075490951538
1780854645619862800,106.85886279296875,3.0269205570220947,-5.8959150314331055,-1.444068431854248
1780854645678082000,106.91708203125,2.2851455211639404,-6.0263237953186035,-2.695514678955078
1780854645775113500,107.01411352539063,-0.1663011759519577,-12.5144624710083,3.6370904445648193
1780854645872145700,107.11114575195313,5.869594097137451,-13.191631317138672,5.631507873535156
1780854645969177300,107.20817724609375,1.7084753513336182,-7.247859954833984,-0.10887342691421509
1780854646027396400,107.26639624023437,0.02632104977965355,-14.166706085205078,-3.9589250087738037
1780854646163241000,107.40224096679688,4.372883319854736,-6.6113691329956055,0.4247260093688965
1780854646221460200,107.46046020507812,-0.07178468257188797,-8.084151268005371,1.4763715267181396
1780854646318492000,107.55749194335938,2.8175487518310547,-8.634500503540039,1.9597218036651611
1780854646376711000,107.6157109375,6.051448345184326,-9.422935485839844,-3.806980848312378
1780854646473742800,107.71274291992188,3.073580741882324,-12.498908996582031,2.358126640319824
1780854646570774500,107.8097744140625,-1.4763715267181396,-8.35453987121582,-1.3567304611206055
1780854646628993800,107.86799389648438,1.0660024881362915,-13.4703950881958,-2.121237277984619
1780854646726025700,107.96502563476562,-0.6640082597732544,-9.074779510498047,0.537188708782196
1780854646823057400,108.06205737304687,2.9240293502807617,-6.62213659286499,-1.8759729862213135
1780854646920089000,108.15908911132813,3.3846476078033447,-5.66620397567749,1.2885349988937378
1780854646978308400,108.21730834960937,3.2518460750579834,-14.267205238342285,1.2885349988937378
1780854647075340000,108.31434008789063,2.561516523361206,-13.511073112487793,-1.058824062347412
1780854647172372000,108.4113720703125,2.2169501781463623,-10.620543479919434,-1.2478569746017456
1780854647269403600,108.50840356445312,-0.7848458290100098,-8.244470596313477,-2.421536445617676
1780854647327623000,108.56662280273437,3.122633457183838,-6.975078105926514,0.10289137065410614
1780854647424654600,108.66365454101563,-1.4943177700042725,-9.249456405639648,2.159522533416748
1780854647521686500,108.7606865234375,1.9465612173080444,-8.586644172668457,1.3519448041915894
1780854647618718200,108.85771826171874,0.5216353535652161,-14.517254829406738,-0.7692924737930298
1780854647676937200,108.91593725585938,1.8317056894302368,-11.992827415466309,3.359523057937622
1780854647773969200,109.01296923828124,0.9463613629341125,-11.351551055908203,-3.229114055633545
1780854647871001000,109.1100009765625,-0.32662028074264526,-9.53779125213623,1.0253244638442993
1780854647929219800,109.1682197265625,1.521835207939148,-6.964310169219971,-1.5708880424499512
1780854648026251800,109.26525170898438,1.770688772201538,-5.883950710296631,-2.9383862018585205
