time,seconds_elapsed,z,y,x
1781591776566305500,0.210305419921875,6.187241077423096,5.585446357727051,-2.0476579666137695
1781591776614818000,0.258818115234375,6.6969122886657715,5.9321064949035645,-2.4053850173950195
1781591776663330600,0.30733056640625,6.224329948425293,6.7621169090271,-2.3742783069610596
1781591776711843000,0.355843017578125,6.013163089752197,7.825128078460693,-1.5185450315475464
1781591776760355600,0.40435546875,7.132705211639404,8.620741844177246,-0.9116654396057129
1781591776808868000,0.4528681640625,8.8648099899292,8.275278091430664,-1.948355793952942
1781591776857380600,0.501380615234375,5.910272121429443,9.094820022583008,-0.4163511395454407
1781591776905893000,0.54989306640625,6.147759437561035,7.877171993255615,1.8681962490081787
1781591776954406000,0.598406005859375,6.403791427612305,6.513562202453613,1.9250258207321167
1781591777002918100,0.646918212890625,6.512365818023682,6.253941059112549,2.025524377822876
1781591777051431000,0.695430908203125,7.008876800537109,5.320441246032715,0.6783652305603027
1781591777099943400,0.743943359375,6.26650333404541,5.590231895446777,-0.7698906660079956
1781591777148456000,0.7924560546875,6.389434814453125,5.50648307800293,-0.7950153350830078
1781591777196968400,0.840968505859375,7.013063907623291,5.583352565765381,-0.6502495408058167
1781591777245481000,0.88948095703125,7.3552374839782715,5.6584272384643555,-0.7076773047447205
1781591777293993700,0.93799365234375,7.915158271789551,5.618048667907715,-1.3695918321609497
1781591777342506200,0.98650634765625,8.777471542358398,5.466104030609131,-0.999900758266449
1781591777391018800,1.035018798828125,9.238389015197754,5.456233978271484,-1.3202399015426636
1781591777439531500,1.083531494140625,10.236196517944336,6.580860614776611,-1.975873351097107
1781591777488043800,1.132043701171875,10.704890251159668,5.254937648773193,-1.2083754539489746
1781591777536556500,1.180556640625,8.844470977783203,4.409373760223389,-1.8248263597488403
1781591777585069000,1.229069091796875,8.818747520446777,4.2622151374816895,-0.882951557636261
1781591777633581800,1.277581787109375,7.796115398406982,3.486940860748291,-0.046360939741134644
1781591777682094000,1.326093994140625,7.1718878746032715,3.6981074810028076,-0.8497511148452759
1781591777730606800,1.37460693359375,6.840481758117676,4.265804767608643,-1.5981063842773438
1781591777779119400,1.423119384765625,7.910671710968018,4.647459983825684,-1.5708880424499512
1781591777827632000,1.471632080078125,8.012067794799805,5.375475883483887,-1.6839489936828613
1781591777876144600,1.52014453125,8.696115493774414,5.6330037117004395,-0.5108676552772522
1781591777924657200,1.5686572265625,9.941579818725586,5.734997749328613,-0.9900303483009338
1781591777973170000,1.617169921875,9.010173797607422,5.415555953979492,-0.7208378314971924
1781591778021682400,1.665682373046875,10.654341697692871,4.373481750488281,-0.24257239699363708
1781591778070195000,1.71419482421875,11.352447509765625,3.8500516414642334,0.30209386348724365
1781591778118707700,1.762707763671875,9.296415328979492,3.6400814056396484,0.8153542876243591
1781591778167220200,1.81122021484375,8.143074989318848,3.9484565258026123,0.5724828243255615
1781591778215732700,1.859732666015625,7.894520282745361,4.010969161987305,0.09421738982200623
1781591778264245500,1.90824560546875,7.022336483001709,4.196412563323975,-0.5072783827781677
1781591778312758000,1.956758056640625,6.936493873596191,4.630710124969482,-0.8120641708374023
1781591778361270800,2.005270751953125,7.534998416900635,4.824827671051025,-0.6640082597732544
1781591778409783300,2.053783203125,8.307880401611328,4.924727916717529,-0.9768698215484619
1781591778458295800,2.1022958984375,9.413962364196777,4.781158924102783,-0.5150550603866577
1781591778506808600,2.15080859375,9.423234939575195,5.502893924713135,-0.26081767678260803
1781591778555321000,2.199321044921875,10.200602531433105,5.4071807861328125,-0.20937198400497437
1781591778603833900,2.247833740234375,9.884450912475586,4.631906509399414,-0.537188708782196
1781591778652346400,2.296346435546875,9.449256896972656,4.221836566925049,-1.5203397274017334
1781591778700859000,2.34485888671875,8.87109088897705,3.683152198791504,-0.9218349456787109
1781591778749371600,2.39337158203125,8.72183895111084,3.25872540473938,-0.23030917346477509
1781591778797884400,2.441884521484375,8.215158462524414,3.34576416015625,-0.5952146053314209
1781591778846397000,2.49039697265625,7.347461223602295,3.9158542156219482,-0.828514814376831
1781591778894909400,2.538909423828125,7.633702278137207,4.615755081176758,-1.043868899345398
1781591778943422200,2.587422119140625,8.515756607055664,5.062016487121582,-1.3728820085525513
1781591778991934700,2.635934814453125,10.262218475341797,4.572085857391357,-2.7152554988861084
1781591779040447500,2.684447509765625,8.923434257507324,3.868596076965332,-3.4307093620300293
1781591779088960300,2.732960205078125,10.88973617553711,4.618147850036621,-3.6083765029907227
1781591779137472800,2.78147265625,8.892027854919434,4.081557273864746,-3.2201411724090576
1781591779185985500,2.829985595703125,6.325725555419922,3.4295129776000977,-5.495416164398193
1781591779234498000,2.878498046875,8.452047348022461,3.425325632095337,-5.449354648590088
1781591779283010800,2.9270107421875,8.365307807922363,2.792423963546753,-3.2745778560638428
1781591779331523300,2.9755234375,7.426424026489258,3.0376882553100586,-2.8522446155548096
1781591779380036000,3.0240361328125,6.715157508850098,2.925823926925659,-1.7694923877716064
1781591779428548600,3.072548583984375,5.8133625984191895,3.321835994720459,-1.8912272453308105
1781591779477061400,3.121061279296875,5.609075546264648,2.0383858680725098,0.8605188727378845
1781591779525574000,3.169573974609375,2.9715867042541504,0.6714858412742615,2.580958366394043
1781591779574086700,3.218086669921875,1.2675977945327759,-1.4763715267181396,2.685943365097046
1781591779622599400,3.266599365234375,-0.5111667513847351,-4.165605068206787,2.916252613067627
1781591779671112000,3.31511181640625,4.157230377197266,-8.9910306930542,5.610869884490967
1781591779719624700,3.363624755859375,9.252147674560547,-11.846566200256348,8.111668586730957
1781591779768137500,3.412137451171875,11.030314445495605,-14.926128387451172,13.190135955810547
1781591779816650000,3.46064990234375,15.007484436035156,-16.269100189208984,12.832109451293945
1781591779865162800,3.509162841796875,8.749954223632812,-14.789438247680664,10.198509216308594
1781591779913675500,3.557675537109375,6.863213539123535,-10.987841606140137,10.677372932434082
1781591779962188300,3.606188232421875,-7.668099403381348,-4.267001152038574,11.592328071594238
1781591780010700800,3.65470068359375,-0.2626122832298279,-5.802295684814453,5.652445316314697
1781591780059213600,3.703213623046875,-0.007178467698395252,-11.474183082580566,1.8047864437103271
1781591780107726000,3.75172607421875,0.37956148386001587,-12.498311042785645,2.129014015197754
1781591780156238800,3.80023876953125,-0.09840483218431473,-14.193625450134277,0.7369893789291382
1781591780204751600,3.848751708984375,3.8108692169189453,-15.053845405578613,1.643869161605835
1781591780253264400,3.897264404296875,-0.6661019921302795,-11.792129516601562,1.750648856163025
1781591780301777000,3.94577685546875,1.2185449600219727,-11.944372177124023,-0.6634100675582886
1781591780350289700,3.99428955078125,-0.8835497498512268,-10.922039031982422,-2.981456995010376
1781591780447315000,4.09131494140625,-4.1629133224487305,-4.933103084564209,-5.080560684204102
1781591780495827700,4.13982763671875,-0.8952147960662842,-6.371488571166992,-2.0757737159729004
1781591780544340200,4.18834033203125,-1.1341979503631592,-3.4480574131011963,0.31046873331069946
1781591780592853000,4.23685302734375,0.623330295085907,-6.73938512802124,-3.609273910522461
1781591780641365800,4.28536572265625,-1.5122638940811157,-2.485544443130493,-0.527019202709198
1781591780689878300,4.333878173828125,3.646362543106079,-6.208776473999023,-3.0373892784118652
1781591780738391000,4.38239111328125,3.31465744972229,-14.901601791381836,-3.2976086139678955
1781591780786903800,4.43090380859375,0.7621139883995056,-16.86072540283203,-2.3748764991760254
1781591780835416600,4.47941650390625,1.794616937637329,-13.937593460083008,-6.372684955596924
1781591780883929000,4.52792919921875,2.8396823406219482,-15.165111541748047,-1.2400803565979004
1781591780932441900,4.57644189453125,-1.3704891204833984,-5.315655708312988,-0.13459627330303192
1781591780980954600,4.62495458984375,2.6108686923980713,-1.9537396430969238,-8.545966148376465
1781591781029467400,4.67346728515625,-0.626022219657898,-9.94397258758545,-3.3505499362945557
1781591781077980200,4.721980224609375,-2.816950559616089,-13.302299499511719,-1.272084355354309
1781591781126493000,4.770492919921875,-2.4385852813720703,-14.392529487609863,-1.0010972023010254
1781591781175005400,4.81900537109375,-0.133698970079422,-15.256038665771484,0.13668999075889587
1781591781223518200,4.867518310546875,-1.9211374521255493,-8.453543663024902,-2.767000198364258
1781591781272031000,4.916031005859375,-1.5308083295822144,-0.024227328598499298,-3.393620729446411
1781591781320543700,4.964543701171875,1.0806585550308228,-0.18903298676013947,-5.454439163208008
1781591781369056500,5.013056396484375,2.9174489974975586,-12.440882682800293,-2.0859432220458984
1781591781417569300,5.0615693359375,0.6245267391204834,-18.9293212890625,0.3332005441188812
1781591781466081800,5.110081787109375,0.28085756301879883,-15.893426895141602,0.007178467698395252
1781591781514594600,5.158594482421875,-0.14865410327911377,-11.324631690979004,-1.0600204467773438
1781591781563107300,5.207107421875,1.6522440910339355,-1.789831280708313,-4.251447677612305
1781591781611620000,5.2556201171875,0.8871390223503113,2.5836503505706787,-2.410768747329712
1781591781660132900,5.3041328125,1.8577276468276978,-5.06799840927124,-3.3505499362945557
1781591781708645600,5.352645751953125,1.2556337118148804,-14.606088638305664,-3.7669010162353516
1781591781757158100,5.401158203125,-1.6995022296905518,-17.91326904296875,-5.2716875076293945
1781591781805671200,5.449671142578125,-1.480259895324707,-13.032508850097656,-2.18045973777771
1781591781854183700,5.49818359375,1.6468602418899536,-9.892826080322266,1.3112667798995972
1781591781902696700,5.54669677734375,-0.6251249313354492,-5.0943193435668945,-6.092126369476318
1781591781951209200,5.595209228515625,-2.886641502380371,-15.237793922424316,0.22193430364131927
1781591781999722200,5.64372216796875,-0.6349952816963196,-10.865508079528809,3.8485560417175293
1781591782048234800,5.69223486328125,-0.5422734022140503,-1.6348960399627686,-0.4043870270252228
1781591782096747500,5.74074755859375,-1.6094722747802734,-7.2320075035095215,1.6498512029647827
1781591782145260500,5.789260498046875,0.87248295545578,-12.253046989440918,9.193523406982422
1781591782193773000,5.83777294921875,-0.20488543808460236,-12.102598190307617,6.360421657562256
1781591782242286000,5.8862861328125,-0.11276176571846008,-14.452349662780762,5.820241928100586
1781591782290798600,5.934798583984375,-1.7282161712646484,-8.58604621887207,2.7753751277923584
1781591782387824400,6.031824462890625,-1.409970760345459,-10.341480255126953,2.4619154930114746
1781591782436337000,6.0803369140625,-1.3938192129135132,-10.544570922851562,2.9491539001464844
1781591782484850000,6.128849853515625,-1.4578272104263306,-9.101998329162598,3.368196964263916
1781591782533362700,6.17736279296875,-0.98703932762146,-8.720044136047363,3.683152198791504
1781591782581875500,6.22587548828125,-1.0136594772338867,-8.895318031311035,4.143172264099121
1781591782630388200,6.27438818359375,-0.8512466549873352,-9.142376899719238,4.967200756072998
1781591782678901000,6.32290087890625,-1.2690932750701904,-8.869894027709961,3.811467409133911
1781591782727413800,6.371413818359375,-1.6133606433868408,-9.113064765930176,3.0403802394866943
1781591782775926500,6.419926513671875,-1.6154544353485107,-9.550652503967285,2.479562520980835
1781591782824439300,6.468439208984375,-1.4219348430633545,-9.221938133239746,2.7176482677459717
1781591782872952000,6.5169521484375,-1.5640087127685547,-9.221040725708008,3.0963125228881836
1781591782921464800,6.56546484375,-1.3986048698425293,-9.500103950500488,2.9688947200775146
1781591782969977900,6.613977783203125,-1.3088740110397339,-9.157930374145508,3.193819999694824
1781591783018490600,6.66249072265625,-1.316650629043579,-9.33141040802002,2.7690939903259277
1781591783067003400,6.71100341796875,-1.4455640316009521,-9.338289260864258,3.411566972732544
1781591783115516200,6.75951611328125,-1.20687997341156,-9.46301555633545,3.503690481185913
1781591783164029000,6.80802880859375,-1.2687941789627075,-9.43310546875,3.106781005859375
1781591783212541700,6.856541748046875,-1.3363914489746094,-9.12831974029541,3.1645078659057617
1781591783261054500,6.905054443359375,-1.4673985242843628,-9.21834945678711,3.1229326725006104
1781591783309567200,6.953567138671875,-1.6414763927459717,-9.620942115783691,2.9398818016052246
1781591783358080300,7.002080322265625,-1.4554343223571777,-9.77527904510498,2.4879374504089355
1781591783406593000,7.050593017578125,-1.2649059295654297,-9.35743236541748,3.11246395111084
1781591783455105800,7.099105712890625,-1.7994025945663452,-9.23898696899414,3.373281717300415
1781591783503618600,7.14761865234375,-1.4192429780960083,-9.382556915283203,3.0230321884155273
1781591783552131300,7.19613134765625,-1.3217353820800781,-9.241679191589355,2.9153552055358887
1781591783600644000,7.24464404296875,-1.6351951360702515,-9.571290969848633,2.9204399585723877
1781591783649157000,7.2931572265625,-1.5822539329528809,-9.387641906738281,2.762812852859497
1781591783697670000,7.341669921875,-1.592423439025879,-9.195018768310547,2.989532709121704
1781591783746182700,7.3901826171875,-1.721037745475769,-9.42473030090332,3.163909673690796
1781591783794695700,7.43869580078125,-1.5544373989105225,-9.189335823059082,3.0439693927764893
1781591783843208400,7.48720849609375,-1.5041881799697876,-9.294919967651367,3.157329559326172
1781591783891721200,7.53572119140625,-1.705484390258789,-9.481260299682617,3.1651060581207275
1781591783940234000,7.58423388671875,-1.4982060194015503,-9.17288589477539,3.1968109607696533
1781591783988746800,7.632746826171875,-1.5332010984420776,-9.226723670959473,3.208176851272583
1781591784037259500,7.681259521484375,-1.6468602418899536,-9.283852577209473,3.2365918159484863
1781591784085772500,7.7297724609375,-1.5957136154174805,-9.241978645324707,3.180659532546997
1781591784134285300,7.778285400390625,-1.612463355064392,-9.357730865478516,3.1854450702667236
1781591784182798000,7.826798095703125,-1.5583257675170898,-9.166903495788574,3.2883365154266357
1781591784231310800,7.875310791015625,-1.6408780813217163,-9.243474006652832,3.3179476261138916
1781591784279824000,7.923823974609375,-1.6292130947113037,-9.252447128295898,3.36969256401062
1781591784328336600,7.972336669921875,-1.6187444925308228,-9.252147674560547,3.276970624923706
1781591784376849200,8.02084912109375,-1.724626898765564,-9.194720268249512,3.315255880355835
1781591784425362400,8.069362548828124,-1.7560327053070068,-9.224929809570312,3.0693931579589844
1781591784473875200,8.117875244140626,-1.6734803915023804,-9.307182312011719,3.2838499546051025
1781591784522388000,8.166387939453125,-1.5514464378356934,-9.23599624633789,3.2665019035339355
1781591784570901000,8.21490087890625,-1.566401481628418,-9.028717994689941,3.249453067779541
1781591784619413800,8.263413818359375,-1.6636099815368652,-9.36341381072998,3.3714871406555176
1781591784667926500,8.311926513671875,-1.6277176141738892,-9.26710319519043,3.392125129699707
1781591784716439300,8.360439208984374,-1.4087743759155273,-9.138788223266602,3.2318060398101807
1781591784764952300,8.408952392578126,-1.5032907724380493,-9.21834945678711,3.3505499362945557
1781591784813465000,8.457465087890625,-1.4838491678237915,-9.204291343688965,3.503690481185913
1781591784861978000,8.50597802734375,-1.5843477249145508,-9.210572242736816,3.305983543395996
1781591784910491000,8.554490966796875,-1.471885085105896,-9.321240425109863,3.3655049800872803
1781591784959003600,8.603003662109375,-1.5547364950180054,-9.214461326599121,3.2333016395568848
1781591785007516700,8.6515166015625,-1.5000007152557373,-9.408578872680664,3.0520453453063965
1781591785056029400,8.700029541015626,-1.5601203441619873,-9.372386932373047,3.106182813644409
1781591785104542200,8.748542236328126,-1.5493526458740234,-9.387042999267578,3.1764719486236572
1781591785153055200,8.79705517578125,-1.521536111831665,-9.061020851135254,3.2608189582824707
1781591785201568000,8.845568115234375,-1.571486234664917,-9.263215065002441,2.9772696495056152
1781591785250081000,8.8940810546875,-1.5637096166610718,-9.435498237609863,2.912663459777832
1781591785298593800,8.94259375,-1.4763715267181396,-9.355937004089355,2.9153552055358887
1781591785347106800,8.99110693359375,-1.1635099649429321,-9.5862455368042,2.9991040229797363
1781591785395619600,9.03961962890625,-1.0857433080673218,-9.698409080505371,3.1232316493988037
1781591785444132400,9.08813232421875,-0.9260223507881165,-9.56351375579834,2.89172625541687
1781591785492645400,9.136645263671875,-0.9409775137901306,-9.275178909301758,2.9703903198242188
1781591785541158100,9.185158203125,-0.9379864931106567,-9.46181869506836,3.2297122478485107
1781591785589671200,9.233671142578125,-1.090528964996338,-9.362217903137207,3.4331023693084717
1781591785638184000,9.282183837890624,-1.2954143285751343,-9.579964637756348,3.0203404426574707
1781591785686697000,9.330697021484376,-0.582054078578949,-8.848957061767578,3.5309088230133057
1781591785735209700,9.379209716796876,-0.8201399445533752,-9.661320686340332,4.157828330993652
1781591785783722800,9.42772265625,-1.1784651279449463,-9.382855415344238,3.139383316040039
1781591785832235500,9.476235595703125,-1.2819547653198242,-8.759525299072266,2.519343137741089
1781591785880748500,9.52474853515625,-1.6815561056137085,-8.998807907104492,2.6365914344787598
1781591785929261300,9.57326123046875,-1.1485549211502075,-8.1795654296875,2.994617462158203
1781591785977774300,9.6217744140625,-0.8659027218818665,-9.524032592773438,4.218546390533447
1781591786026287000,9.670287109375,-0.6933203339576721,-9.920642852783203,4.700101852416992
1781591786074800000,9.718800048828125,-0.4534398913383484,-9.553045272827148,4.954040050506592
1781591786123313200,9.767313232421875,-0.24107688665390015,-9.335896492004395,4.100400924682617
1781591786171826000,9.815825927734375,0.030508488416671753,-7.495516777038574,4.8777689933776855
1781591786220339000,9.8643388671875,0.36221352219581604,-7.543971538543701,5.173880577087402
1781591786268851700,9.912851806640624,0.3801597058773041,-7.407879829406738,4.893920421600342
1781591786317364700,9.96136474609375,0.5153541564941406,-8.35573673248291,5.863013744354248
1781591786365877800,10.009877685546876,0.2063809484243393,-7.898707389831543,6.533003807067871
1781591786414390500,10.058390625,0.6681957244873047,-8.045866012573242,7.077670097351074
1781591786462903600,10.106903564453125,1.3046865463256836,-8.75503921508789,7.963313579559326
1781591786511416600,10.15541650390625,1.4769697189331055,-9.967302322387695,7.606184959411621
1781591786559929300,10.203929443359375,0.24825534224510193,-11.437393188476562,3.4749767780303955
1781591786608442400,10.2524423828125,-1.3591232299804688,-9.177671432495117,3.7094733715057373
1781591786656955400,10.300955322265626,-2.33180570602417,-9.701699256896973,1.7060825824737549
1781591786705468200,10.34946826171875,-0.19680966436862946,-8.346763610839844,2.1807587146759033
1781591786753981200,10.397981201171875,-1.3758729696273804,-9.320642471313477,3.5757744312286377
1781591786802494200,10.446494140625,-0.9568299651145935,-7.744669437408447,2.1750757694244385
1781591786851007200,10.49500732421875,-1.0325030088424683,-6.817451000213623,2.0706889629364014
1781591786899520300,10.543520263671875,-1.425524115562439,-9.699904441833496,3.8898322582244873
1781591786948033300,10.592033203125,-1.0893324613571167,-10.248459815979004,4.799104690551758
1781591786996546000,10.640546142578126,-0.29700911045074463,-8.810373306274414,3.9086756706237793
1781591787045059000,10.68905908203125,2.314457654953003,-6.717251300811768,6.165705680847168
1781591787093572000,10.737572021484375,-2.477468729019165,-12.723834037780762,6.978966236114502
1781591787142085000,10.786085205078125,-3.1507492065429688,-7.761718273162842,0.19680966436862946
1781591787190598100,10.83459814453125,0.13878370821475983,-8.155038833618164,-3.4480574131011963
1781591787239111200,10.883111083984375,-4.415356159210205,-21.671794891357422,5.155934810638428
1781591787287624200,10.931624267578124,-2.8791637420654297,-7.948358535766602,8.684151649475098
1781591787336137000,10.980136962890626,1.5152549743652344,-2.6668007373809814,2.4068803787231445
1781591787384650000,11.02864990234375,0.5644070506095886,-6.80249547958374,0.7256234884262085
1781591787433163000,11.0771630859375,-0.14356936514377594,-7.784749507904053,3.5835509300231934
1781591787481676000,11.125676025390625,1.597209095954895,-8.321639060974121,5.102993488311768
1781591787530189000,11.17418896484375,0.7728816866874695,-9.716355323791504,6.964310169219971
1781591787578702000,11.2227021484375,0.6406782865524292,-17.857336044311523,2.2576282024383545
1781591787627215000,11.271215087890624,-0.13938191533088684,-10.71984577178955,3.228515863418579
1781591787675728400,11.319728271484376,-3.215355396270752,-7.295417308807373,6.244369983673096
1781591787724241400,11.368241455078126,-0.6678966283798218,-13.30977725982666,1.1312068700790405
1781591787772754400,11.41675439453125,-0.04127619042992592,-7.381259441375732,0.2949153780937195
1781591787821267500,11.465267333984375,-0.9744769930839539,-5.629713535308838,1.6947166919708252
1781591787869780500,11.513780517578125,0.10049854964017868,-8.77059268951416,3.387040376663208
1781591787918293500,11.56229345703125,-1.9420746564865112,-9.611071586608887,2.767897605895996
1781591787966806500,11.610806640625,-1.3208380937576294,-9.8509521484375,2.591127872467041
1781591788015319600,11.659319580078124,3.203092098236084,-4.757230281829834,3.350848913192749
1781591788063832800,11.707832763671876,1.8655043840408325,-9.211769104003906,8.656634330749512
1781591788112345900,11.756345947265626,-2.614457845687866,-12.455240249633789,7.051947593688965
1781591788160859000,11.80485888671875,-4.30588436126709,-5.004289627075195,-2.2034904956817627
1781591788209372000,11.853371826171875,-0.42293140292167664,-15.211174011230469,-1.9543378353118896
1781591788257885000,11.901885009765625,-6.488736629486084,-22.79941177368164,9.025128364562988
1781591788306398200,11.950398193359375,-0.3164508044719696,-1.7464613914489746,5.777470111846924
1781591788354911200,11.9989111328125,0.9487541913986206,-4.903192520141602,-0.031106693670153618
1781591788403424300,12.04742431640625,1.3232308626174927,-6.258128643035889,1.588834285736084
1781591788451937500,12.0959375,0.6337988972663879,-8.01057243347168,3.978665828704834
1781591788500450600,12.144450439453125,-0.26949164271354675,-6.488437652587891,7.000202655792236
1781591788548963600,12.192963623046875,2.332702875137329,-12.3370943069458,3.313760280609131
1781591788597476900,12.241476806640625,3.0993034839630127,-10.754840850830078,5.336592674255371
1781591788645990000,12.289989990234375,-3.586242914199829,-16.56850242614746,3.2410783767700195
1781591788694503200,12.338503173828125,-0.7998009920120239,-10.979765892028809,1.4892330169677734
1781591788743016200,12.38701611328125,-1.2089736461639404,-7.883154392242432,1.568495273590088
1781591788791529500,12.435529541015624,0.7328019142150879,-10.382756233215332,4.109074592590332
1781591788840042500,12.48404248046875,-1.7697914838790894,-5.589633464813232,0.6762714982032776
1781591788888555800,12.5325556640625,-0.15732808411121368,-7.252346515655518,1.4790635108947754
1781591788937068800,12.58106884765625,-2.022533416748047,-10.020543098449707,3.6125640869140625
1781591788985582000,12.62958203125,-0.545264482498169,-8.887840270996094,3.2180473804473877
1781591789034095000,12.67809521484375,0.36699917912483215,-5.264808177947998,2.1206390857696533
1781591789082608400,12.7266083984375,-0.004187439568340778,-9.833903312683105,3.8826539516448975
1781591789131121400,12.775121337890624,-3.5330026149749756,-14.78824234008789,6.226124286651611
1781591789179634700,12.823634765625,-3.5958142280578613,-6.110671043395996,-1.948355793952942
1781591789228148000,12.87214794921875,-1.1515458822250366,-11.479866027832031,-3.8422749042510986
1781591789276661000,12.920660888671875,-5.457729339599609,-23.481067657470703,8.648558616638184
1781591789325174300,12.96917431640625,-0.5892325639724731,-3.2931220531463623,6.309275150299072
1781591789373687600,13.0176875,0.8554341197013855,-5.991029739379883,2.765803813934326
1781591789422200600,13.06620068359375,0.8045865893363953,-6.320042610168457,1.3214362859725952
1781591789470713900,13.1147138671875,0.8536394834518433,-6.558128833770752,0.8422735929489136
1781591789519227100,13.16322705078125,0.44327038526535034,-7.94207763671875,4.598406791687012
1781591789567740200,13.211740234375,0.4064807593822479,-11.24925708770752,4.326223373413086
1781591789616253400,13.26025341796875,4.519742965698242,-11.219048500061035,4.518845558166504
1781591789664766700,13.3087666015625,-1.8143577575683594,-14.39312744140625,5.648557186126709
1781591789713280000,13.357280029296875,-1.5532410144805908,-12.010773658752441,0.264706015586853
1781591789810306300,13.454306396484375,0.30927231907844543,-10.79551887512207,1.4291132688522339
1781591789907332900,13.551332763671875,-0.5784648656845093,-6.696314334869385,1.6788642406463623
1781591789955846100,13.59984619140625,-0.8838488459587097,-8.781659126281738,2.7137598991394043
1781591790004359400,13.648359375,-1.903490424156189,-9.269196510314941,1.5912270545959473
1781591790052872700,13.696872802734376,-0.6373881101608276,-9.313164710998535,2.594717025756836
1781591790101386000,13.745385986328126,1.755733609199524,-5.95962381362915,4.874179840087891
1781591790149899000,13.79389892578125,0.13459627330303192,-12.079267501831055,7.300800800323486
1781591790198412500,13.84241259765625,-3.70558500289917,-9.988240242004395,2.839383125305176
1781591790246925600,13.890925537109375,-2.594717025756836,-6.737889289855957,-2.796013355255127
1781591790295438800,13.93943896484375,-1.6304094791412354,-18.48006820678711,-2.102393865585327
1781591790343952100,13.9879521484375,-6.009873390197754,-18.393030166625977,9.185447692871094
1781591790392465400,14.03646533203125,1.090528964996338,-3.0005996227264404,5.866602897644043
1781591790440978700,14.084978759765624,1.9911274909973145,-5.983851432800293,-0.7208378314971924
1781591790489492000,14.133491943359376,0.08195417374372482,-5.094020366668701,-0.0972084179520607
1781591790538005200,14.182005126953126,0.6969096064567566,-6.448058605194092,2.6183462142944336
1781591790586518500,14.2305185546875,0.25752753019332886,-9.379864692687988,5.140680313110352
1781591790635031800,14.27903173828125,2.5435705184936523,-12.40439224243164,3.1405797004699707
1781591790683545300,14.32754541015625,1.8454644680023193,-11.658729553222656,4.423730850219727
1781591790732058400,14.376058349609375,-2.6458635330200195,-17.128721237182617,2.8396823406219482
1781591790780572000,14.424572021484375,-1.4973087310791016,-8.051548957824707,1.8029918670654297
1781591790829085200,14.473085205078124,-1.3262219429016113,-10.571789741516113,-1.8870397806167603
1781591790877598500,14.521598388671874,-0.9050851464271545,-9.056235313415527,0.3574278950691223
1781591790926111700,14.57011181640625,-1.6199408769607544,-5.814260005950928,-1.358525037765503
1781591790974625000,14.618625,0.372682124376297,-8.566903114318848,0.39152559638023376
1781591791023138300,14.66713818359375,-1.817348837852478,-11.311470985412598,3.955634832382202
1781591791071651600,14.715651611328125,-1.236491084098816,-8.91775131225586,3.686741590499878
1781591791120165000,14.7641650390625,2.2794625759124756,-7.3776702880859375,3.7046875953674316
1781591791168678400,14.812678466796875,-0.6430711150169373,-10.703394889831543,6.463313102722168
1781591791217191700,14.861191650390625,-3.375375509262085,-8.360222816467285,1.989033818244934
1781591791265705000,14.909705078125,-1.85383939743042,-9.878469467163086,-2.6662025451660156
1781591791314218200,14.95821826171875,-3.688236951828003,-21.956541061401367,2.701197624206543
1781591791362731500,15.0067314453125,-3.127718210220337,-11.70269775390625,7.975576877593994
1781591791411245000,15.0552451171875,1.4171491861343384,-2.5298118591308594,2.211566209793091
1781591791459758300,15.10375830078125,0.6879364848136902,-6.002993583679199,0.3717848062515259
1781591791508271600,15.152271728515625,-0.049651071429252625,-5.749354839324951,1.6585252285003662
1781591791556785200,15.20078515625,0.5539384484291077,-7.8287177085876465,3.5395829677581787
1781591791605298400,15.24929833984375,0.794417142868042,-9.846465110778809,2.8824539184570312
1781591791653811700,15.297811767578125,1.857129454612732,-10.970194816589355,1.9441684484481812
1781591791702325000,15.346324951171875,-0.9071788787841797,-19.1850528717041,5.546263694763184
1781591791750838300,15.39483837890625,-2.39192533493042,-8.635397911071777,3.027817964553833
1781591791799351800,15.443351806640624,-1.1961122751235962,-11.426027297973633,-2.2944178581237793
1781591791847865000,15.491864990234374,1.119242787361145,-9.924830436706543,3.6553356647491455
1781591791896378400,15.54037841796875,-1.5595221519470215,-6.468397617340088,2.137089729309082
1781591791944892000,15.588891845703126,0.125324085354805,-8.040183067321777,0.46360939741134644
1781591791993405200,15.6374052734375,-1.196710467338562,-8.740681648254395,1.806880235671997
1781591792041918500,15.68591845703125,-1.765903115272522,-10.606485366821289,2.388934373855591
1781591792090432000,15.734431884765625,1.5206388235092163,-7.440182685852051,3.029313564300537
1781591792138945300,15.7829453125,1.0737791061401367,-7.6289167404174805,5.2854461669921875
1781591792187458600,15.83145849609375,-1.937887191772461,-12.481560707092285,6.427121639251709
1781591792235972000,15.87997216796875,-3.9523448944091797,-6.6107707023620605,-0.7100701332092285
1781591792284485400,15.9284853515625,-0.4899304509162903,-14.426627159118652,-2.363809585571289
1781591792332999000,15.9769990234375,-5.754140377044678,-20.671594619750977,5.174180030822754
1781591792381512200,16.02551220703125,-0.8027920126914978,-4.306482315063477,5.864509105682373
1781591792430025500,16.074025390625,1.735095500946045,-4.712963104248047,-0.24975086748600006
1781591792478539000,16.1225390625,-0.14865410327911377,-6.658029079437256,-0.0032901312224566936
1781591792527052300,16.17105224609375,-0.3290131092071533,-7.775177955627441,2.924926519393921
1781591792575565600,16.219565673828125,0.877567708492279,-9.522835731506348,5.486144065856934
1781591792624079000,16.2680791015625,2.3264217376708984,-9.891031265258789,2.1520447731018066
1781591792672592400,16.31659228515625,0.6442674994468689,-13.846068382263184,3.522534132003784
1781591792721106000,16.36510595703125,-0.45942193269729614,-13.007084846496582,5.131408214569092
1781591792769619200,16.413619140625,-2.292922258377075,-12.1597261428833,0.9565308690071106
1781591792818132700,16.4621328125,0.10857433080673218,-9.664012908935547,-1.7473586797714233
1781591792866646000,16.51064599609375,0.9110672473907471,-7.923233985900879,3.5988051891326904
1781591792915159300,16.5591591796875,-1.0169496536254883,-7.5203423500061035,1.0031908750534058
1781591792963672800,16.6076728515625,-0.498604416847229,-7.707880020141602,1.441077470779419
1781591793012186400,16.656186279296875,-0.9418748021125793,-8.717949867248535,-0.07178468257188797
1781591793060699600,16.70469970703125,-1.978864312171936,-11.763415336608887,2.699702262878418
1781591793109213200,16.753213134765623,0.4773681163787842,-7.872386455535889,3.2665019035339355
1781591793157726500,16.8017265625,1.9959131479263306,-5.8343000411987305,3.815654754638672
1781591793206239700,16.85023974609375,-2.541775941848755,-14.336297988891602,4.115355968475342
1781591793254753300,16.898753173828126,-3.1456644535064697,-8.355138778686523,-1.290927767753601
1781591793303266600,16.9472666015625,-0.8679963946342468,-10.235897064208984,-1.6917256116867065
1781591793351780000,16.995780029296874,-4.947160720825195,-20.711973190307617,7.45782995223999
1781591793400293400,17.04429345703125,-1.5481562614440918,-6.605386734008789,4.58793830871582
1781591793448807000,17.092806884765626,1.0354939699172974,-6.120541095733643,-0.649053156375885
1781591793497320200,17.1413203125,0.4749752879142761,-6.757630348205566,1.2014961242675781
1781591793545833700,17.189833740234373,0.19740787148475647,-6.773482799530029,3.3924243450164795
1781591793594347000,17.238346923828125,1.2589237689971924,-7.993224143981934,4.358227252960205
1781591793642860500,17.286860595703125,0.875174880027771,-9.035298347473145,5.999105453491211
1781591793691373800,17.335373779296877,3.2156546115875244,-12.385848045349121,3.937987804412842
1781591793739887400,17.383887451171876,-0.8294121623039246,-16.21645736694336,2.9593234062194824
1781591793788400600,17.432400634765624,-2.2307088375091553,-10.497611999511719,-1.033101201057434
1781591793836914200,17.4809140625,-1.534995675086975,-10.650453567504883,-0.01944168470799923
1781591793885427500,17.529427490234376,0.19202402234077454,-9.8871431350708,0.9146564602851868
1781591793933941000,17.57794091796875,-0.39421752095222473,-7.875078201293945,2.4074785709381104
1781591793982454500,17.62645458984375,-0.5829514265060425,-6.260222434997559,0.19680966436862946
1781591794030967800,17.6749677734375,-0.5021936297416687,-8.781359672546387,0.8276175260543823
1781591794079481000,17.723481201171875,-1.5655041933059692,-11.401800155639648,2.4852454662323
1781591794127994600,17.77199462890625,0.32273194193840027,-9.215059280395508,2.295614242553711
1781591794176508200,17.820508056640627,2.6545376777648926,-4.2592244148254395,3.1654052734375
1781591794225021400,17.869021484375,0.50129634141922,-12.54856014251709,6.055635929107666
1781591794322048300,17.96604833984375,-4.213461399078369,-5.683551788330078,-3.4103705883026123
1781591794370561800,18.014561767578126,-1.5852450132369995,-18.509679794311523,-3.177668571472168
1781591794467588600,18.111588623046874,0.7854440212249756,-2.6865415573120117,4.295415878295898
1781591794516102000,18.160101806640625,1.8427724838256836,-7.443472862243652,-1.3286148309707642
1781591794564615400,18.208615478515625,0.20907287299633026,-6.269793510437012,0.9460622668266296
1781591794613128700,18.257128662109373,0.3487538993358612,-6.978068828582764,4.089334011077881
1781591794661642200,18.305642333984373,1.2532408237457275,-8.982656478881836,5.9509501457214355
1781591794710155800,18.35415576171875,2.7661030292510986,-10.793424606323242,2.4526431560516357
1781591794758669000,18.4026689453125,0.5335994362831116,-14.83789348602295,3.1070802211761475
1781591794807182300,18.451182373046876,-1.4171491861343384,-13.151551246643066,1.0651051998138428
1781591794855696000,18.49969580078125,-1.5242279767990112,-11.083853721618652,1.8493528366088867
1781591794904209400,18.54820947265625,-0.6020939946174622,-10.589137077331543,-1.6600207090377808
1781591794952722700,18.59672265625,-0.25064817070961,-8.197511672973633,2.095215320587158
1781591795001236200,18.645236328125,-1.1617153882980347,-7.453343391418457,-0.027816563844680786
1781591795049749500,18.69374951171875,0.2234298139810562,-7.3645100593566895,0.7181459069252014
1781591795098263000,18.742262939453123,-1.170688509941101,-9.157332420349121,2.251347064971924
1781591795146776600,18.790776611328123,-0.8174480199813843,-10.721639633178711,2.6030919551849365
1781591795195289900,18.839289794921875,2.4843480587005615,-5.961119174957275,2.7930221557617188
1781591795243803400,18.887803466796875,-0.605085015296936,-9.684052467346191,4.996811866760254
1781591795292316700,18.936316650390626,-2.840280532836914,-11.856435775756836,2.0578274726867676
1781591795340830200,18.984830322265626,-1.9701902866363525,-7.715058326721191,-4.969892501831055
1781591795389343500,19.033343505859374,-1.129711389541626,-16.54218101501465,-2.334198474884033
1781591795437857000,19.08185693359375,-6.345167636871338,-20.393428802490234,8.607281684875488
1781591795486370300,19.130370361328126,0.9885348677635193,-1.7042878866195679,4.406980991363525
1781591795534883800,19.1788837890625,1.6115660667419434,-6.806085109710693,-0.5309075117111206
1781591795583397000,19.227397216796874,0.07028916478157043,-6.190830230712891,0.9430712461471558
1781591795631910700,19.27591064453125,0.7076773047447205,-7.426723480224609,3.438486099243164
1781591795680424200,19.324424072265625,0.836590588092804,-9.42772102355957,5.556732177734375
1781591795728937500,19.3729375,2.1945173740386963,-11.108978271484375,2.3635106086730957
1781591795777451000,19.421450927734377,1.5275181531906128,-13.216456413269043,3.2180473804473877
1781591795825964300,19.46996435546875,-2.3503501415252686,-15.04307746887207,1.3489537239074707
1781591795874477800,19.518477783203124,-1.7309080362319946,-10.88554859161377,1.1165509223937988
1781591795922991000,19.5669912109375,-0.20488543808460236,-9.791728973388672,-0.924227774143219
1781591795971504600,19.615504638671876,-0.3684946894645691,-8.736793518066406,2.95902419090271
1781591796020018200,19.66401806640625,-1.2305090427398682,-6.4686970710754395,-0.3640081584453583
1781591796068531500,19.712531494140624,0.2309073805809021,-7.156334400177002,0.4501497745513916
1781591796117045000,19.761044921875,-1.6923238039016724,-10.90738296508789,1.5672988891601562
1781591796165558300,19.809558349609375,-0.2949153780937195,-10.008877754211426,2.308774709701538
1781591796214071800,19.85807177734375,2.786741018295288,-5.149055004119873,3.9891345500946045
1781591796262585000,19.906585205078127,-0.43938204646110535,-11.285149574279785,6.0711894035339355
1781591796311098600,19.9550986328125,-2.4502503871917725,-11.826525688171387,1.5329020023345947
1781591796359612000,20.00361181640625,-2.657827854156494,-5.915955066680908,-5.033601760864258
1781591796408125400,20.05212548828125,-1.3695918321609497,-18.12772560119629,-4.103092670440674
1781591796456638700,20.100638671875,-6.401997089385986,-21.112173080444336,8.551349639892578
1781591796505152300,20.14915234375,1.4069796800613403,-1.4033905267715454,6.250650882720947
1781591796553665500,20.19766552734375,2.0446670055389404,-6.845865726470947,-0.7651050686836243
1781591796602179000,20.246178955078125,0.29850462079048157,-5.20887565612793,0.01585244946181774
1781591796650692400,20.2946923828125,0.46091747283935547,-6.703492641448975,2.475374937057495
1781591796699206000,20.343205810546873,0.24466611444950104,-10.859227180480957,4.915754795074463
1781591796747719400,20.391719482421873,3.19232439994812,-11.727822303771973,1.3184453248977661
1781591796796232700,20.440232666015625,1.2687941789627075,-14.887544631958008,3.417548894882202
1781591796844746000,20.48874609375,-2.410768747329712,-13.40578842163086,2.837887763977051
1781591796893259500,20.537259521484376,-2.204986095428467,-9.838089942932129,1.5652050971984863
1781591796941773000,20.58577294921875,-0.397208571434021,-9.434001922607422,-2.063809633255005
1781591796990286300,20.634286376953124,-0.6499504446983337,-8.37129020690918,1.999502420425415
1781591797038800000,20.6827998046875,-1.3301103115081787,-6.850651264190674,-0.5751747488975525
1781591797087313200,20.731313232421876,0.5006981492042542,-8.516056060791016,0.4737788736820221
1781591797135826700,20.77982666015625,-1.7868403196334839,-10.950154304504395,2.003689765930176
1781591797184340000,20.828340087890624,0.5341976284980774,-8.878568649291992,2.5271198749542236
1781591797232853200,20.876853271484375,2.9760732650756836,-4.518247127532959,3.8270206451416016
1781591797281366800,20.92536669921875,-0.7597211599349976,-12.172588348388672,5.020441055297852
1781591797329880300,20.97388037109375,-4.469194412231445,-11.967702865600586,-0.3643072545528412
1781591797378393600,21.0223935546875,-2.1517457962036133,-6.2159552574157715,-6.199504375457764
1781591797426907100,21.0709072265625,-2.3937199115753174,-23.57707977294922,-0.6089733839035034
1781591797475420400,21.11942041015625,-5.059623718261719,-15.470495223999023,9.815059661865234
1781591797523934000,21.167933837890626,2.166102647781372,-0.9514461159706116,2.825624465942383
1781591797572447200,21.216447265625,1.8574285507202148,-6.700202465057373,-2.2857437133789062
1781591797620960800,21.264960693359374,0.038285162299871445,-5.720640659332275,1.7572290897369385
1781591797669474000,21.31347412109375,1.5080764293670654,-7.920841217041016,4.027718544006348
1781591797717987600,21.361987548828125,0.5006981492042542,-9.875777244567871,5.769992828369141
1781591797766500900,21.4105009765625,3.438486099243164,-12.093026161193848,-0.17258232831954956
1781591797815014400,21.459014404296877,-1.4694921970367432,-18.272491455078125,1.679761528968811
1781591797863527700,21.507527587890625,-2.2366909980773926,-8.629117012023926,2.7329025268554688
1781591797912041000,21.556041015625,-0.9912267923355103,-11.283056259155273,0.7636095285415649
1781591797960554500,21.604554443359376,0.22791635990142822,-9.526723861694336,-0.09032905846834183
1781591798009068000,21.653068115234376,-1.0701899528503418,-7.93789005279541,1.6944174766540527
1781591798057581300,21.701581298828124,-0.3963112533092499,-7.249654293060303,-0.6023930907249451
1781591798106094800,21.7500947265625,-0.5330012440681458,-8.805587768554688,0.7238288521766663
1781591798154608000,21.798608154296875,-1.6683956384658813,-11.440383911132812,1.9432710409164429
1781591798203121400,21.847121337890623,1.0214362144470215,-7.4617180824279785,2.084746837615967
1781591798251635000,21.895635009765623,2.9449665546417236,-4.292125701904297,4.426722049713135
1781591798300148200,21.944148193359375,-0.7447660565376282,-14.229218482971191,5.78345251083374
1781591798348661800,21.992661865234375,-3.4447672367095947,-9.562915802001953,-0.7112665176391602
1781591798397180700,22.0411806640625,-2.2944178581237793,-5.638686656951904,-6.4079790115356445
1781591798445688600,22.0896884765625,-2.857030153274536,-23.891437530517578,-1.6313068866729736
1781591798494201900,22.138201904296874,-4.4273200035095215,-15.925729751586914,9.503094673156738
1781591798542715100,22.186715087890626,1.5092729330062866,-2.4819552898406982,2.9838497638702393
1781591798591228700,22.235228759765626,1.6893328428268433,-7.564310550689697,-1.3824533224105835
1781591798639742200,22.2837421875,0.008374879136681557,-5.433202743530273,1.6671991348266602
1781591798688255500,22.33225537109375,1.3052847385406494,-7.2690958976745605,3.5778679847717285
1781591798736768800,22.380768798828125,0.7926225066184998,-10.156933784484863,5.334498882293701
1781591798785282300,22.4292822265625,2.7738797664642334,-11.644073486328125,-0.5946164131164551
1781591798833795600,22.477795654296877,1.6378871202468872,-13.030116081237793,3.4055848121643066
1781591798882309000,22.52630908203125,-3.8386857509613037,-15.44955825805664,2.3431715965270996
1781591798930822400,22.574822509765625,-1.332503080368042,-9.01107120513916,1.4488540887832642
1781591798979336000,22.6233359375,-0.2913261651992798,-7.914859294891357,-2.347658157348633
1781591799027849200,22.67184912109375,-0.50907301902771,-9.893125534057617,2.6653053760528564
1781591799076362800,22.72036279296875,-1.1338988542556763,-6.623931407928467,-0.4007977843284607
1781591799124876000,22.7688759765625,0.16031911969184875,-9.1112699508667,-0.3723830282688141
1781591799173389300,22.817389404296875,-2.376671075820923,-11.209775924682617,1.3310075998306274
1781591799221902800,22.86590283203125,0.9807581901550293,-7.779963493347168,2.194218397140503
1781591799270416100,22.914416015625,2.944368362426758,-4.250550270080566,4.500301361083984
1781591799318929400,22.962929443359375,-0.8303094506263733,-14.26870059967041,5.284249782562256
1781591799367443000,23.01144287109375,-2.9796624183654785,-9.066405296325684,-0.5994020700454712
1781591799415956200,23.059956298828126,-2.443371057510376,-5.877669811248779,-5.588138103485107
1781591799464469500,23.108469482421874,-2.84087872505188,-25.73570442199707,-1.454537034034729
1781591799512983000,23.156983154296874,-4.297210216522217,-14.417654037475586,9.738189697265625
1781591799561496300,23.205496337890626,1.5604194402694702,-3.0340991020202637,2.507079839706421
1781591799610009900,23.254009765625,1.5544373989105225,-6.786643028259277,-1.9749759435653687
1781591799707036700,23.35103662109375,1.2113664150238037,-7.316952705383301,3.3619158267974854
1781591799755550000,23.399550048828125,0.5368895530700684,-10.547562599182129,5.156233787536621
1781591799804063200,23.448063232421877,3.3634114265441895,-12.255439758300781,-0.5273182988166809
1781591799852576800,23.49657666015625,0.5389832854270935,-14.532808303833008,4.355535507202148
1781591799901090000,23.545090087890625,-2.816950559616089,-13.62772274017334,1.9627127647399902
1781591799949603600,23.593603515625,-1.350150227546692,-8.587242126464844,-0.1618146300315857
1781591799998116900,23.642116943359376,-0.3248256742954254,-10.320243835449219,-1.7207385301589966
1781591800046630100,23.690630126953124,-0.659521758556366,-8.962018013000488,2.2800607681274414
1781591800095143700,23.739143798828124,-0.8916255235671997,-6.651448726654053,-1.0342975854873657
1781591800143657000,23.787656982421876,0.21236300468444824,-8.820542335510254,0.3858426511287689
1781591800192170200,23.836170166015624,-1.7668004035949707,-10.893624305725098,2.475973129272461
1781591800240683800,23.884683837890623,-0.0364905446767807,-9.119645118713379,2.3742783069610596
1781591800289197000,23.933197021484375,2.94975209236145,-5.269593715667725,3.2201411724090576
1781591800337710300,23.98171044921875,0.19561325013637543,-11.642876625061035,4.646562576293945
1781591800386223900,24.030223876953126,-2.522932291030884,-11.957233428955078,2.1858434677124023
1781591800434737200,24.078737060546874,-3.1905298233032227,-4.875675201416016,-3.8730826377868652
1781591800483250400,24.12725048828125,-0.5892325639724731,-16.31426429748535,-4.922634601593018
1781591800531764000,24.175763916015626,-6.833901405334473,-22.67857551574707,7.294818878173828
1781591800580277200,24.22427734375,0.6607181429862976,-2.9976086616516113,4.9486565589904785
1781591800628790500,24.27279052734375,2.0491535663604736,-7.261020183563232,-0.4905286431312561
1781591800677304000,24.321303955078125,-0.07507480680942535,-6.256034851074219,0.6275177597999573
1781591800725817300,24.3698173828125,0.7229315638542175,-6.361917018890381,3.0224339962005615
1781591800774330600,24.41833056640625,1.6477575302124023,-8.781659126281738,4.166801452636719
1781591800822844000,24.466843994140625,1.2436695098876953,-11.38086223602295,2.336292266845703
1781591800871357400,24.515357421875,1.0941181182861328,-16.77129364013672,0.9077770709991455
1781591800919870700,24.56387060546875,-0.781555712223053,-10.654641151428223,1.6019947528839111
1781591800968384000,24.612384033203124,-2.2432711124420166,-10.717453002929688,4.0010986328125
1781591801016897500,24.6608974609375,-0.10079765319824219,-11.563015937805176,-2.071885347366333
1781591801065410800,24.709410888671876,0.2386840581893921,-7.342376232147217,1.3154542446136475
1781591801113924000,24.757924072265624,-1.4093725681304932,-7.423732280731201,0.018544375896453857
1781591801162437600,24.806437744140624,-0.012562318705022335,-8.361120223999023,-0.6215356588363647
1781591801210951000,24.854950927734375,-1.617847204208374,-9.93380355834961,1.3298112154006958
1781591801259464200,24.903464111328127,-0.6454638838768005,-10.335199356079102,1.5753746032714844
1781591801307977700,24.951977783203127,3.3556346893310547,-4.780859470367432,2.760719060897827
1781591801356491000,25.000490966796875,0.42412781715393066,-9.876974105834961,5.415256977081299
1781591801405004300,25.04900439453125,-3.2548370361328125,-14.040783882141113,2.11824631690979
1781591801453517600,25.097517578125,-3.0855448246002197,-6.177370548248291,-4.601696968078613
1781591801502031000,25.146031005859374,-0.376570463180542,-15.456138610839844,-4.733302116394043
1781591801550544400,25.19454443359375,-7.007680416107178,-23.361127853393555,7.844270706176758
1781591801599057700,25.2430576171875,1.0378868579864502,-2.1720848083496094,5.119144916534424
1781591801647571200,25.2915712890625,2.1302103996276855,-6.299404621124268,-0.5395814776420593
1781591801696084500,25.34008447265625,0.2877369225025177,-5.753840923309326,-0.6643074154853821
1781591801744597800,25.38859765625,0.6855437159538269,-7.269395351409912,2.662912607192993
1781591801793111300,25.437111328125,1.4398809671401978,-9.690034866333008,4.567300319671631
1781591801841624600,25.48562451171875,1.4425729513168335,-10.947463035583496,3.1136605739593506
1781591801890137900,25.534137939453124,1.246361494064331,-14.66052532196045,1.0220344066619873
1781591801938651100,25.582651123046876,-0.8820542693138123,-13.480863571166992,1.5906288623809814
1781591801987164400,25.631164306640624,-2.2483558654785156,-10.543972969055176,3.2347970008850098
1781591802035678000,25.679677978515624,-0.5760720372200012,-11.119746208190918,-3.381357431411743
1781591802084191200,25.728191162109376,0.3520440459251404,-7.937291622161865,1.827518343925476
1781591802132704500,25.77670458984375,-1.7183457612991333,-7.6028947830200195,0.35383865237236023
1781591802181218000,25.825218017578123,0.47796630859375,-7.920542240142822,0.46480581164360046
1781591802229731300,25.8737314453125,-0.968794047832489,-8.783453941345215,2.3575284481048584
1781591802278244600,25.92224462890625,-1.6375880241394043,-9.993025779724121,1.5738791227340698
1781591802326758000,25.9707578125,0.974177896976471,-8.417949676513672,0.592223584651947
1781591802375271200,26.019271240234374,2.4293131828308105,-6.994220733642578,3.4998021125793457
1781591802423784700,26.06778466796875,-0.5700899958610535,-14.120944023132324,5.064409255981445
1781591802472298000,26.116298095703126,-3.4208390712738037,-9.33320426940918,0.06340979784727097
1781591802520811500,26.1648115234375,-1.9806588888168335,-4.9965128898620605,-6.428617000579834
1781591802569324800,26.21332470703125,-2.8088746070861816,-22.1545467376709,-2.8002007007598877
1781591802617838000,26.261838134765625,-4.9761738777160645,-16.494325637817383,9.942477226257324
1781591802666351400,26.310351318359373,2.2677977085113525,-1.8442680835723877,3.435495138168335
1781591802714864600,26.35886474609375,1.3863415718078613,-8.156234741210938,-1.6289139986038208
1781591802763378200,26.407378173828125,-0.46719861030578613,-5.645565986633301,1.5481562614440918
1781591802811891500,26.455891357421876,1.4892330169677734,-7.777271747589111,2.985943555831909
1781591802860404700,26.50440478515625,1.0767701864242554,-9.856036186218262,3.6191442012786865
1781591802908918300,26.552918212890624,3.333501100540161,-10.826326370239258,-0.02273181453347206
1781591802957431600,26.601431640625,1.077667474746704,-12.917055130004883,3.9774694442749023
1781591803005944800,26.64994482421875,-3.4504501819610596,-17.101503372192383,1.4207384586334229
1781591803054458000,26.6984580078125,-1.54067862033844,-7.940581798553467,-1.316650629043579
1781591803102971400,26.746971435546875,-0.6819544434547424,-10.653444290161133,-1.2939188480377197
1781591803151485000,26.79548486328125,-0.13698910176753998,-9.618847846984863,3.7516467571258545
1781591803199998200,26.843998291015627,-1.0651051998138428,-5.952146530151367,-0.9080761671066284
1781591803248511500,26.892511474609375,-0.12203395366668701,-8.339585304260254,-0.3454637825489044
1781591803297024800,26.941024658203126,-2.2307088375091553,-10.749157905578613,1.0193424224853516
1781591803345538000,26.9895380859375,0.877866804599762,-9.4660062789917,2.6264219284057617
1781591803394051600,27.038051513671874,2.6739792823791504,-4.737788677215576,4.182055950164795
1781591803442564900,27.08656494140625,-1.446162223815918,-11.782856941223145,4.214358806610107
1781591803491078100,27.135078125,-3.631706476211548,-12.02184009552002,-0.43130627274513245
1781591803539591400,27.18359130859375,-1.8248263597488403,-5.548656463623047,-5.86211633682251
1781591803588104700,27.232104736328125,-2.5169503688812256,-20.65215301513672,-2.287538528442383
1781591803636618200,27.2806181640625,-5.057230472564697,-18.241085052490234,9.611370086669922
1781591803685131500,27.329131591796877,2.4915266036987305,-0.9927222728729248,3.158226728439331
1781591803733644800,27.377644775390625,1.83828604221344,-7.4123663902282715,-1.9492532014846802
1781591803782158000,27.426157958984376,-0.4980062246322632,-6.442974090576172,1.7018951177597046
1781591803830671600,27.474671630859376,0.9050851464271545,-8.472685813903809,3.3828530311584473
1781591803879185000,27.523184814453124,1.0597213506698608,-10.262218475341797,5.155934810638428
1781591803927698200,27.5716982421875,2.1735801696777344,-11.0171537399292,2.6117658615112305
1781591803976211500,27.62021142578125,0.6086742877960205,-16.451852798461914,0.28534409403800964
1781591804024724700,27.668724853515624,-1.9286150932312012,-9.667003631591797,1.0193424224853516
1781591804073238300,27.71723828125,-1.7368900775909424,-12.29252815246582,2.6219353675842285
1781591804121751600,27.76575146484375,0.1501496136188507,-9.013164520263672,-1.7826528549194336
1781591804170264800,27.814264892578127,-0.6996015310287476,-8.421539306640625,1.1410772800445557
1781591804218778000,27.862778076171875,-1.1132607460021973,-7.237092018127441,-0.8787640929222107
1781591804267291400,27.91129150390625,-0.12652049958705902,-7.5272216796875,-0.30209386348724365
1781591804315805000,27.959804931640626,-1.2370892763137817,-10.84606647491455,1.9336998462677002
1781591804364318200,28.008318115234374,-0.5198407173156738,-9.428618431091309,2.7879374027252197
1781591804412831500,28.05683154296875,2.620140790939331,-5.745167255401611,2.1771695613861084
1781591804461344800,28.1053447265625,-0.2874378263950348,-11.737692832946777,4.3534417152404785
1781591804509858000,28.153858154296874,-3.177070379257202,-12.39392375946045,2.485544443130493
1781591804558371600,28.20237158203125,-1.9812572002410889,-5.44008207321167,-4.669294357299805
1781591804606884900,28.250884765625,-0.7758727669715881,-15.484553337097168,-5.410770416259766
1781591804672111900,28.31611181640625,-5.362614631652832,-17.483457565307617,8.399405479431152
1781591804723062500,28.3670625,2.1173489093780518,-2.495713949203491,3.9038901329040527
1781591804773990000,28.417989990234375,1.4578272104263306,-7.267899513244629,-0.597308337688446
1781591804824928800,28.4689287109375,-0.0077766734175384045,-5.2411789894104,0.924227774143219
1781591804875867600,28.51986767578125,1.638485312461853,-8.074878692626953,2.191227436065674
1781591804926806800,28.570806884765624,0.3658027648925781,-11.036595344543457,3.9074792861938477
1781591805024099300,28.668099365234376,-0.6726822853088379,-19.2993106842041,0.6559324860572815
1781591805072612900,28.71661279296875,-2.250748872756958,-7.3262248039245605,3.3879377841949463
1781591805121126100,28.765126220703124,-1.296311616897583,-11.448759078979492,0.5009972453117371
1781591805169639400,28.813639404296875,0.27397820353507996,-8.913862228393555,-1.41834557056427
1781591805218152700,28.862152587890623,-1.446162223815918,-7.172784805297852,0.6314060688018799
1781591805266666000,28.910666015625,-0.15553347766399384,-7.928916931152344,-0.2350948303937912
1781591805315179500,28.959179443359375,-0.831206738948822,-9.748359680175781,-0.15972091257572174
1781591805363692800,29.00769287109375,-1.6378871202468872,-10.397412300109863,0.7803592681884766
1781591805412206000,29.0562060546875,1.5439687967300415,-7.961818218231201,2.0593230724334717
1781591805460719400,29.10471923828125,1.7886348962783813,-5.537590026855469,4.309473514556885
1781591805509232600,29.153232666015626,-1.3956137895584106,-13.70459270477295,4.690829753875732
1781591805557746000,29.201745849609374,-4.185046672821045,-10.202696800231934,-1.2502498626708984
1781591805606259200,29.25025927734375,-0.45523449778556824,-7.70040225982666,-6.856932163238525
1781591805654772500,29.2987724609375,-4.122833251953125,-21.87398910522461,-0.2599203586578369
1781591805703285800,29.34728564453125,-3.7944185733795166,-12.879965782165527,8.95513916015625
1781591805751799300,29.39579931640625,2.5893332958221436,-3.1208388805389404,2.026122570037842
1781591805800312600,29.4443125,1.1730812788009644,-7.156334400177002,-1.1240284442901611
1781591805848825900,29.492825927734376,-0.07866404205560684,-6.154938220977783,1.7697914838790894
1781591805897339100,29.541339111328124,1.7066807746887207,-7.958229064941406,3.1998021602630615
1781591805945852400,29.589852294921876,0.5850451588630676,-10.777871131896973,4.6076788902282715
1781591805994365700,29.63836572265625,3.6945180892944336,-10.88016414642334,0.6681957244873047
1781591806042879000,29.68687890625,-2.008774518966675,-18.970298767089844,1.0812567472457886
1781591806091392500,29.735392578125,-1.6914265155792236,-8.539385795593262,1.0118649005889893
1781591806139905800,29.78390576171875,-1.3495519161224365,-10.248160362243652,-0.2192423790693283
1781591806188419000,29.832419189453127,0.5497509837150574,-10.933404922485352,1.0668997764587402
1781591806236932400,29.880932373046875,-1.5239288806915283,-8.260322570800781,0.9589236974716187
1781591806285445600,29.929445556640626,-0.5174478888511658,-7.34177827835083,-1.3926228284835815
1781591806333959000,29.977958984375,-0.8536394834518433,-8.21276569366455,0.2796611487865448
1781591806382472200,30.02647216796875,-1.6420745849609375,-10.89153003692627,1.196710467338562
1781591806430985500,30.0749853515625,1.9250258207321167,-8.451449394226074,1.7321045398712158
1781591806479499000,30.1234990234375,2.0757737159729004,-4.575077056884766,4.549653053283691
1781591806528012300,30.17201220703125,-0.8081758618354797,-14.594423294067383,4.4189453125
1781591806576525600,30.220525634765625,-3.6329028606414795,-9.104391098022461,-1.0414760112762451
1781591806625038800,30.269038818359373,-1.6019947528839111,-5.404788017272949,-6.394818305969238
1781591806673552100,30.31755224609375,-2.0569300651550293,-22.829322814941406,-2.528017044067383
1781591806722065400,30.3660654296875,-5.55733060836792,-16.437793731689453,9.993623733520508
1781591806770578700,30.41457861328125,2.1397817134857178,-1.8529419898986816,3.3439695835113525
1781591806867605200,30.511605224609376,0.24915266036987305,-5.8250274658203125,1.8502501249313354
1781591806916118500,30.560118408203124,1.674377679824829,-6.964908599853516,2.8002007007598877
1781591806964631800,30.6086318359375,1.1099705696105957,-10.656734466552734,3.6457643508911133
1781591807013145300,30.657145263671875,4.567898273468018,-10.931610107421875,-0.7334001660346985
1781591807061658600,30.70565869140625,-2.7487549781799316,-19.30469512939453,1.119541883468628
1781591807110172000,30.754171875,-1.7018951177597046,-9.312566757202148,0.9230313301086426
1781591807158685200,30.802685302734375,-1.7494524717330933,-8.547162055969238,-2.02492618560791
1781591807207198500,30.851198486328126,0.11724831163883209,-11.78554916381836,0.734895646572113
1781591807255711700,30.899711669921874,-1.1153544187545776,-8.438288688659668,2.510669231414795
1781591807304225000,30.94822509765625,-0.23001007735729218,-6.7331037521362305,-0.8874381184577942
1781591807352738300,30.99673828125,-0.6954140663146973,-9.655936241149902,-0.5279164910316467
1781591807401251600,31.04525146484375,-1.5547364950180054,-10.537392616271973,1.0055837631225586
1781591807449764900,31.093764892578125,1.2185449600219727,-8.425427436828613,2.210968017578125
1781591807498278100,31.142278076171873,0.14087744057178497,-5.956333637237549,1.7063816785812378
1781591807546791700,31.190791748046873,-1.521835207939148,-11.70269775390625,2.8348965644836426
1781591807595304700,31.2393046875,-5.6724853515625,-10.337592124938965,-2.092224359512329
1781591807643818200,31.287818359375,0.134297177195549,-9.768698692321777,-5.400002479553223
1781591807692331500,31.33633154296875,-5.921039581298828,-21.19891357421875,1.4347963333129883
1781591807740844800,31.3848447265625,-1.6893328428268433,-10.093823432922363,10.771590232849121
1781591807789358000,31.433358154296876,2.140080690383911,-7.546962738037109,1.8026927709579468
1781591807837871400,31.481871337890624,0.34995031356811523,-5.516652584075928,-1.1359925270080566
1781591807886384600,31.530384521484375,0.9337990283966064,-4.440480709075928,0.5401797294616699
1781591807934898000,31.57889794921875,2.0685951709747314,-9.029017448425293,0.02063809521496296
1781591807983411200,31.6274111328125,-0.8626125454902649,-11.162517547607422,3.4103705883026123
1781591808031924500,31.675924560546875,3.9984066486358643,-11.26062297821045,0.9299107193946838
1781591808080437800,31.724437744140626,0.2027917206287384,-14.324932098388672,4.1644086837768555
1781591808128951300,31.772951416015626,-3.55005145072937,-14.986248016357422,-1.563111424446106
1781591808225977900,31.869977783203126,-0.388235479593277,-10.05284595489502,-1.394417405128479
1781591808274491100,31.9184912109375,0.37537404894828796,-9.80399227142334,2.2983062267303467
1781591808323004400,31.96700439453125,-1.6420745849609375,-5.318646430969238,-1.4243277311325073
1781591808371517700,32.015517578125,-0.39960137009620667,-7.9019975662231445,-1.5086746215820312
1781591808420031000,32.06403100585938,-1.6471593379974365,-10.767104148864746,1.4985052347183228
1781591808468544300,32.112544189453125,-0.05892325937747955,-10.348360061645508,2.862713098526001
1781591808517057500,32.1610576171875,2.100898265838623,-5.567500114440918,4.1608195304870605
1781591808565570800,32.20957080078125,-0.5889334678649902,-12.464213371276855,3.5401811599731445
1781591808614084000,32.258083984375,-1.7186448574066162,-8.875876426696777,0.7746763229370117
1781591808662597400,32.306597412109376,-3.9020955562591553,-5.694020748138428,-3.0729825496673584
1781591808711110700,32.355110595703124,-3.4459636211395264,-26.131418228149414,-2.599801778793335
1781591808759624000,32.4036240234375,-4.533501625061035,-12.626925468444824,8.106583595275879
1781591808808137200,32.45213720703125,1.5598212480545044,-3.328416347503662,2.923431158065796
1781591808856650500,32.500650390625,1.1611171960830688,-8.25822925567627,-1.5699907541275024
1781591808905163800,32.549163818359375,-0.13130614161491394,-5.185545921325684,1.4733805656433105
1781591808953677300,32.59767724609375,1.662413477897644,-7.576274871826172,3.0664021968841553
1781591809002190300,32.6461904296875,0.14087744057178497,-9.878170013427734,4.203591346740723
1781591809050704000,32.69470385742188,4.967798709869385,-11.265707969665527,-1.6145570278167725
1781591809099217000,32.743216796875,-0.3837489187717438,-12.948460578918457,6.274280071258545
1781591809147730400,32.79173046875,-3.6771702766418457,-17.451154708862305,-0.88025963306427
1781591809196243700,32.84024365234375,-0.5018945336341858,-6.375077724456787,-2.8776683807373047
1781591809244757000,32.88875708007812,-0.5485545992851257,-12.945768356323242,-0.09152546525001526
1781591809293270300,32.93727026367188,-0.8075776696205139,-8.459226608276367,2.3778674602508545
1781591809341783600,32.985783447265625,-0.9984052777290344,-5.605186939239502,-1.1682956218719482
1781591809390296800,33.034296875,-0.9720842242240906,-9.61525821685791,-0.37477585673332214
1781591809438810000,33.08281005859375,-2.4197418689727783,-10.356734275817871,0.6631109714508057
1781591809487323400,33.13132348632813,2.3769702911376953,-7.026224613189697,1.6112669706344604
1781591809535836700,33.179836669921876,1.4781662225723267,-6.0762739181518555,5.267200946807861
1781591809584350000,33.228349853515624,-0.6792625188827515,-15.043676376342773,3.9044883251190186
1781591809632863200,33.27686328125,-3.9696927070617676,-6.833003997802734,-0.4169493317604065
1781591809681376500,33.32537646484375,-0.5485545992851257,-8.748458862304688,-7.485347270965576
1781591809729889800,33.37388989257813,-6.081358909606934,-25.559534072875977,-3.9696927070617676
1781591809778403000,33.422403076171875,-3.515953779220581,-11.035099983215332,9.147162437438965
1781591809826916400,33.47091625976562,1.8436698913574219,-2.927917718887329,2.444268226623535
1781591809875429600,33.5194296875,0.6885347366333008,-6.447161674499512,-0.8599206209182739
1781591809923943200,33.56794311523438,0.4130610227584839,-6.270092487335205,1.0977073907852173
1781591809972456200,33.616456298828126,1.7509479522705078,-8.467900276184082,1.186540961265564
1781591810020969700,33.6649697265625,-0.4663013219833374,-11.075478553771973,2.6141586303710938
1781591810069482800,33.71348266601562,3.931706666946411,-10.947163581848145,-1.85383939743042
1781591810117996300,33.76199633789062,-1.6271194219589233,-18.024534225463867,1.7964116334915161
1781591810166509600,33.81050952148438,-1.6345969438552856,-10.48534870147705,0.9990034699440002
1781591810215022800,33.85902294921875,-0.7794619798660278,-10.025328636169434,-0.9038887619972229
1781591810263536000,33.9075361328125,-0.05952146276831627,-11.196615219116211,-0.5772684812545776
1781591810312049400,33.95604931640625,-0.602692186832428,-7.344171047210693,1.412961721420288
1781591810360562700,34.00456274414063,-0.5162515044212341,-7.037590503692627,-1.2394821643829346
1781591810409076000,34.053075927734376,-0.6936194896697998,-9.17467975616455,-1.0328021049499512
1781591810457589200,34.10158935546875,-2.1469600200653076,-9.836296081542969,-0.22642084956169128
1781591810506102500,34.1501025390625,0.22103698551654816,-9.575179100036621,0.10289137065410614
1781591810554615800,34.19861572265625,2.1960129737854004,-5.867201328277588,2.7415764331817627
1781591810603129000,34.24712915039063,-0.851844847202301,-11.831910133361816,4.886742115020752
1781591810651642400,34.295642333984375,-4.558626174926758,-13.947164535522461,0.03559323772788048
1781591810700155600,34.34415576171875,-1.6217355728149414,-4.380361080169678,-6.52253532409668
1781591810748669000,34.3926689453125,-2.520240545272827,-16.441383361816406,-5.107480049133301
1781591810797182200,34.44118212890625,-5.897709846496582,-22.199710845947266,7.9229350090026855
1781591810845695500,34.489695556640626,1.5092729330062866,-0.9750752449035645,8.297710418701172
1781591810894208800,34.538208740234374,1.8559330701828003,-7.954938888549805,1.0019944906234741
1781591810942722000,34.58672216796875,0.8955138921737671,-5.464608669281006,0.3245265781879425
1781591810991235300,34.6352353515625,1.8272192478179932,-4.943870544433594,-0.22522443532943726
1781591811039748600,34.68374853515625,1.1467602252960205,-11.069497108459473,-0.2667997181415558
1781591811088262000,34.732261962890625,0.9361918568611145,-12.714262962341309,3.067598581314087
1781591811136775200,34.78077514648437,3.514458179473877,-11.590832710266113,3.4444682598114014
1781591811185288400,34.82928833007813,-3.976572036743164,-18.09093475341797,-4.48833703994751
1781591811233801700,34.8778017578125,-0.7899305820465088,-8.893523216247559,1.8092730045318604
1781591811282315000,34.92631494140625,-1.6052849292755127,-9.767501831054688,-0.11515458673238754
1781591811330828300,34.974828369140624,0.3475574851036072,-9.48066234588623,-0.7052844762802124
1781591811379341600,35.02334155273437,-1.3648061752319336,-5.699703693389893,-0.00867398176342249
1781591811427854800,35.07185473632813,-0.10827522724866867,-8.902795791625977,-0.20069800317287445
1781591811476368100,35.1203681640625,-0.7621139883995056,-9.887741088867188,0.129810631275177
1781591811524881400,35.16888134765625,-1.3277174234390259,-9.375677108764648,0.5446662306785583
1781591811573394700,35.21739477539062,2.030010938644409,-7.392625331878662,0.2353939265012741
1781591811621908000,35.26590795898438,-0.20907287299633026,-8.339883804321289,3.8617167472839355
1781591811670421200,35.31442114257813,-2.321038007736206,-13.879866600036621,3.986741542816162
1781591811718934500,35.3629345703125,-2.189133644104004,-8.239086151123047,-2.804089069366455
1781591811767447800,35.41144775390625,-1.1300104856491089,-11.70269775390625,-7.354938507080078
1781591811815961000,35.45996118164062,-6.042176246643066,-23.53700065612793,1.5798611640930176
1781591811864474400,35.50847436523438,-1.2188440561294556,-4.454837322235107,6.637091636657715
1781591811912987600,35.556987548828126,2.407777786254883,-6.208776473999023,0.17318053543567657
1781591811961501000,35.6055009765625,0.5330012440681458,-6.4680986404418945,0.10438688844442368
1781591812010014200,35.65401416015625,0.8171489238739014,-5.938387393951416,1.807478427886963
1781591812058527500,35.70252758789063,0.3475574851036072,-9.734301567077637,3.4423744678497314
1781591812107040800,35.75104077148438,0.5422734022140503,-11.928818702697754,1.6217355728149414
1781591812155554000,35.799553955078125,5.426323413848877,-9.795618057250977,2.1720848083496094
1781591812204067300,35.8480673828125,-5.376074314117432,-19.711772918701172,0.9655039310455322
1781591812252580600,35.89658056640625,0.618245542049408,-9.119346618652344,-2.2998015880584717
1781591812301094000,35.94509399414063,-0.8045865893363953,-8.922237396240234,-1.709372639656067
1781591812349607200,35.993607177734376,-0.1983051747083664,-11.97188949584961,1.363609790802002
1781591812398120400,36.042120361328124,-1.950150489807129,-6.326323986053467,-1.5535401105880737
1781591812446633500,36.09063354492187,0.5303093194961548,-8.342576026916504,-1.3725829124450684
1781591812495147000,36.13914697265625,-1.134796142578125,-10.122836112976074,0.6804589629173279
1781591812543660000,36.187659912109375,-0.3125624656677246,-9.214759826660156,2.2540390491485596
1781591812592173300,36.23617333984375,3.1788649559020996,-4.752145767211914,4.339982032775879
1781591812640686600,36.2846865234375,-1.0654042959213257,-11.012068748474121,3.6089746952056885
1781591812689199900,36.33319995117188,-2.4975085258483887,-11.904293060302734,0.0771685317158699
1781591812737713200,36.381713134765626,-2.9353952407836914,-5.340780258178711,-5.703591823577881
1781591812786226400,36.430226318359374,-0.8748757839202881,-18.867406845092773,-5.9784674644470215
1781591812834739700,36.47873974609375,-6.853941440582275,-22.112672805786133,7.178168773651123
1781591812883253000,36.5272529296875,0.3568296730518341,-1.1470593214035034,5.463711261749268
1781591812931766300,36.57576635742188,2.1017956733703613,-6.79531717300415,-1.9462621212005615
1781591812980279600,36.624279541015625,0.006580262444913387,-5.797211170196533,0.064606212079525
1781591813028792800,36.67279272460937,0.8090731501579285,-8.11406135559082,2.5842485427856445
1781591813077306000,36.72130615234375,0.8243274092674255,-10.503594398498535,3.8075790405273438
1781591813125819400,36.7698193359375,4.293920040130615,-10.265807151794434,-0.5650052428245544
1781591813174332400,36.81833251953125,-0.997208833694458,-13.52303695678711,1.4922239780426025
1781591813222846000,36.866845947265624,-2.8929226398468018,-15.86860179901123,0.26500511169433594
1781591813271359000,36.91535888671875,-0.9230313301086426,-8.597112655639648,-2.501995086669922
1781591813319872300,36.96387231445313,-0.2991028428077698,-12.908082008361816,-1.2023934125900269
1781591813368385500,37.012385498046875,-1.0657033920288086,-7.896913051605225,2.09431791305542
1781591813416898800,37.06089892578125,-0.6610172390937805,-6.5614190101623535,-0.7250252366065979
1781591813465412000,37.109412109375,-0.4097708761692047,-9.654142379760742,-0.05952146276831627
1781591813513925400,37.15792529296875,-0.7280163168907166,-10.6025972366333,1.2921242713928223
1781591813562438700,37.206438720703126,1.7778671979904175,-8.395217895507812,1.3522439002990723
1781591813610952000,37.254951904296874,2.5995028018951416,-5.272584915161133,2.6509482860565186
1781591813659465200,37.30346533203125,-2.6291139125823975,-13.045668601989746,2.3156540393829346
1781591813707978500,37.351978515625,-4.510171413421631,-9.419944763183594,-1.0917253494262695
1781591813756491500,37.400491455078125,-0.30209386348724365,-9.840184211730957,-6.178866386413574
1781591813805005000,37.449005126953125,-5.742176055908203,-23.432313919067383,-0.2063809484243393
1781591813853518000,37.49751806640625,-2.20737886428833,-9.218647956848145,5.547161102294922
1781591813902031400,37.54603125,2.2408783435821533,-3.110370397567749,2.1454646587371826
1781591813950544600,37.594544677734376,1.1955139636993408,-6.394519329071045,-0.6029912829399109
1781591813999058000,37.643057861328124,-0.6418746709823608,-6.351747512817383,1.4715858697891235
1781591814047571200,37.6915712890625,0.6290132403373718,-8.556135177612305,2.872284412384033
1781591814096084500,37.74008447265625,1.277767300605774,-12.145668983459473,2.4445674419403076
1781591814144597800,37.78859765625,3.8883368968963623,-12.123833656311035,1.5092729330062866
1781591814193110800,37.83711083984375,-0.9768698215484619,-18.687944412231445,2.8630123138427734
1781591814241624000,37.8856240234375,-2.0916261672973633,-8.059624671936035,-0.0975075215101242
1781591814290137300,37.93413745117188,-1.0091729164123535,-10.6624174118042,-3.07417893409729
1781591814338650600,37.982650634765626,0.1013958603143692,-10.554142951965332,1.7042878866195679
1781591814387164000,38.031163818359374,-1.4635101556777954,-6.673283100128174,-0.857228696346283
1781591814435677200,38.07967724609375,-0.21774685382843018,-6.491129398345947,-2.9204399585723877
1781591814484190500,38.1281904296875,-0.18065811693668365,-9.882955551147461,-1.83828604221344
1781591814532703500,38.176703369140625,-0.989432156085968,-11.580364227294922,-0.7671987414360046
1781591814581216800,38.225216796875,3.206083297729492,-6.431309223175049,0.997208833694458
1781591814629730000,38.27372998046875,1.8266209363937378,-6.367300987243652,5.628517150878906
1781591814678243300,38.32224340820313,0.3771686553955078,-16.063615798950195,7.236194610595703
1781591814726756600,38.37075659179688,-4.067499160766602,-6.607480525970459,-1.7644076347351074
1781591814775269600,38.41926953125,-0.8126623630523682,-7.731209754943848,-6.683752059936523
1781591814823783200,38.467783203125,-3.375375509262085,-29.057540893554688,-0.6565307378768921
1781591814872296200,38.51629614257813,-4.587040901184082,-10.475179672241211,8.130212783813477
1781591814920809500,38.5648095703125,2.0129621028900146,-2.033600091934204,1.810469388961792
1781591814969322800,38.61332275390625,1.1264212131500244,-5.966802597045898,-2.7101707458496094
1781591815017836000,38.6618359375,0.4815555512905121,-5.091029167175293,0.6843472719192505
1781591815066349300,38.71034936523437,0.698704183101654,-9.597013473510742,3.682554006576538
1781591815114862300,38.7588623046875,1.7237296104431152,-12.356535911560059,3.3439695835113525
1781591815163375600,38.807375732421875,4.2825541496276855,-10.19312572479248,-0.7028916478157043
1781591815211889000,38.85588891601562,-3.588934898376465,-19.600807189941406,0.4740779995918274
1781591815260402200,38.90440209960938,-1.6274185180664062,-9.820443153381348,1.3124631643295288
1781591815308915500,38.95291552734375,-1.2379865646362305,-9.708279609680176,-2.427518606185913
1781591815357428500,39.001428466796874,0.08195417374372482,-10.41176986694336,0.6406782865524292
1781591815405941800,39.04994165039062,-2.321636199951172,-5.410770416259766,-0.5688936114311218
1781591815502968300,39.14696826171875,-1.3091731071472168,-10.959127426147461,-0.5811567902565002
1781591815551481600,39.195481689453125,-1.012762188911438,-9.633803367614746,-0.05294119939208031
1781591815599994600,39.24399462890625,4.7662034034729,-4.951348304748535,2.431107759475708
1781591815648508000,39.2925078125,0.6158527135848999,-10.104291915893555,7.618747234344482
1781591815697021200,39.341021240234376,-1.841277003288269,-13.817055702209473,2.348555326461792
1781591815745534500,39.389534423828124,-3.3843486309051514,-4.482056140899658,-3.4540395736694336
1781591815794047700,39.4380478515625,-0.6981059908866882,-16.6055908203125,-7.6375908851623535
1781591815842560800,39.48656079101563,-8.093124389648438,-26.63959312438965,3.7704901695251465
1781591815891074000,39.535073974609375,-0.5703890919685364,-1.8592232465744019,6.932007312774658
1781591815939587300,39.58358740234375,2.7747769355773926,-5.191228866577148,-1.3046865463256836
1781591815988100400,39.63210034179688,0.4749752879142761,-5.3832526206970215,-1.4757733345031738
1781591816036613600,39.680613525390626,0.529412031173706,-7.374978542327881,2.1134605407714844
1781591816085127000,39.729126953125,1.51166570186615,-10.044770240783691,4.427918434143066
1781591816133640200,39.77764013671875,2.1672990322113037,-11.851052284240723,1.073180913925171
1781591816182153500,39.82615356445312,-0.24227328598499298,-18.192031860351562,-2.4858436584472656
1781591816230666500,39.87466650390625,-2.042872428894043,-9.949057579040527,1.32921302318573
1781591816279179800,39.9231796875,-1.7129619121551514,-11.415857315063477,1.1841480731964111
1781591816327693000,39.97169311523437,-0.4995017349720001,-12.061620712280273,-3.1561331748962402
1781591816376206000,40.0202060546875,-0.16331014037132263,-6.771389007568359,0.9975079298019409
1781591816424719400,40.06871923828125,-0.9203394055366516,-6.123831272125244,-1.4159528017044067
1781591816473232600,40.117232666015624,-0.008973085321485996,-8.511868476867676,-1.4222339391708374
1781591816521746000,40.16574584960937,-1.4922239780426025,-9.964909553527832,-0.27038896083831787
1781591816570259200,40.21425927734375,-0.14775680005550385,-8.822935104370117,0.6813562512397766
1781591816618772200,40.262772216796876,5.112864017486572,-6.391827583312988,3.8500516414642334
1781591816667285500,40.311285400390624,0.03978067636489868,-13.18116283416748,7.368099212646484
1781591816715798800,40.359798828125,-2.2779672145843506,-11.698210716247559,1.805384635925293
1781591816764311800,40.40831176757813,-2.775973320007324,-4.6402812004089355,-5.254040241241455
1781591816812825000,40.4568251953125,-1.9674984216690063,-20.524734497070312,-6.859325408935547
1781591816861338400,40.50533837890625,-7.071389198303223,-21.4483642578125,6.596713066101074
1781591816909851400,40.55385131835938,1.1647064685821533,0.4289134442806244,5.0602216720581055
1781591816958364700,40.60236474609375,2.9832515716552734,-6.832705020904541,-2.496312141418457
1781591817006878000,40.6508779296875,-0.2961117923259735,-6.161219120025635,0.4576273262500763
1781591817055391200,40.69939111328125,1.0552347898483276,-7.4709906578063965,2.4819552898406982
1781591817103904300,40.747904296875,0.6505486369132996,-10.039984703063965,4.346263408660889
1781591817152417500,40.79641748046875,2.0503499507904053,-13.797613143920898,0.129810631275177
1781591817200930800,40.844930908203125,1.622931957244873,-14.385051727294922,1.2831511497497559
1781591817249444000,40.89344409179687,-3.5581271648406982,-13.92353630065918,-0.372682124376297
1781591817297957000,40.94195703125,-1.5744773149490356,-10.794919967651367,1.2290135622024536
1781591817346470400,40.990470458984376,-1.2580264806747437,-8.497511863708496,-2.5510480403900146
1781591817394983700,41.038983642578124,-0.13938191533088684,-8.041678428649902,-1.1467602252960205
1781591817443496700,41.08749658203125,-0.9478568434715271,-5.939583778381348,-1.8640087842941284
1781591817492010000,41.13601000976563,-0.22073788940906525,-8.503493309020996,-1.3348959684371948
1781591817540523300,41.184523193359375,-1.709073543548584,-11.32941722869873,-0.21565313637256622
1781591817607328500,41.25132861328125,5.264808177947998,-4.994419097900391,5.272285461425781
1781591817655841500,41.29984155273438,-0.21625134348869324,-10.858031272888184,7.900203227996826
1781591817704354800,41.348354736328126,-2.903989315032959,-13.951951026916504,1.0767701864242554
1781591817752868000,41.3968681640625,-2.6799614429473877,-4.822434902191162,-5.4795637130737305
1781591817801381000,41.44538110351562,-0.6005984544754028,-17.12692642211914,-6.787839412689209
1781591817849894400,41.49389428710938,-8.718548774719238,-24.87339210510254,5.193322658538818
1781591817946920700,41.59092065429687,2.484647274017334,-5.409573554992676,-2.178964138031006
1781591817995433700,41.63943383789063,-0.12113664299249649,-5.542674541473389,-0.08793623000383377
1781591818043947000,41.687947021484376,0.44745782017707825,-7.5774712562561035,2.66560435295105
1781591818092460300,41.736460205078124,1.2891331911087036,-10.038787841796875,3.82373046875
1781591818140973300,41.78497338867187,2.3515465259552,-12.43968677520752,0.849452018737793
1781591818189486600,41.83348657226563,1.948355793952942,-14.542678833007812,2.5689942836761475
1781591818237999600,41.88199951171875,-2.7086751461029053,-14.979667663574219,0.34217363595962524
1781591818286512600,41.9305126953125,-1.5571293830871582,-10.595418930053711,2.117648124694824
1781591818335026200,41.97902612304687,-0.5904290080070496,-10.882556915283203,-2.7535407543182373
1781591818383539500,42.02753955078125,-0.2721835672855377,-7.610073089599609,-1.231406331062317
1781591818432052500,42.076052490234375,-1.3908281326293945,-5.5019965171813965,-2.276172637939453
1781591818480565800,42.12456567382812,-0.5560321807861328,-8.536993026733398,-2.3084757328033447
1781591818529078800,42.17307885742188,-1.4931213855743408,-11.825927734375,-1.6271194219589233
1781591818577591800,42.221591796875,2.350649118423462,-8.280961036682129,1.5759727954864502
1781591818626105300,42.270105224609374,3.2063822746276855,-4.223930358886719,7.590930938720703
1781591818674618400,42.31861840820312,-1.434198021888733,-14.762818336486816,5.3318071365356445
1781591818723131600,42.36713159179688,-3.8183467388153076,-9.678967475891113,-1.6854444742202759
1781591818771645000,42.41564501953125,-1.8807586431503296,-4.666901588439941,-5.285745143890381
1781591818820158000,42.46415795898437,-4.457828521728516,-26.365915298461914,-5.5019965171813965
1781591818868671000,42.5126708984375,-4.6286163330078125,-15.453446388244629,5.44217586517334
1781591818917184300,42.561184326171876,0.9897312521934509,-0.7872386574745178,3.741776466369629
1781591818965697500,42.609697509765624,1.8352949619293213,-6.250650882720947,-1.3070793151855469
1781591819014210600,42.65821044921875,0.8033902049064636,-4.681856632232666,0.6690930128097534
1781591819062723800,42.70672387695313,1.0139585733413696,-7.621140003204346,3.1387851238250732
1781591819111237000,42.755237060546875,-0.0062811593525111675,-12.521042823791504,3.666701555252075
1781591819159750100,42.80375024414062,4.061517238616943,-12.57129192352295,-2.1984057426452637
1781591819256776700,42.900776611328126,-2.2989044189453125,-9.796216011047363,1.4673985242843628
1781591819305289700,42.949289794921874,-0.10618150234222412,-11.873784065246582,-3.1136605739593506
1781591819353803000,42.99780297851562,0.2919243574142456,-8.041379928588867,1.7371892929077148
1781591819402316000,43.04631591796875,-1.5212370157241821,-6.415157318115234,-0.877567708492279
1781591819450829300,43.094829345703126,-0.21774685382843018,-7.9504523277282715,-2.3886351585388184
1781591819499342300,43.14334228515625,-1.8233308792114258,-9.513264656066895,-1.607378602027893
1781591819547855400,43.19185546875,-0.6355935335159302,-9.7636137008667,-1.298405408859253
1781591819596368600,43.24036865234375,3.4567313194274902,-4.944169998168945,2.95184588432312
1781591819644882000,43.2888818359375,0.5925226807594299,-12.103495597839355,7.35314416885376
1781591819693395200,43.33739526367187,-2.926422119140625,-13.160524368286133,1.8768702745437622
1781591819741908200,43.385908203125,-2.93210506439209,-5.233701229095459,-5.329713344573975
1781591819790421500,43.43442138671875,-4.826921463012695,-18.326627731323242,-4.439284324645996
1781591819838934500,43.4829345703125,-7.059424877166748,-20.070098876953125,6.282954216003418
1781591819887447800,43.53144775390625,0.9888339638710022,-4.6459641456604,5.8082780838012695
1781591819935960800,43.5799609375,2.026122570037842,-6.4217376708984375,-0.7854440212249756
1781591819984474000,43.62847412109375,-0.11006984114646912,-2.919841766357422,-1.118943691253662
1781591820032987100,43.67698706054688,1.277169108390808,-4.452444553375244,0.5904290080070496
1781591820081500400,43.72550048828125,0.2793620526790619,-11.938689231872559,2.922234535217285
1781591820130013700,43.774013671875,1.5083755254745483,-14.388640403747559,-0.5709872841835022
1781591820178526700,43.82252661132812,1.7916259765625,-12.969996452331543,2.60339093208313
1781591820275553000,43.919552978515625,-1.77397882938385,-11.308480262756348,-0.5401797294616699
1781591820324066300,43.96806640625,-0.6948158740997314,-8.23130989074707,-3.3481571674346924
1781591820372579300,44.01657934570313,-0.5078766345977783,-7.846962928771973,0.16899310052394867
1781591820421092600,44.06509252929688,-0.7304090857505798,-6.68853759765625,-3.541975736618042
1781591820469605600,44.113605712890624,0.5536393523216248,-8.747262001037598,-0.24167509377002716
1781591820518119000,44.16211889648437,-1.1730812788009644,-10.457233428955078,0.6550351977348328
1781591820566632200,44.21063208007813,1.8765711784362793,-7.994420528411865,3.855435371398926
1781591820615145200,44.259145263671876,1.968395709991455,-6.338587284088135,6.56919527053833
1781591820663658500,44.307658447265624,-2.5573291778564453,-14.564213752746582,2.7741787433624268
1781591820712171500,44.35617163085937,-4.276572227478027,-7.77188777923584,-4.778466701507568
1781591820809197800,44.45319775390625,-8.224729537963867,-23.19363021850586,5.138287544250488
1781591820857711000,44.50171118164062,-0.02063809521496296,-7.239185810089111,4.353142738342285
1781591820906224000,44.55022412109375,0.8883354067802429,-4.72582483291626,-0.27816563844680786
1781591820954737400,44.5987373046875,0.21296121180057526,-5.7619171142578125,-0.23988047242164612
1781591821003250700,44.647250732421874,0.23599213361740112,-6.7932233810424805,1.5601203441619873
1781591821051763700,44.695763671875,0.23778675496578217,-9.354440689086914,4.397409915924072
1781591821100277000,44.74427709960938,0.7345965504646301,-13.178770065307617,1.0088738203048706
1781591821148790000,44.7927900390625,1.6319050788879395,-12.958630561828613,-0.46809592843055725
1781591821197303300,44.84130322265625,-1.994118571281433,-16.14527130126953,-2.092224359512329
1781591821245816300,44.88981640625,-1.3956137895584106,-10.881660461425781,0.8294121623039246
1781591821294329600,44.93832958984375,-0.36281174421310425,-8.686544418334961,-2.7906293869018555
1781591821342842600,44.98684252929687,-0.04486542567610741,-7.260721206665039,0.857228696346283
1781591821391356000,45.03535595703125,-0.09900303930044174,-7.494320392608643,-1.6160526275634766
1781591821439869000,45.083868896484375,-0.7483552694320679,-7.905886173248291,-2.5067808628082275
1781591821488382200,45.13238232421875,-1.547258973121643,-10.835299491882324,-0.38225340843200684
1781591821536895200,45.18089526367187,0.2967100143432617,-9.190832138061523,2.212463617324829
1781591821585408500,45.22940844726563,3.7489547729492188,-6.7055864334106445,6.576374053955078
1781591821633921500,45.277921630859375,-1.9917258024215698,-13.294522285461426,5.682953834533691
1781591821682434800,45.32643481445312,-1.2116655111312866,-11.647662162780762,-2.5052852630615234
1781591821730947800,45.37494775390625,-1.5753746032714844,-7.9627156257629395,-5.793622016906738
1781591821779461000,45.423461181640626,-10.883155822753906,-20.69253158569336,-3.0786654949188232
1781591821827974400,45.471974365234374,-0.6023930907249451,-9.407979965209961,4.3779683113098145
1781591821876487400,45.5204873046875,1.0767701864242554,-5.210670471191406,3.9762730598449707
1781591821925000700,45.56900073242188,1.3504493236541748,-5.883352756500244,0.15074782073497772
1781591821973514000,45.617513916015625,0.8943174481391907,-5.799304962158203,-0.6332007050514221
1781591822022026800,45.66602685546875,1.7356936931610107,-8.26660442352295,0.716949462890625
1781591822070540300,45.71454028320313,-0.9900303483009338,-11.692827224731445,1.5858432054519653
1781591822119053300,45.76305322265625,4.408476829528809,-11.457432746887207,-1.3408780097961426
1781591822167566600,45.811566650390624,-2.9368906021118164,-21.16990089416504,-0.638883650302887
1781591822216079600,45.86007958984375,-1.862214207649231,-7.4617180824279785,2.7269206047058105
1781591822264593000,45.90859301757813,-0.6038886308670044,-12.004193305969238,-1.5002998113632202
1781591822313106000,45.95710595703125,-1.5017952919006348,-9.184550285339355,-3.274876832962036
1781591822410132200,46.05413232421875,-0.18903298676013947,-5.942873954772949,-2.3865413665771484
1781591822458645500,46.1026455078125,-2.263011932373047,-12.209676742553711,-2.1281166076660156
1781591822507158500,46.15115844726562,1.999801516532898,-9.655936241149902,2.667997360229492
1781591822555671800,46.199671875,0.6263213157653809,-6.553941249847412,3.6529428958892822
1781591822604185000,46.24818505859375,-0.6442674994468689,-12.378669738769531,3.397808074951172
1781591822652698000,46.296697998046874,-3.556332588195801,-12.208181381225586,-1.1647064685821533
1781591822701211400,46.34521142578125,-1.8011972904205322,-7.748857021331787,-6.127121448516846
1781591822749724400,46.39372436523438,-6.119943141937256,-21.294626235961914,-3.3649067878723145
1781591822798237700,46.44223779296875,-3.947559118270874,-11.145169258117676,3.8709888458251953
1781591822846750700,46.49075073242187,0.716949462890625,-5.517251014709473,5.084748268127441
1781591822895264000,46.53926391601563,1.2664014101028442,-3.9616169929504395,0.9317052960395813
1781591822943777000,46.587777099609376,0.6780661344528198,-5.643771171569824,0.8150551915168762
1781591822992290000,46.6362900390625,1.5305092334747314,-10.041181564331055,1.4437693357467651
1781591823040803300,46.68480322265625,-0.597308337688446,-12.659826278686523,0.41575294733047485
1781591823089316600,46.73331665039063,3.941876173019409,-9.402297019958496,-2.865704298019409
1781591823137829600,46.78182958984375,-3.4648072719573975,-18.916757583618164,-2.5689942836761475
1781591823186343000,46.83034301757812,-2.058724880218506,-8.582456588745117,2.8803603649139404
1781591823234856000,46.87885595703125,-0.6203392744064331,-9.392427444458008,-1.252044439315796
1781591823283369200,46.927369140625,-0.23688943684101105,-11.60519027709961,-3.1163523197174072
1781591823331882200,46.97588232421875,-1.807478427886963,-5.73469877243042,-3.3888349533081055
1781591823380395500,47.0243955078125,0.8470591902732849,-7.074080944061279,-1.978864312171936
1781591823428908500,47.072908447265625,-0.7938188910484314,-12.254542350769043,-0.10767702013254166
1781591823477421800,47.121421875,-1.0773683786392212,-9.087940216064453,1.6055840253829956
1781591823525935000,47.16993505859375,3.6472599506378174,-4.8559346199035645,4.836492538452148
1781591823574448000,47.2184482421875,0.3900300860404968,-12.65743350982666,3.562912940979004
1781591823622961200,47.266961181640625,-2.1119651794433594,-13.186247825622559,0.7250252366065979
1781591823671474400,47.31547436523437,-4.01754903793335,-5.7858452796936035,-5.482554912567139
1781591823719987700,47.36398779296875,-2.2836501598358154,-16.401004791259766,-6.63350248336792
1781591823768501000,47.4125009765625,-6.767500877380371,-20.862422943115234,6.9104719161987305
1781591823817014000,47.461013916015624,1.217348575592041,-4.714757919311523,5.473880767822266
1781591823865527300,47.50952734375,2.211566209793091,-5.947958946228027,-0.34695929288864136
1781591823914040300,47.55804028320313,0.022432712838053703,-3.9275193214416504,-0.15254244208335876
1781591824011066600,47.65506665039062,1.348056435585022,-10.983953475952148,3.3194432258605957
1781591824059580000,47.70357983398438,1.5601203441619873,-13.525729179382324,-1.2936197519302368
1781591824108093000,47.752093017578126,2.6398816108703613,-11.587542533874512,1.7404793500900269
1781591824156606200,47.800606201171874,-3.1866414546966553,-16.547266006469727,-1.083350419998169
1781591824205119200,47.849119140625,-1.3917254209518433,-10.80987548828125,-1.3758729696273804
1781591824253632500,47.89763256835938,-1.25144624710083,-9.597611427307129,-3.178565740585327
1781591824302145500,47.9461455078125,0.23359930515289307,-9.535398483276367,0.44745782017707825
1781591824350658800,47.99465893554687,-1.3519448041915894,-6.073881149291992,-3.1758737564086914
1781591824399171800,48.043171875,0.06849455088376999,-7.4602227210998535,-0.6430711150169373
1781591824447685000,48.09168505859375,-0.9936196208000183,-11.3811616897583,0.3005983531475067
1781591824496198100,48.1401982421875,-0.9915258884429932,-9.596116065979004,0.15224334597587585
1781591824544711400,48.18871142578125,3.9487555027008057,-4.422534465789795,3.2542388439178467
1781591824593224400,48.237224365234376,-0.1585244983434677,-10.028918266296387,6.542575359344482
1781591824641737700,48.28573779296875,-3.1447670459747314,-16.416259765625,0.8350951075553894
1781591824690250800,48.33425073242187,-1.9989042282104492,-6.418148517608643,-5.158925533294678
1781591824738764000,48.38276391601563,-4.070789337158203,-14.034502983093262,-5.752345561981201
1781591824787277000,48.431277099609375,-6.091528415679932,-20.69552230834961,4.653142929077148
1781591824835790300,48.47979028320312,0.4944169819355011,-3.8386857509613037,3.4830524921417236
1781591824884303400,48.52830346679688,1.9319051504135132,-6.401698112487793,-1.4796617031097412
1781591824932816600,48.576816650390626,0.07118647545576096,-5.477769374847412,0.08315058797597885
1781591824981329700,48.62532958984375,1.150349497795105,-6.398407936096191,2.4263222217559814
1781591825029843000,48.67384301757812,0.9323035478591919,-10.488638877868652,4.641477584838867
1781591825078356000,48.72235595703125,1.9567307233810425,-14.133805274963379,-3.0427730083465576
1781591825126869200,48.770869140625,0.12861421704292297,-17.49003791809082,-2.8594231605529785
1781591825175382300,48.81938232421875,-2.1415762901306152,-9.32722282409668,2.0482561588287354
1781591825223895600,48.8678955078125,-0.7818548083305359,-12.673286437988281,0.97148597240448
1781591825272408800,48.916408935546876,0.24077777564525604,-9.45882797241211,-3.7480576038360596
1781591825320921900,48.964921875,-0.877567708492279,-7.06062126159668,-0.0077766734175384045
1781591825369435100,49.01343505859375,-0.3646063506603241,-6.114260196685791,-2.375474691390991
1781591825417948200,49.0619482421875,-0.994516909122467,-8.50169849395752,-0.8742775917053223
1781591825514974500,49.15897436523438,2.511566400527954,-6.069993019104004,1.934298038482666
1781591825563487700,49.20748779296875,2.3201406002044678,-6.550950050354004,5.151148796081543
1781591825612000800,49.256000732421874,-2.122433662414551,-16.284652709960938,1.9591234922409058
1781591825660514000,49.30451416015625,-3.8051862716674805,-8.62612533569336,-3.1504502296447754
1781591825709027000,49.35302709960938,-1.662413477897644,-6.928118705749512,-6.869195461273193
1781591825757540400,49.401540283203126,-8.118846893310547,-26.639892578125,-0.5940182209014893
1781591825806053400,49.450053466796874,-1.2888340950012207,-10.461421012878418,6.734898567199707
1781591825854566400,49.49856640625,1.4949159622192383,-3.4663026332855225,2.943171739578247
1781591825903079700,49.54707958984375,0.8599206209182739,-4.264608383178711,-1.9812572002410889
1781591825951593000,49.595593017578125,0.7674978375434875,-5.517848968505859,-0.34606197476387024
1781591826000106000,49.64410595703125,1.7796618938446045,-9.151649475097656,0.8575277924537659
1781591826048619300,49.69261938476563,0.7124629616737366,-13.543973922729492,0.9005986452102661
1781591826097132300,49.74113232421875,2.7963123321533203,-11.70867919921875,-1.7234305143356323
1781591826145645300,49.78964526367187,-3.6625142097473145,-17.592031478881836,-0.26889345049858093
1781591826194158600,49.83815869140625,-2.0482561588287354,-10.109077453613281,1.4267204999923706
1781591826242671600,49.886671630859375,-0.6939185857772827,-10.222138404846191,-4.5816569328308105
1781591826291185000,49.93518481445312,0.14416755735874176,-7.528418064117432,0.5440680384635925
1781591826339698000,49.98369799804688,-0.8093722462654114,-5.664708614349365,-2.964707374572754
1781591826388211200,50.032211181640626,-0.1698904037475586,-9.080761909484863,-1.7569299936294556
1781591826436724200,50.08072412109375,-1.5032907724380493,-10.514062881469727,1.2161520719528198
1781591826485237500,50.12923754882812,-1.023230791091919,-9.067302703857422,1.4769697189331055
1781591826533750500,50.17775048828125,3.6783666610717773,-5.455037593841553,2.9614171981811523
1781591826582263600,50.226263671875,0.7695915699005127,-12.558430671691895,3.73459792137146
1781591826630776800,50.27477685546875,-4.024129390716553,-11.011171340942383,0.7926225066184998
1781591826679289900,50.32328979492188,-2.991626501083374,-7.009474754333496,-6.207580089569092
1781591826727803100,50.37180322265625,-5.157430171966553,-21.61376953125,-6.821937561035156
1781591826776316200,50.42031616210937,-5.970690727233887,-16.94656753540039,6.201598167419434
1781591826824829400,50.46882934570313,0.6215356588363647,-2.833101987838745,4.705784797668457
1781591826873342500,50.517342529296876,2.7930221557617188,-5.878567218780518,-2.091326951980591
1781591826921855700,50.565855712890624,0.10438688844442368,-4.242474555969238,0.1704886108636856
1781591826970368800,50.61436865234375,1.4518451690673828,-7.275676250457764,1.683051586151123
1781591827018882000,50.66288208007813,0.5330012440681458,-12.88056468963623,3.430410385131836
1781591827115908400,50.75990844726562,-0.7304090857505798,-13.344173431396484,2.7661030292510986
1781591827164421400,50.80842138671875,-3.1666016578674316,-16.520645141601562,-2.919841766357422
1781591827212934700,50.8569345703125,-1.353440284729004,-7.269395351409912,-1.1024930477142334
1781591827261447700,50.90544775390625,-0.9364909529685974,-10.171290397644043,-2.531008243560791
1781591827309961000,50.9539609375,0.05353940650820732,-8.239086151123047,-0.043968115001916885
1781591827358474000,51.002473876953125,-0.742672324180603,-6.224628925323486,-3.6640095710754395
1781591827406987300,51.0509873046875,-0.2718844711780548,-10.811670303344727,-1.4539388418197632
1781591827455500300,51.09950024414063,-0.6849454641342163,-9.756135940551758,1.0342975854873657
1781591827504013300,51.14801342773438,1.3549357652664185,-5.915655612945557,3.479762315750122
1781591827552526600,51.196526611328125,2.4870400428771973,-8.568099975585938,3.817150354385376
1781591827601039600,51.24503955078125,-3.649951934814453,-14.773884773254395,2.5211377143859863
1781591827649552600,51.293552734375,-3.148057222366333,-8.806185722351074,-4.493122577667236
1781591827698066000,51.34206591796875,-1.8266209363937378,-9.965508460998535,-6.3631134033203125
1781591827746579000,51.39057885742187,-7.816753387451172,-24.525535583496094,3.483949661254883
1781591827795092200,51.43909228515625,-0.07657032459974289,-6.135795593261719,4.718048095703125
1781591827843605200,51.487605224609375,1.7021942138671875,-4.621438026428223,0.2551347017288208
1781591827892118300,51.5361181640625,0.8599206209182739,-4.1347975730896,-1.368694543838501
1781591827940631300,51.58463134765625,0.8431708812713623,-5.711667537689209,0.8838488459587097
1781591827989144600,51.63314453125,1.062413215637207,-11.61535930633545,3.7007992267608643
1781591828037657600,51.68165771484375,1.2744771242141724,-13.715659141540527,0.8988040089607239
1781591828086171000,51.7301708984375,0.3415754437446594,-14.669498443603516,-2.373081922531128
1781591828134684000,51.778683837890625,-2.4415764808654785,-13.455439567565918,-1.7356936931610107
1781591828183197000,51.82719702148437,-0.9388837814331055,-10.608280181884766,1.6414763927459717
1781591828231710200,51.87571020507813,-0.01136590726673603,-9.117551803588867,-3.459423303604126
1781591828280223200,51.92422314453125,0.0891326442360878,-8.14217758178711,0.5638088583946228
1781591828328736500,51.972736572265624,-0.8383852243423462,-6.67507791519165,-4.2592244148254395
1781591828377249300,52.02124926757813,-0.44356951117515564,-8.69372272491455,-1.3073785305023193
1781591828425762600,52.069762451171876,-0.9460622668266296,-10.435997009277344,1.0103694200515747
1781591828474275800,52.11827587890625,0.18364913761615753,-8.50708293914795,1.103689432144165
1781591828522788900,52.16678881835937,2.762812852859497,-6.032904148101807,2.9775686264038086
1781591828571302000,52.21530200195313,0.16839489340782166,-14.431711196899414,3.9361932277679443
1781591828619815200,52.263815185546875,-2.9048867225646973,-10.266704559326172,-1.1383854150772095
1781591828716841200,52.36084130859375,-5.349753379821777,-23.834308624267578,-3.9768712520599365
1781591828765354500,52.4093544921875,-4.5583271980285645,-13.811372756958008,5.32821798324585
1781591828813867500,52.45786743164062,1.716252088546753,-3.757628917694092,4.485046863555908
1781591828862380500,52.50638061523438,1.609771490097046,-5.793622016906738,-1.3360923528671265
1781591828910893800,52.554893798828125,0.11575279384851456,-5.226522922515869,-0.8670991063117981
1781591828959406800,52.60340673828125,1.6088740825653076,-8.714659690856934,1.0773683786392212
1781591829007919900,52.651919921875,0.17557336390018463,-12.2799654006958,2.6153552532196045
1781591829056433200,52.70043310546875,4.406980991363525,-10.648958206176758,-2.187039852142334
1781591829104946400,52.748946533203124,-2.691028118133545,-19.979171752929688,-0.10378868132829666
1781591829153459500,52.79745947265625,-2.1672990322113037,-8.247461318969727,1.3743774890899658
1781591829201972500,52.845972412109376,-0.877567708492279,-9.865608215332031,-1.5224334001541138
1781591829250485800,52.89448583984375,0.587138831615448,-10.660623550415039,-1.3878371715545654
1781591829298998800,52.94299877929687,-1.07826566696167,-6.503692150115967,-1.348056435585022
1781591829347511800,52.99151171875,-0.030209386721253395,-7.3262248039245605,-3.248854875564575
1781591829396025000,53.040025146484375,-1.3462618589401245,-9.591928482055664,-1.1476575136184692
1781591829444538000,53.0885380859375,-1.108774185180664,-10.375279426574707,0.8629116415977478
1781591829493051100,53.137051025390626,3.222533941268921,-5.997310638427734,4.209872245788574
1781591829541564400,53.185564453125,0.6499504446983337,-10.901102066040039,4.4650068283081055
1781591829590077400,53.23407739257812,-1.9112670421600342,-13.698909759521484,1.1700903177261353
1781591829638590200,53.282590087890625,-3.090928554534912,-5.013860702514648,-4.494318962097168
1781591829687103500,53.331103515625,-1.4931213855743408,-12.139387130737305,-6.959225654602051
1781591829735616800,53.37961669921875,-8.61894702911377,-24.574289321899414,2.9225337505340576
1781591829784129800,53.4281298828125,-0.22432711720466614,-7.814360618591309,4.061517238616943
1781591829832642800,53.476642822265624,2.0410776138305664,-4.809573650360107,1.6310077905654907
1781591829881156000,53.52515600585937,0.6454638838768005,-3.9463627338409424,-1.3456636667251587
1781591829929668900,53.5736689453125,0.6738786697387695,-5.775376319885254,-0.0687936544418335
1781591829978182100,53.62218212890625,0.8901300430297852,-10.828120231628418,3.171985626220703
1781591830026695200,53.67069506835937,0.4579264223575592,-13.913366317749023,0.7680960893630981
1781591830075208400,53.71920849609375,4.391427993774414,-9.661619186401367,0.6969096064567566
1781591830123721500,53.767721435546875,-4.666004180908203,-19.807188034057617,-1.9070796966552734
1781591830172234500,53.816234375,-0.4259224236011505,-8.76102066040039,-0.20907287299633026
1781591830220747800,53.86474780273438,-0.8309076428413391,-8.225926399230957,-2.3650059700012207
1781591830317773800,53.96177392578125,-0.6308078765869141,-6.5629143714904785,-2.643171787261963
1781591830366286800,54.01028686523438,-0.23838496208190918,-7.9866437911987305,-1.74496591091156
1781591830414800100,54.058800048828125,-1.0710872411727905,-10.974980354309082,0.5910272002220154
1781591830463313200,54.10731323242187,-1.654337763786316,-9.989137649536133,1.6923238039016724
1781591830511826200,54.155826171875,3.0373892784118652,-5.4143595695495605,1.8702900409698486
1781591830560339200,54.204339111328125,1.430907964706421,-11.987144470214844,3.058924674987793
1781591830608852200,54.25285229492187,-2.5603201389312744,-13.018750190734863,0.33080771565437317
1781591830657365500,54.30136547851563,-3.211766242980957,-4.6076788902282715,-3.6771702766418457
1781591830705878500,54.34987841796875,-3.408874988555908,-14.2396879196167,-6.569793701171875
1781591830754391600,54.3983916015625,-6.789335250854492,-23.186450958251953,3.7582271099090576
1781591830802904600,54.44690454101563,0.20877377688884735,-5.450251579284668,5.062315464019775
1781591830851417900,54.49541796875,2.312962293624878,-5.655137062072754,-0.5982056856155396
1781591830899931000,54.54393090820312,0.03978067636489868,-4.60857629776001,-1.383948802947998
1781591830948444000,54.59244384765625,1.0974082946777344,-6.4289164543151855,0.7489534616470337
1781591830996957000,54.64095703125,1.2592228651046753,-10.314560890197754,3.085843801498413
1781591831045470200,54.68947021484375,0.8413762450218201,-14.292927742004395,-0.14895321428775787
1781591831093983200,54.73798315429688,3.7537405490875244,-11.816655158996582,0.25363919138908386
1781591831142496300,54.786496337890625,-4.443471431732178,-16.98604965209961,-0.618245542049408
1781591831191009300,54.83500927734375,-0.9203394055366516,-7.7838521003723145,0.2105683982372284
1781591831239522600,54.8835224609375,-0.6071787476539612,-10.693524360656738,-2.641676187515259
1781591831288035600,54.93203564453125,-0.2593221664428711,-9.07418155670166,-0.11306086927652359
1781591831336548900,54.980548828125,-0.4707878530025482,-5.690132141113281,-3.6768710613250732
1781591831385062000,55.02906176757813,-0.36610186100006104,-8.82652473449707,-1.4228321313858032
1781591831433575000,55.077574951171876,-1.4219348430633545,-10.374382019042969,0.23210379481315613
1781591831482087700,55.12608764648437,-0.7800601720809937,-9.194122314453125,1.5337992906570435
1781591831530601000,55.17460107421875,3.9601213932037354,-5.7786664962768555,3.8970108032226562
1781591831579114000,55.223114013671875,-0.973878800868988,-12.738490104675293,2.68534517288208
1781591831627627300,55.27162719726562,-3.0837502479553223,-11.46102237701416,-1.3863415718078613
1781591831676140300,55.32014038085938,-1.922333836555481,-5.703890800476074,-5.590530872344971
1781591831724653300,55.3686533203125,-5.146363258361816,-22.277179718017578,-4.001696586608887
1781591831821679400,55.46567944335938,1.1886346340179443,-4.088436603546143,4.4324049949646
1781591831870192400,55.5141923828125,1.7641085386276245,-5.7532429695129395,-1.5020943880081177
1781591831918705700,55.56270556640625,0.4618147611618042,-4.43539571762085,-0.489631325006485
1781591831967218700,55.61121875,1.3304094076156616,-6.791429042816162,1.5954145193099976
1781591832015731700,55.659731689453125,0.1420738399028778,-13.310375213623047,3.5150563716888428
1781591832064244700,55.70824462890625,3.538386583328247,-11.96471118927002,-2.6536402702331543
1781591832112757800,55.7567578125,-0.12352947145700455,-14.499608039855957,2.243570327758789
1781591832161270800,55.805270751953124,-3.0933215618133545,-13.817952156066895,-2.202892303466797
1781591832209784000,55.8537841796875,-0.6382854580879211,-8.756834030151367,-0.2312064915895462
1781591832258297000,55.90229711914063,-0.661914587020874,-10.250253677368164,-2.954537868499756
1781591832306810000,55.95081005859375,-0.43489551544189453,-7.989634990692139,-1.111167073249817
1781591832355323100,55.9993232421875,-0.37806597352027893,-6.471987247467041,-3.3418760299682617
1781591832403836200,56.047836181640626,-0.07836493849754333,-10.191031455993652,-1.2610175609588623
1781591832452349200,56.09634912109375,-0.7387840151786804,-10.573285102844238,1.4620146751403809
1781591832500862200,56.1448623046875,1.1470593214035034,-6.694220542907715,2.124826431274414
1781591832549375200,56.193375244140626,2.754138946533203,-7.059424877166748,4.396213531494141
1781591832597888500,56.241888427734374,-1.0998010635375977,-14.404193878173828,2.3018953800201416
1781591832646401500,56.29040161132812,-3.1585259437561035,-7.355536937713623,-3.786043643951416
1781591832694914600,56.33891455078125,-2.568096876144409,-10.957632064819336,-7.188039302825928
1781591832743427600,56.38742749023437,-9.693922996520996,-24.03829574584961,-0.6293123364448547
1781591832791940600,56.43594067382813,-0.8054839372634888,-10.680961608886719,3.791128396987915
1781591832840453600,56.48445361328125,1.2759727239608765,-3.9912281036376953,2.2582263946533203
1781591832888966700,56.53296655273437,0.8033902049064636,-3.695415496826172,-1.8801604509353638
1781591832937479700,56.58147973632813,0.768694281578064,-4.708476543426514,0.2829512655735016
1781591832985992700,56.62999267578125,1.2768700122833252,-9.882955551147461,2.5800609588623047
1781591833034506000,56.67850610351562,-0.3451646566390991,-14.552249908447266,1.5481562614440918
1781591833083019000,56.72701904296875,4.687539577484131,-10.290034294128418,-1.1575279235839844
1781591833131532000,56.775531982421874,-2.508575439453125,-17.511274337768555,-0.3000001311302185
1781591833180045000,56.82404516601562,-2.0410776138305664,-10.781460762023926,-1.4781662225723267
1781591833228558000,56.87255810546875,-0.5440680384635925,-8.27258586883545,-1.8912272453308105
1781591833277071000,56.921071044921874,0.12622138857841492,-8.796015739440918,2.50289249420166
1781591833325584100,56.96958422851562,-0.7848458290100098,-9.299406051635742,-5.803492069244385
1781591833422610400,57.0666103515625,-0.0975075215101242,-9.329017639160156,-0.9116654396057129
1781591833471123500,57.11512353515625,-1.2337992191314697,-11.562119483947754,1.4213366508483887
1781591833519636500,57.163636474609376,2.8073792457580566,-5.9198431968688965,4.457230567932129
1781591833568149500,57.2121494140625,1.2675977945327759,-9.89970588684082,3.6705899238586426
1781591833616662500,57.26066259765625,-2.2148563861846924,-12.733704566955566,-0.00867398176342249
1781591833665175600,57.309175537109375,-3.3134610652923584,-5.514857769012451,-4.671687126159668
1781591833713688600,57.3576884765625,-2.7804598808288574,-18.123239517211914,-6.437291145324707
1781591833762201600,57.40620166015625,-8.822935104370117,-19.369001388549805,1.5439687967300415
1781591833810714600,57.454714599609375,0.46480581164360046,-6.3993048667907715,4.619643211364746
1781591833859227600,57.5032275390625,1.4003994464874268,-4.7096734046936035,0.39900317788124084
1781591833907740700,57.55174072265625,0.498604416847229,-4.077369689941406,-0.7591229677200317
1781591833956253700,57.600253662109374,1.1108678579330444,-7.392326354980469,0.28145575523376465
1781591834004767000,57.64876708984375,0.47617170214653015,-11.845069885253906,3.262314558029175
1781591834053279700,57.69727978515625,2.9072794914245605,-12.058928489685059,-1.8957136869430542
1781591834101792800,57.74579272460937,0.9323035478591919,-12.595220565795898,1.0701899528503418
1781591834150306000,57.79430615234375,-3.319742202758789,-16.97169303894043,-2.568096876144409
1781591834198819000,57.842819091796876,-0.4169493317604065,-9.09811019897461,-1.0247262716293335
1781591834247332000,57.89133203125,-0.16899310052394867,-10.284950256347656,-3.1115667819976807
1781591834295845000,57.93984521484375,-0.13549357652664185,-7.730312824249268,1.7371892929077148
1781591834344358000,57.98835791015625,-1.3001999855041504,-6.699006080627441,-5.103890895843506
1781591834392871200,58.03687109375,-0.27816563844680786,-8.660223007202148,-1.4985052347183228
1781591834441384200,58.08538427734375,-0.6326025128364563,-10.611270904541016,1.2269197702407837
1781591834489897200,58.133897216796875,-0.21355941891670227,-7.479365348815918,0.7809575200080872
1781591834538410200,58.18241015625,2.421536445617676,-5.5034918785095215,2.1003000736236572
1781591834586923300,58.23092333984375,-0.3239283561706543,-14.683855056762695,2.7810580730438232
1781591834635436300,58.279436279296874,-4.034298896789551,-7.608577728271484,-2.218146562576294
1781591834683949000,58.32794897460938,-0.6699903607368469,-9.875179290771484,-6.591628074645996
1781591834732462300,58.37646240234375,-9.803394317626953,-23.304597854614258,-1.7377874851226807
1781591834780975400,58.42497534179687,-1.2681959867477417,-12.966706275939941,4.359723091125488
1781591834829488400,58.47348828125,1.1222338676452637,-4.635794639587402,2.3958137035369873
1781591834878001400,58.52200146484375,0.7019943594932556,-4.823930263519287,-2.3656044006347656
1781591834926514400,58.57051440429687,0.5910272002220154,-4.891826629638672,0.01615155301988125
1781591835023540200,58.667540283203124,0.04247260093688965,-12.532109260559082,2.2962124347686768
1781591835072053200,58.71605322265625,4.681856632232666,-10.625029563903809,-3.066103219985962
1781591835120566300,58.764566162109375,-3.6945180892944336,-19.82274055480957,-1.5544373989105225
1781591835169079300,58.81307934570312,-1.7748762369155884,-8.096414566040039,2.2307088375091553
1781591835217592300,58.86159228515625,-0.31764721870422363,-10.927422523498535,-2.3273191452026367
1781591835266105300,58.910105224609374,0.35473597049713135,-10.405787467956543,-0.5551348328590393
1781591835314618400,58.95861840820312,-1.4844473600387573,-5.274379253387451,-2.9760732650756836
1781591835363131400,59.00713134765625,-0.23778675496578217,-8.06949520111084,-3.1695926189422607
1781591835411644400,59.05564453125,-1.1180464029312134,-10.860424041748047,-1.0259226560592651
1781591835460157400,59.10415747070312,-0.1707877218723297,-8.753543853759766,0.5303093194961548
1781591835508670500,59.15267041015625,3.739084482192993,-4.3686957359313965,4.303192615509033
1781591835557183500,59.20118359375,0.8653044700622559,-12.834502220153809,3.850649833679199
1781591835605696500,59.24969653320313,-3.846163272857666,-11.54387378692627,-0.737587571144104
1781591835654209500,59.29820947265625,-2.0593230724334717,-6.553342819213867,-5.095216751098633
1781591835702722600,59.34672265625,-6.632306098937988,-17.75055694580078,-6.700501441955566
1781591835751235600,59.39523559570313,-6.381059646606445,-19.337894439697266,4.000201225280762
1781591835848261600,59.49226171875,2.4604198932647705,-6.336792469024658,-1.038485050201416
1781591835896774700,59.54077465820313,0.6532405614852905,-4.869992256164551,-0.7639086246490479
1781591835945287700,59.58928759765625,1.3992030620574951,-7.165008068084717,0.9364909529685974
1781591835993800700,59.63780078125,0.46002015471458435,-11.903694152832031,3.3403804302215576
1781591836042313700,59.686313720703126,2.2342982292175293,-12.937094688415527,-3.428316593170166
1781591836090826800,59.73482666015625,-0.44745782017707825,-18.287446975708008,-3.2144582271575928
1781591836139339800,59.78333984375,-2.6195425987243652,-7.724031448364258,3.420240879058838
1781591836187852800,59.831852783203125,-0.1779661774635315,-14.463117599487305,-2.2627129554748535
1781591836236365600,59.88036547851563,0.550349235534668,-7.334599494934082,-1.6007983684539795
1781591836284878800,59.92887890625,-0.30927231907844543,-6.872784614562988,-0.5685944557189941
1781591836333392000,59.977391845703124,-0.1301097273826599,-8.10987377166748,-3.315854072570801
1781591836381905000,60.02590478515625,-0.5988038778305054,-8.08385181427002,-0.6059823632240295
1781591836430417700,60.074417724609376,-1.379163146018982,-10.3016996383667,0.13579268753528595
1781591836478930700,60.1229306640625,1.2035897970199585,-7.677072525024414,1.4294124841690063
1781591836575956700,60.219956787109375,-0.6915257573127747,-14.70090389251709,2.9231319427490234
1781591836624469800,60.2684697265625,-4.1282172203063965,-7.742276668548584,-3.013461112976074
1781591836672982800,60.316982666015626,-2.719143867492676,-7.618149280548096,-8.20409107208252
1781591836721495800,60.365495849609374,-7.769495010375977,-24.6801700592041,-1.820937991142273
1781591836770008800,60.4140087890625,-2.8411777019500732,-14.226227760314941,5.991029739379883
1781591836818521900,60.46252197265625,1.6597216129302979,-3.3867413997650146,2.683849811553955
1781591836867035000,60.51103491210937,0.6852445602416992,-5.776872158050537,-2.5995028018951416
1781591836915547600,60.55954760742188,0.600000262260437,-4.37318229675293,0.2877369225025177
1781591836964060700,60.608060791015625,1.4739787578582764,-8.258528709411621,1.7964116334915161
1781591837012573700,60.65657373046875,1.3591232299804688,-13.034602165222168,1.649253010749817
1781591837061086700,60.705086669921876,5.093421936035156,-9.70678424835205,-0.5545366406440735
1781591837109599700,60.753599853515624,-3.7112679481506348,-19.559829711914062,0.9777671694755554
1781591837158112800,60.80211279296875,-2.3392832279205322,-9.861420631408691,-1.7186448574066162
1781591837206625800,60.850625732421875,-1.0169496536254883,-10.015458106994629,-2.958127021789551
1781591837255138600,60.899138671875,-0.15134602785110474,-10.44377326965332,-1.4578272104263306
1781591837303651600,60.947651611328126,-0.5306084156036377,-5.004289627075195,-1.0187442302703857
1781591837352164600,60.99616455078125,-0.3574278950691223,-7.973483085632324,-3.3236305713653564
1781591837400677600,61.044677734375,-1.7587246894836426,-10.62413215637207,-2.1071794033050537
1781591837449190700,61.093190673828126,0.4145565330982208,-8.986544609069824,1.474876046180725
1781591837497703700,61.14170361328125,4.007080554962158,-4.318446636199951,5.164309501647949
1781591837546216400,61.19021655273438,-0.10229317098855972,-13.374083518981934,3.970590114593506
1781591837594729500,61.2387294921875,-3.2078778743743896,-10.58674430847168,-1.3965110778808594
1781591837643242500,61.28724243164063,-2.2085752487182617,-6.860820770263672,-7.8179497718811035
1781591837691755500,61.335755615234376,-4.1593241691589355,-20.493030548095703,-6.286842346191406
1781591837740268500,61.3842685546875,-6.958926677703857,-19.161724090576172,8.289336204528809
1781591837788781300,61.43278125,2.919841766357422,-3.0586254596710205,2.7101707458496094
1781591837837294300,61.48129443359375,0.7618148922920227,-6.145665645599365,-4.3280181884765625
1781591837885807400,61.52980737304687,-0.5967101454734802,-6.060122489929199,-0.3320041298866272
1781591837934320400,61.5783203125,1.0785647630691528,-8.875876426696777,2.478066921234131
1781591837982833400,61.62683349609375,1.2161520719528198,-10.346565246582031,4.48833703994751
1781591838031346400,61.67534643554688,1.7856439352035522,-10.527522087097168,-0.7734799385070801
1781591838079859500,61.723859375,1.170987606048584,-13.610973358154297,-1.1437692642211914
1781591838176885200,61.82088525390625,-1.42043936252594,-10.28195858001709,-0.841675341129303
1781591838225398300,61.86939819335937,0.04007977992296219,-9.903892517089844,-2.241476535797119
1781591838273911300,61.91791137695313,-0.07357929646968842,-9.32722282409668,1.246660590171814
1781591838322424300,61.96642431640625,-0.5030909776687622,-6.52462911605835,-2.8384859561920166
1781591838370937000,62.01493701171875,-0.4624129831790924,-7.794919013977051,-0.9753743410110474
1781591838419450000,62.0634501953125,-1.041775107383728,-10.22602653503418,-0.5988038778305054
1781591838467963100,62.111963134765624,-1.0633105039596558,-8.847761154174805,-0.37866419553756714
1781591838516476200,62.16047607421875,3.956831455230713,-5.862415313720703,1.8912272453308105
1781591838564989200,62.2089892578125,0.04366901144385338,-13.521841049194336,4.661816596984863
1781591838613502200,62.25750219726562,-2.854039192199707,-12.042478561401367,0.6930212378501892
1781591838662015000,62.306014892578126,-2.2453649044036865,-4.946861743927002,-5.048257350921631
1781591838710528000,62.354528076171874,-4.573282241821289,-15.25903034210205,-6.449554443359375
1781591838759041000,62.403041015625,-6.843472957611084,-21.935901641845703,4.457230567932129
1781591838807554000,62.451553955078126,0.5662016868591309,-3.760619878768921,5.145166873931885
1781591838856066800,62.50006689453125,2.377568483352661,-6.861119747161865,-1.1494522094726562
1781591838904579800,62.54857983398438,0.22552353143692017,-4.647758960723877,-1.0713863372802734
