time,seconds_elapsed,z,y,x
1781591776555470800,0.199470947265625,0,0,0
1781591776603983400,0.2479833984375,-0.13096332550048828,0.035561561584472656,0.15741729736328125
1781591776652496000,0.296495849609375,0.2513089179992676,0.16693449020385742,-0.09542226791381836
1781591776701008600,0.345008544921875,0.025754451751708984,0.4824085235595703,-0.3773641586303711
1781591776749521200,0.393521240234375,-0.1153864860534668,1.183260440826416,0.1965247392654419
1781591776798033400,0.442033447265625,0.46267127990722656,1.4807381629943848,0.6203148365020752
1781591776846546200,0.490546142578125,2.9700379371643066,0.6508598327636719,-0.5964301824569702
1781591776895058700,0.53905859375,0.15312957763671875,1.3478565216064453,-0.02152717113494873
1781591776943571200,0.5875712890625,-0.6353740692138672,0.7678337097167969,2.721522331237793
1781591776992083700,0.636083740234375,-0.20215272903442383,-0.5380420684814453,2.6411921977996826
1781591777040596200,0.68459619140625,-0.7550945281982422,-0.3732290267944336,2.747959613800049
1781591777089108700,0.733108642578125,-0.3321528434753418,-0.747739315032959,1.676493525505066
1781591777137621500,0.78162158203125,-1.2524118423461914,-0.3127584457397461,-0.18001988530158997
1781591777186134000,0.830134033203125,-1.4865427017211914,0.09727907180786133,-0.13902157545089722
1781591777234646500,0.878646484375,-0.954803466796875,0.3952317237854004,-0.06217223405838013
1781591777283159000,0.927158935546875,-0.798011302947998,0.7536945343017578,0.37840956449508667
1781591777331671600,0.975671630859375,-0.22279119491577148,0.7427802085876465,-0.6245735287666321
1781591777380184300,1.024184326171875,0.3304882049560547,0.7894301414489746,-0.4181801676750183
1781591777428696800,1.07269677734375,1.0426273345947266,0.43741369247436523,-0.1634795069694519
1781591777477209300,1.121209228515625,1.502375602722168,1.6307973861694336,-1.0754719972610474
1781591777525721900,1.169721923828125,2.6502609252929688,0.6572709083557129,-0.25734901428222656
1781591777574234600,1.218234619140625,0.5586204528808594,-0.45541954040527344,-0.6606708765029907
1781591777622747100,1.2667470703125,0.40104198455810547,-0.5456047058105469,-0.22380447387695312
1781591777671259600,1.315259765625,-0.4911766052246094,-1.1050310134887695,1.1924065351486206
1781591777719772200,1.363772216796875,-1.1617083549499512,-0.995755672454834,0.49675917625427246
1781591777768285000,1.412284912109375,-1.6076183319091797,-0.3833479881286621,-0.343489408493042
1781591777816797400,1.46079736328125,-0.7120060920715332,-0.24184656143188477,-0.7681338787078857
1781591777865310200,1.509310302734375,-0.1110391616821289,0.38119983673095703,-1.1338160037994385
1781591777913822500,1.557822509765625,-0.02277660369873047,0.6905937194824219,0.092806875705719
1781591777962335200,1.606335205078125,1.7292633056640625,0.6491780281066895,-0.08751624822616577
1781591778010847700,1.65484765625,0.5990409851074219,0.9670186042785645,-0.11027705669403076
1781591778059360500,1.703360595703125,1.5639638900756836,-0.10828685760498047,0.6781407594680786
1781591778107873000,1.751873046875,2.8621673583984375,-0.7257587909698486,0.6801624894142151
1781591778156385500,1.800385498046875,1.0821313858032227,-1.0176129341125488,1.448740005493164
1781591778204898300,1.848898193359375,-0.5383596420288086,-0.5660412311553955,1.1891200542449951
1781591778253410800,1.897410888671875,-0.7750725746154785,-0.39375853538513184,0.8587356209754944
1781591778301923300,1.94592333984375,-1.5004544258117676,-0.23263978958129883,0.18591928482055664
1781591778350436000,1.99443603515625,-1.8586745262145996,0.1704096794128418,-0.2576972246170044
1781591778398948900,2.042948974609375,-1.1551876068115234,0.35072898864746094,-0.10323375463485718
1781591778447461400,2.09146142578125,-0.5171451568603516,0.4055342674255371,-0.546789288520813
1781591778495974000,2.139973876953125,0.7676000595092773,0.18407726287841797,-0.3380994200706482
1781591778544486700,2.188486572265625,0.8278646469116211,0.6462578773498535,-0.06940227746963501
1781591778592999200,2.236999267578125,1.4716997146606445,0.8897061347961426,-0.0556713342666626
1781591778641512000,2.285511962890625,1.2777633666992188,0.23320770263671875,-0.056663185358047485
1781591778690024400,2.3340244140625,0.8454933166503906,-0.22061395645141602,-1.3203133344650269
1781591778738537000,2.382536865234375,0.17516517639160156,-0.6294584274291992,-1.0352855920791626
1781591778787049700,2.4310498046875,-0.06422615051269531,-1.0193328857421875,0.022290661931037903
1781591778835562500,2.4795625,-0.42679500579833984,-0.9747233390808105,-0.0002593994140625
1781591778884075000,2.528074951171875,-1.2944531440734863,-0.5763235092163086,0.015558183193206787
1781591778932587500,2.57658740234375,-0.9597311019897461,0.14485883712768555,0.3317687511444092
1781591778981100300,2.625100341796875,-0.47234344482421875,0.7754631042480469,1.1302649974822998
1781591779029612800,2.67361279296875,1.7499170303344727,1.0044665336608887,0.6320886611938477
1781591779078125600,2.72212548828125,0.8403692245483398,0.20466089248657227,0.1421337127685547
1781591779126638300,2.770638427734375,2.5264463424682617,0.06985139846801758,0.16344857215881348
1781591779175150800,2.81915087890625,2.0356478691101074,0.11675262451171875,1.5157966613769531
1781591779223663600,2.86766357421875,-1.2778053283691406,-0.1472477912902832,0.14244794845581055
1781591779272176000,2.916176025390625,-0.0029993057250976562,0.17965912818908691,-1.2398195266723633
1781591779320689000,2.96468896484375,0.5883588790893555,-0.6929881572723389,0.24633169174194336
1781591779369201400,3.013201416015625,-1.6388134956359863,-0.901587724685669,-0.7278850078582764
1781591779417714200,3.061714111328125,-1.5489096641540527,-0.6834416389465332,0.4759732484817505
1781591779466226700,3.110226806640625,-3.449769973754883,0.07406353950500488,-0.7046312093734741
1781591779514739500,3.158739501953125,-3.2268118858337402,-0.8719239234924316,0.11367380619049072
1781591779563252200,3.207252197265625,-5.567298412322998,-1.438173770904541,0.8180503845214844
1781591779611764700,3.2557646484375,-6.782129287719727,-2.5838074684143066,-1.6308000087738037
1781591779660277500,3.304277587890625,-7.138228893280029,-2.4025330543518066,-3.776137351989746
1781591779708790300,3.352790283203125,-2.282698392868042,-5.266415596008301,-2.4124698638916016
1781591779757302800,3.401302734375,6.823175430297852,-5.990704536437988,0.11174869537353516
1781591779805815600,3.449815673828125,9.128056526184082,-7.316688537597656,5.6808180809021
1781591779854328300,3.498328369140625,14.111501693725586,-7.972477912902832,8.785476684570312
1781591779902840800,3.5468408203125,9.859347343444824,-5.998351097106934,6.870723724365234
1781591779951353600,3.595353515625,5.851029396057129,-2.239893913269043,8.585160255432129
1781591779999866000,3.6438662109375,-4.253070831298828,3.8257670402526855,9.175361633300781
1781591780048379000,3.69237890625,-1.3106167316436768,5.2429962158203125,4.925844192504883
1781591780096891600,3.7408916015625,1.135871410369873,-1.1241073608398438,-0.10695815086364746
1781591780145404400,3.789404296875,1.6356441974639893,-2.7078895568847656,1.0574936866760254
1781591780193917200,3.837917236328125,0.593071699142456,-3.747715950012207,1.591468095779419
1781591780242429700,3.8864296875,5.3480730056762695,-5.605219841003418,2.824367046356201
1781591780290942500,3.9349423828125,-0.03865998983383179,-2.51259708404541,4.481869220733643
1781591780339455000,3.983455078125,0.8013296723365784,-1.958785057067871,2.0733389854431152
1781591780387967700,4.0319677734375,-0.3788618743419647,-2.0111894607543945,0.3147120475769043
1781591780436480500,4.08048046875,-4.550669193267822,2.72157621383667,-2.761242151260376
1781591780484993000,4.128992919921875,-8.332152366638184,4.931859493255615,-2.3849732875823975
1781591780533505800,4.177505859375,-2.2893166542053223,2.5848617553710938,-0.1460247039794922
1781591780582018300,4.226018310546875,-3.54077410697937,5.824563503265381,3.930406093597412
1781591780630531000,4.274531005859375,-1.1080152988433838,2.369447708129883,-0.1637415885925293
1781591780679043800,4.3230439453125,-2.464470148086548,6.203637599945068,2.1384239196777344
1781591780727556600,4.371556640625,0.1965705156326294,4.619993209838867,0.8652408123016357
1781591780776069400,4.4200693359375,3.1916110515594482,-4.799625396728516,-1.5572569370269775
1781591780824582000,4.468581787109375,-0.7136396765708923,-7.793302536010742,2.6085057258605957
1781591780873094700,4.5170947265625,0.5638954639434814,-4.722825050354004,-3.3244569301605225
1781591780921607400,4.565607421875,2.2523326873779297,-6.780150413513184,-0.70237135887146
1781591780970120200,4.6141201171875,-3.6811912059783936,3.0272278785705566,2.3381905555725098
1781591781018632700,4.6626328125,1.6625818014144897,7.950451850891113,-6.381355285644531
1781591781067145500,4.7111455078125,0.4595429301261902,1.8980460166931152,-3.649780750274658
1781591781115658200,4.759658203125,-1.7057569026947021,-4.402401924133301,-0.37087708711624146
1781591781164171000,4.8081708984375,-2.378376007080078,-3.500821113586426,-0.16152989864349365
1781591781212683800,4.856683837890625,-0.8491726517677307,-5.638814926147461,1.4559016227722168
1781591781261196500,4.905196533203125,-1.7553584575653076,-0.5558414459228516,-0.6606768369674683
1781591781309709000,4.953708984375,-3.1431736946105957,8.37390422821045,-1.4475386142730713
1781591781358221800,5.002221923828125,-0.005844414234161377,10.468713760375977,-3.7366390228271484
1781591781406734600,5.050734619140625,2.6884288787841797,0.1714763641357422,-1.3254729509353638
1781591781455247400,5.099247314453125,1.1572753190994263,-9.39133358001709,1.345993161201477
1781591781503760100,5.147760009765625,-1.5041329860687256,-6.284934043884277,1.3030428886413574
1781591781552273000,5.19627294921875,-2.7326974868774414,-3.353353500366211,1.1197251081466675
1781591781600785400,5.244785400390625,-1.4964936971664429,5.234548568725586,-1.444192886352539
1781591781649298200,5.293298095703125,-1.1878594160079956,11.91676139831543,2.0875284671783447
1781591781746323700,5.39032373046875,1.0301477909088135,-3.28804874420166,2.007852554321289
1781591781794836500,5.43883642578125,-0.9587845206260681,-9.467412948608398,-1.9216358661651611
1781591781843349200,5.487349365234375,-1.7263187170028687,-4.263069152832031,-2.013179302215576
1781591781891862000,5.535862060546875,1.1578718423843384,-0.6844568252563477,-0.010172724723815918
1781591781940374800,5.584374755859375,0.564640462398529,3.791318893432617,-6.351306915283203
1781591781988887600,5.632887451171875,-3.0612101554870605,-3.4644594192504883,-4.530277252197266
1781591782037400300,5.681400390625,-0.28734636306762695,-2.331059455871582,1.1684620380401611
1781591782085913000,5.7299130859375,-0.8752331137657166,5.670942783355713,-3.1211066246032715
1781591782134425900,5.77842578125,-0.8665409684181213,4.1027960777282715,-3.9544451236724854
1781591782182938600,5.826938720703125,1.182802438735962,-3.2495994567871094,4.9367828369140625
1781591782231451400,5.875451416015625,0.2423313856124878,-2.8798770904541016,3.225104808807373
1781591782279964200,5.923964111328125,0.45911943912506104,-4.658627510070801,1.996443510055542
1781591782328477000,5.972476806640625,-0.9109405875205994,-2.0231094360351562,0.2087714672088623
1781591782376989700,6.02098974609375,-0.1321660876274109,6.665353298187256,-2.314615249633789
1781591782425502500,6.06950244140625,-0.5212412476539612,-0.08656501770019531,-1.2491917610168457
1781591782474015200,6.11801513671875,-0.4361768960952759,-1.8895502090454102,-0.5841052532196045
1781591782522528000,6.166528076171875,-0.4896728992462158,0.11418437957763672,-0.1577775478363037
1781591782571040800,6.215040771484375,0.21702706813812256,0.4631681442260742,0.20266270637512207
1781591782619553500,6.263553466796875,0.12070655822753906,0.37528228759765625,0.5896196365356445
1781591782668066600,6.312066650390625,0.4944576025009155,0.1716289520263672,1.6504790782928467
1781591782716579000,6.3605791015625,0.1445099115371704,0.2619762420654297,0.7427494525909424
1781591782813604900,6.45760498046875,-0.20351815223693848,-0.2998065948486328,-0.6651256084442139
1781591782862117600,6.50611767578125,-0.10008156299591064,0.0030069351196289062,-0.5088346004486084
1781591782910630400,6.55463037109375,-0.10349011421203613,0.18076801300048828,-0.0509333610534668
1781591782959143200,6.60314306640625,-0.08149755001068115,-0.22760391235351562,-0.09190511703491211
1781591783007656000,6.651656005859375,0.12205290794372559,0.1319284439086914,0.08694028854370117
1781591783056168700,6.700168701171875,0.12637543678283691,-0.006427764892578125,-0.34121274948120117
1781591783104681500,6.748681396484375,-0.03627431392669678,-0.07286739349365234,0.042157649993896484
1781591783153194200,6.7971943359375,0.1994931697845459,-0.13741588592529297,0.4069082736968994
1781591783201707300,6.845707275390625,0.23574399948120117,-0.19541454315185547,-0.010060787200927734
1781591783250220000,6.894219970703125,0.11720085144042969,0.10438156127929688,-0.0318903923034668
1781591783298732800,6.94273291015625,-0.014080166816711426,0.1388845443725586,-0.03925919532775879
1781591783347245600,6.99124560546875,-0.16812944412231445,-0.27350711822509766,-0.17166876792907715
1781591783395758300,7.03975830078125,-0.09566497802734375,-0.4462108612060547,-0.5328269004821777
1781591783444271400,7.088271240234375,0.2869720458984375,-0.10471725463867188,-0.15852999687194824
1781591783492784000,7.1367841796875,-0.2018204927444458,0.12897777557373047,0.36746859550476074
1781591783541297000,7.185296875,-0.018637657165527344,-0.04444599151611328,-0.017851591110229492
1781591783589809700,7.2338095703125,0.21035528182983398,0.10382938385009766,-0.10141444206237793
1781591783638322400,7.282322509765625,-0.06879353523254395,-0.1459369659423828,-0.11259174346923828
1781591783686835200,7.330835205078125,-0.0633777379989624,-0.10471057891845703,-0.18314814567565918
1781591783735348200,7.37934814453125,-0.07341134548187256,0.1844186782836914,-0.05652785301208496
1781591783783861000,7.427861083984375,-0.165490984916687,-0.032527923583984375,0.16295409202575684
1781591783832373800,7.476373779296875,-0.05209362506866455,0.09569835662841797,0.051467180252075195
1781591783880886500,7.524886474609375,0.08466744422912598,0.0986166000366211,0.08206486701965332
1781591783929399300,7.5733994140625,-0.15507078170776367,-0.17232322692871094,0.11265015602111816
1781591783977912000,7.621912109375,0.04463469982147217,0.1431570053100586,0.13003778457641602
1781591784026425000,7.670425048828125,0.06408321857452393,0.0894784927368164,0.08850431442260742
1781591784074937900,7.718937744140625,-0.08689367771148682,0.0363311767578125,0.12952470779418945
1781591784123450600,7.76745068359375,-0.010755062103271484,0.05002403259277344,0.03364229202270508
1781591784171963600,7.815963623046875,-0.05907595157623291,-0.035569190979003906,0.0390629768371582
1781591784220476400,7.864476318359375,0.025067448616027832,0.06991004943847656,0.09955549240112305
1781591784268989200,7.9129892578125,-0.08060097694396973,0.0869150161743164,0.13140225410461426
1781591784317502000,7.961501953125,-0.04248321056365967,0.0022983551025390625,0.18473458290100098
1781591784366015000,8.010014892578125,-0.05441939830780029,0.04803943634033203,0.07710957527160645
1781591784414527700,8.05852783203125,-0.10396218299865723,0.06729316711425781,0.12898921966552734
1781591784463040500,8.10704052734375,-0.1979449987411499,0.06184577941894531,-0.09826254844665527
1781591784511553500,8.155553466796874,-0.07428610324859619,-0.008912086486816406,0.04940009117126465
1781591784560066300,8.20406640625,0.013918876647949219,-0.014413833618164062,0.08946633338928223
1781591784608579000,8.2525791015625,0.04231154918670654,0.23726177215576172,0.035765647888183594
1781591784657091800,8.301091796875,-0.08443772792816162,-0.04303264617919922,0.11534690856933594
1781591784705604900,8.34960498046875,-0.08512341976165771,-0.03556251525878906,0.2043924331665039
1781591784754117600,8.39811767578125,0.12653088569641113,0.1275930404663086,0.008350849151611328
1781591784802630400,8.44663037109375,0.06999742984771729,0.023367881774902344,0.06777167320251465
1781591784851143400,8.495143310546876,0.047095298767089844,0.05278301239013672,0.20204782485961914
1781591784899656200,8.54365625,-0.01732778549194336,0.028700828552246094,0.07122802734375
1781591784948169200,8.592169189453125,0.038540005683898926,-0.06907844543457031,0.01661229133605957
1781591784996682000,8.640681884765625,-0.005594849586486816,0.02557373046875,0.002997159957885742
1781591785045195000,8.689195068359375,0.018452882766723633,-0.11452388763427734,-0.22608637809753418
1781591785093707800,8.737707763671875,-0.027425408363342285,-0.11196708679199219,-0.09687256813049316
1781591785142220500,8.786220458984374,0.0007170438766479492,-0.09505748748779297,-0.07154083251953125
1781591785190733300,8.8347333984375,0.001017451286315918,0.15255069732666016,0.06953239440917969
1781591785239246300,8.883246337890625,-0.03875315189361572,0.12037372589111328,-0.1151437759399414
1781591785287759400,8.93175927734375,-0.1092674732208252,-0.16421031951904297,-0.23629331588745117
1781591785336272100,8.980272216796875,-0.02900874614715576,0.018266677856445312,-0.15198087692260742
1781591785384785000,9.028784912109375,0.2023836374282837,-0.22243881225585938,-0.11644101142883301
1781591785433298000,9.0772978515625,0.31514084339141846,-0.2858591079711914,0.14693665504455566
1781591785481810700,9.125810791015626,0.4305306077003479,-0.19892501831054688,-0.061052799224853516
1781591785530323700,9.17432373046875,0.33996111154556274,0.14069652557373047,-0.008708953857421875
1781591785578836500,9.22283642578125,0.33784592151641846,-0.010907173156738281,0.1972365379333496
1781591785627349200,9.271349365234375,0.24247348308563232,0.04162788391113281,0.3889946937561035
1781591785675862300,9.3198623046875,0.024707436561584473,-0.19318103790283203,0.04125380516052246
1781591785724375300,9.368375244140625,0.647243857383728,0.41759681701660156,0.2561829090118408
1781591785772888000,9.41688818359375,0.7705459594726562,-0.06086444854736328,1.2112689018249512
1781591785821400800,9.46540087890625,0.31983041763305664,-0.17101669311523438,0.4362001419067383
1781591785869913900,9.513913818359375,0.07324445247650146,0.6751918792724609,-0.3234422206878662
1781591785918427000,9.562427001953125,-0.3457369804382324,0.3787822723388672,-0.4744243621826172
1781591785966939600,9.610939697265625,-0.6007547378540039,1.0732660293579102,-0.2424776554107666
1781591786015452700,9.65945263671875,-0.2206411063671112,0.22625446319580078,0.2822432518005371
1781591786063965400,9.70796533203125,-0.6191789507865906,-0.9982328414916992,0.986661434173584
1781591786112478500,9.756478515625,-0.13476064801216125,-0.21864795684814453,0.9315428733825684
1781591786160991200,9.8049912109375,-0.12522803246974945,-0.6099138259887695,0.14088153839111328
1781591786209504300,9.853504150390625,0.2667540907859802,1.3436613082885742,0.3805060386657715
1781591786258017300,9.902017333984375,0.6749242544174194,1.3992772102355957,0.9130058288574219
1781591786306530000,9.950530029296875,0.6700356006622314,1.5670180320739746,0.4849090576171875
1781591786355043000,9.99904296875,0.8970872163772583,0.6571207046508789,1.2258052825927734
1781591786403556000,10.04755615234375,0.6516542434692383,0.8466901779174805,2.0024123191833496
1781591786452068900,10.09606884765625,0.8904643058776855,0.961003303527832,2.37015962600708
1781591786500582000,10.144581787109376,1.609217643737793,0.08016681671142578,3.1889753341674805
1781591786549094700,10.1930947265625,1.9380738735198975,-0.4290199279785156,3.3033981323242188
1781591786597607700,10.241607666015625,1.0468451976776123,-3.0405025482177734,-0.45055150985717773
1781591786646120700,10.29012060546875,-0.20848697423934937,-0.6176614761352539,-1.2159602642059326
1781591786694633700,10.3386337890625,-1.4021100997924805,-0.739222526550293,-2.3329224586486816
1781591786743146800,10.387146728515624,0.828421950340271,0.35654735565185547,-2.3223605155944824
1781591786791659500,10.435659423828126,0.5883790254592896,0.13933944702148438,-0.18157386779785156
1781591786840172500,10.484172607421876,0.6566845178604126,0.7106847763061523,-1.0014171600341797
1781591786888685600,10.532685546875,1.200606107711792,2.667994499206543,-1.3187724351882935
1781591786937198600,10.581198486328125,0.9569920301437378,-0.02110767364501953,0.5163719654083252
1781591786985711400,10.62971142578125,1.6237154006958008,-1.273681640625,2.0992488861083984
1781591787034224400,10.678224365234374,1.6247389316558838,0.14265918731689453,1.1940512657165527
1781591787082737400,10.7267373046875,5.089655876159668,2.4909133911132812,2.8995885848999023
1781591787131250400,10.77525048828125,0.32371222972869873,-2.414395332336426,4.608176231384277
1781591787179763500,10.823763427734375,-2.391925096511841,-0.024448394775390625,-1.0852694511413574
1781591787228276500,10.8722763671875,-0.5604612827301025,3.0767273902893066,-6.71158504486084
1781591787276789200,10.920789306640625,-3.563337564468384,-10.495461463928223,-0.49754810333251953
1781591787325302300,10.96930224609375,-4.816775798797607,-3.250737190246582,6.222569465637207
1781591787373815300,11.017815185546874,0.8057847619056702,7.868764400482178,-0.9464907646179199
1781591787422328300,11.066328369140624,0.17465060949325562,2.43682861328125,-3.4997973442077637
1781591787470841300,11.11484130859375,-0.7792465090751648,1.6174612045288086,-0.9340214729309082
1781591787519354400,11.163354248046875,1.1501182317733765,0.4674406051635742,0.6960253715515137
1781591787567867400,11.211867431640625,0.35460299253463745,0.216766357421875,2.8420357704162598
1781591787616380400,11.26038037109375,0.9520310163497925,-6.3622589111328125,-1.7730913162231445
1781591787664893700,11.308893798828125,-0.4633186161518097,-6.986849784851074,-1.9053668975830078
1781591787713406700,11.35740673828125,-2.962352991104126,3.7707629203796387,1.386009693145752
1781591787761919700,11.405919677734374,-0.382226824760437,-4.058088302612305,-2.3132410049438477
1781591787810432800,11.454432861328126,0.8150213360786438,0.36798858642578125,-3.661024332046509
1781591787858945800,11.50294580078125,0.12791502475738525,3.9736690521240234,-2.0604052543640137
1781591787907458800,11.551458740234375,1.9967952966690063,0.9869003295898438,-0.10375356674194336
1781591787955971800,11.599971923828125,0.863269567489624,-0.39064788818359375,-0.1943652629852295
1781591788004484900,11.64848486328125,0.3068046569824219,-0.8802528381347656,-0.4191775321960449
1781591788052998000,11.696997802734375,4.822234630584717,3.420102119445801,0.008008003234863281
1781591788101511200,11.74551123046875,4.468745708465576,2.163182258605957,4.541032791137695
1781591788150024200,11.794024169921874,-0.08712828159332275,-4.1036882400512695,5.997564792633057
1781591788198537200,11.842537109375,-4.706858158111572,3.656838893890381,-3.708310604095459
1781591788247050500,11.891050537109376,-1.4947493076324463,-1.6197662353515625,-5.787055492401123
1781591788295563500,11.9395634765625,-6.461479187011719,-15.304815292358398,4.073796272277832
1781591788344076500,11.98807666015625,-3.008780002593994,4.1947712898254395,3.7419962882995605
1781591788392589600,12.036589599609375,-0.05855107307434082,6.158207416534424,-3.3474807739257812
1781591788441102800,12.085102783203125,0.5760776996612549,2.4738082885742188,-2.8323612213134766
1781591788489616000,12.133615966796874,-0.724355936050415,2.0361294746398926,-0.2646017074584961
1781591788538129200,12.182129150390624,-0.8488997220993042,2.23673677444458,2.9141507148742676
1781591788586642200,12.23064208984375,0.3238558769226074,-2.0571136474609375,0.6224050521850586
1781591788635155200,12.2791552734375,3.2373664379119873,-2.485468864440918,0.08197379112243652
1781591788683668500,12.32766845703125,-4.307727336883545,-6.069040298461914,0.1247100830078125
1781591788732181500,12.376181396484375,-1.0306174755096436,-4.312352180480957,-3.1515085697174072
1781591788780694800,12.42469482421875,-1.0455873012542725,1.7717556953430176,-2.582426071166992
1781591788829207800,12.473207763671875,1.7451536655426025,-1.2801485061645508,0.22157931327819824
1781591788877721000,12.52172119140625,-0.20922863483428955,2.962728500366211,-2.019359827041626
1781591788926234000,12.570234130859374,2.085686445236206,2.6257433891296387,-1.6588025093078613
1781591788974747400,12.618747314453126,0.9663314819335938,-0.038033485412597656,1.036440372467041
1781591789023260400,12.667260498046875,2.6176774501800537,-0.7645788192749023,1.6148929595947266
1781591789071773200,12.715773193359375,2.926192045211792,3.8341269493103027,0.25652599334716797
1781591789120287000,12.764286865234375,3.5712008476257324,1.1636419296264648,1.6151885986328125
1781591789168800000,12.812800048828125,-1.6861616373062134,-5.380820274353027,4.220895767211914
1781591789217313300,12.861313232421875,-2.9328436851501465,1.3900728225708008,-2.6064560413360596
1781591789265826300,12.909826416015624,-2.316723346710205,2.01212215423584,-7.19456148147583
1781591789314339600,12.958339599609374,-5.380157947540283,-14.92590045928955,4.341541290283203
1781591789362852900,13.006852783203126,-2.571796178817749,3.214796543121338,4.403524398803711
1781591789411366000,13.055365966796876,0.029118716716766357,4.415380477905273,-0.22095918655395508
1781591789459879200,13.103879150390625,0.10886114835739136,2.7074389457702637,-1.6982944011688232
1781591789508398000,13.152398193359375,0.4163135886192322,3.0526609420776367,-2.8844332695007324
1781591789556905700,13.20090576171875,0.03137052059173584,1.6948118209838867,0.41249895095825195
1781591789605418800,13.249418701171875,-0.6692992448806763,-1.210622787475586,1.6568050384521484
1781591789653932000,13.29793212890625,3.1543970108032227,-2.7511844635009766,-0.1029055118560791
1781591789702445300,13.3464453125,-0.3126993179321289,-3.398432731628418,2.8226025104522705
1781591789750958600,13.39495849609375,-2.1760504245758057,-4.655820846557617,-3.8593389987945557
1781591789799471900,13.443471923828126,-1.0867033004760742,0.5120601654052734,-1.0970003604888916
1781591789847985000,13.49198486328125,0.8205968141555786,-1.1129217147827148,-2.50846004486084
1781591789896498200,13.540498291015625,0.4985628128051758,1.1946792602539062,-0.7719182968139648
1781591789945011500,13.589011474609375,0.7933831810951233,3.228105068206787,-1.6320505142211914
1781591789993524700,13.637524658203125,1.7066223621368408,0.6295547485351562,0.26270556449890137
1781591790042038000,13.6860380859375,1.0822566747665405,0.18296527862548828,-0.6622500419616699
1781591790090551300,13.73455126953125,1.423303246498108,-0.5209693908691406,0.014471054077148438
1781591790139064600,13.783064697265624,4.483283996582031,3.287449836730957,2.2155120372772217
1781591790187577600,13.83157763671875,2.7745983600616455,-1.2425832748413086,5.249263286590576
1781591790236091000,13.8800908203125,-1.7324528694152832,-1.602076530456543,2.517242670059204
1781591790284604200,13.928604248046875,-2.9852142333984375,3.150228977203369,-3.539832592010498
1781591790333117400,13.977117431640625,-1.5208929777145386,-5.604530334472656,-4.751994609832764
1781591790381630700,14.025630615234375,-6.9433183670043945,-11.098695755004883,5.08623743057251
1781591790430144000,14.07414404296875,-0.07488882541656494,5.440083980560303,4.8630690574646
1781591790478657300,14.1226572265625,1.6734753847122192,3.673079013824463,-2.8669066429138184
1781591790527170600,14.171170654296875,-0.05920681357383728,4.216119289398193,-3.7121384143829346
1781591790575683800,14.219683837890624,0.21002186834812164,3.5377039909362793,-0.5293161869049072
1781591790624197000,14.268197021484376,0.15526923537254333,0.677830696105957,1.5099844932556152
1781591790672710400,14.31671044921875,0.807212233543396,-2.5756359100341797,1.480220079421997
1781591790721224000,14.365223876953126,2.952223300933838,-1.7686614990234375,-0.15793180465698242
1781591790769737000,14.413737060546875,-3.2764391899108887,-9.045282363891602,0.5467238426208496
1781591790818250500,14.46225048828125,-0.8501248955726624,1.4100675582885742,-1.3618351221084595
1781591790866763800,14.510763671875,-0.5295222997665405,-0.277130126953125,-4.353030204772949
1781591790915277000,14.559277099609375,0.736812949180603,-0.5987176895141602,-2.4608681201934814
1781591790963790300,14.607790283203125,-0.04720580577850342,3.597095012664795,-3.2596638202667236
1781591791012303600,14.6563037109375,2.925601005554199,1.6854076385498047,-2.225343942642212
1781591791060817000,14.70481689453125,1.058901309967041,-1.7446165084838867,1.9239237308502197
1781591791109330200,14.753330078125,1.1497217416763306,-0.162506103515625,2.211024522781372
1781591791157843700,14.80184375,4.4021782875061035,2.1862545013427734,2.0527846813201904
1781591791206357000,14.85035693359375,2.1379594802856445,-0.4094724655151367,4.61381196975708
1781591791254870300,14.898870361328125,-2.253082036972046,0.4226961135864258,2.178553819656372
1781591791303383600,14.947383544921875,-2.4822869300842285,1.3198003768920898,-4.361802577972412
1781591791351897000,14.99589697265625,-3.303757905960083,-10.54589557647705,-1.1623728275299072
1781591791400410400,15.044410400390625,-4.743646144866943,-5.638368606567383,5.684234619140625
1781591791448923600,15.092923583984375,0.6742342710494995,7.437067985534668,0.5344700813293457
1781591791497437000,15.14143701171875,0.42559075355529785,3.4071249961853027,-2.6899850368499756
1781591791545950200,15.1899501953125,-0.22254779934883118,4.033620834350586,-1.5204088687896729
1781591791594463700,15.238463623046876,0.3823375701904297,1.9604864120483398,0.3243601322174072
1781591791642977000,15.28697705078125,0.25125831365585327,0.11923789978027344,0.29337096214294434
1781591791691490300,15.335490234375,1.5216233730316162,-1.8556699752807617,-2.4126179218292236
1781591791740003800,15.38400390625,-1.706605076789856,-9.719711303710938,2.6095118522644043
1781591791788517000,15.43251708984375,-1.2869712114334106,0.6219606399536133,-1.126225471496582
1781591791837030400,15.481030517578125,-1.4710110425949097,-2.2051210403442383,-4.334440231323242
1781591791885543700,15.529543701171875,1.9598468542099,-0.9683160781860352,-1.167849063873291
1781591791934057200,15.57805712890625,0.10529923439025879,2.6062703132629395,0.19873952865600586
1781591791982570500,15.626570556640624,1.922322154045105,1.9060182571411133,-2.010472297668457
1781591792031083800,15.675083740234374,1.321183681488037,0.8834037780761719,-0.3840562105178833
1781591792079597300,15.723597412109376,0.9197999238967896,-0.9560031890869141,0.402823805809021
1781591792128110600,15.772110595703126,2.951047420501709,1.0120830535888672,1.4252121448516846
1781591792176623900,15.820623779296875,3.8220882415771484,3.2091498374938965,3.2109344005584717
1781591792225137400,15.869137451171875,0.2624013423919678,-3.2166194915771484,5.65407657623291
1781591792273650700,15.917650634765625,-3.7122018337249756,2.6139488220214844,-0.9980464577674866
1781591792322164000,15.9661640625,-1.1484180688858032,-1.7660846710205078,-4.848372459411621
1781591792370677500,16.014677490234376,-5.572568893432617,-12.094229698181152,1.3062632083892822
1781591792419190800,16.063190673828124,-2.6282575130462646,2.1716041564941406,4.282554626464844
1781591792467704300,16.111704345703124,1.087517261505127,6.427452087402344,-2.143709659576416
1781591792516217600,16.160217529296876,-0.3176640570163727,2.5840539932250977,-3.360285758972168
1781591792564731100,16.208731201171876,-0.9043073654174805,2.293355941772461,-0.49999046325683594
1781591792613244400,16.257244384765624,0.3556196391582489,-0.0796060562133789,2.2157061100006104
1781591792661757700,16.3057578125,1.1036573648452759,0.02787017822265625,0.2908768653869629
1781591792710271200,16.354271240234375,0.8700037002563477,-3.1035661697387695,-1.0171043872833252
1781591792758784500,16.402784423828123,-1.2171642780303955,-5.797450065612793,2.286350965499878
1781591792807297800,16.4512978515625,-2.3452954292297363,-1.5384454727172852,-1.2553472518920898
1781591792855811300,16.499811279296875,-0.05514615774154663,-1.0452136993408203,-5.193275451660156
1781591792904324900,16.548324951171875,1.8437069654464722,1.644369125366211,1.3541264533996582
1781591792952838100,16.596838134765626,-0.05711674690246582,2.2738256454467773,-0.4265890121459961
1781591793001351400,16.645351318359374,1.2771070003509521,1.993546485900879,-0.03921830654144287
1781591793049865000,16.693864990234374,1.0770294666290283,1.3263959884643555,-1.6912013292312622
1781591793098378200,16.742378173828126,0.4836825132369995,-1.8422212600708008,0.561837911605835
1781591793146891800,16.790891845703126,2.0635437965393066,0.24506378173828125,2.0753822326660156
1781591793195405000,16.839405029296874,4.413397789001465,4.5608229637146,1.9819902181625366
1781591793243918600,16.887918701171873,-0.0445483922958374,-3.4762611389160156,3.39139986038208
1781591793292432000,16.936431884765625,-2.84102201461792,-0.4416923522949219,-1.7599210739135742
1781591793340945400,16.9849453125,-1.774757981300354,1.6792335510253906,-4.073737621307373
1781591793389458700,17.033458740234376,-4.787084579467773,-10.584146499633789,3.776035785675049
1781591793437972200,17.08197216796875,-3.348247766494751,-0.028000831604003906,3.989037275314331
1781591793486485500,17.130485595703124,0.3625960350036621,4.750918388366699,-2.495039701461792
1781591793534999000,17.1789990234375,-0.10868847370147705,2.419137954711914,-2.132014274597168
1781591793583512300,17.22751220703125,-0.5165413618087769,3.1808929443359375,0.7626945972442627
1781591793632025600,17.276025634765624,0.8562883138656616,1.634997844696045,1.5226490497589111
1781591793680539100,17.3245390625,-0.06302011013031006,1.0660200119018555,3.3936944007873535
1781591793729052700,17.373052734375,1.8553982973098755,-3.003312110900879,1.4332060813903809
1781591793777566000,17.42156591796875,-0.20491373538970947,-5.053937911987305,0.8587512969970703
1781591793826079500,17.47007958984375,-2.3242576122283936,-2.6908483505249023,-4.010772228240967
1781591793874592800,17.5185927734375,-1.7071598768234253,-0.9427404403686523,-2.494778633117676
1781591793923106300,17.567106201171875,0.3423815965652466,-0.35486507415771484,-2.2661609649658203
1781591793971619600,17.61561962890625,0.9136060476303101,1.4201574325561523,1.0776258707046509
1781591794020133000,17.664133056640626,0.35031265020370483,3.4764952659606934,-1.2826234102249146
1781591794068646400,17.712646484375,1.5180151462554932,1.516465187072754,-0.8983093500137329
1781591794117160000,17.761159912109374,0.7150852680206299,-1.3797283172607422,1.1390374898910522
1781591794165673200,17.809673095703126,1.5171735286712646,-0.6975698471069336,1.0483121871948242
1781591794214186800,17.858186767578125,4.8548760414123535,5.1515045166015625,1.443969964981079
1781591794262700000,17.906699951171873,2.3980648517608643,-0.7877187728881836,4.412345886230469
1781591794311213600,17.955213623046873,0.4199717938899994,-2.174978256225586,2.630733013153076
1781591794359726800,18.003726806640625,-4.484090805053711,4.501893043518066,-3.6236798763275146
1781591794408248300,18.052248291015626,-2.902707099914551,-5.140486717224121,-5.526125907897949
1781591794456754000,18.10075390625,-5.166964530944824,-12.880165100097656,6.051572799682617
1781591794505267200,18.14926708984375,-1.2688953876495361,5.370644569396973,3.9218363761901855
1781591794553780700,18.19778076171875,1.0770597457885742,3.166935920715332,-3.141770839691162
1781591794602294000,18.2462939453125,0.02845132350921631,2.9110026359558105,-1.9792770147323608
1781591794650807600,18.2948076171875,-0.45470571517944336,3.171128749847412,1.6275434494018555
1781591794699320800,18.34332080078125,0.8614675998687744,1.0149211883544922,3.3870277404785156
1781591794747834400,18.39183447265625,1.1632075309753418,-0.9973106384277344,1.0762035846710205
1781591794796348000,18.440347900390623,1.1364043951034546,-2.9478015899658203,-0.14041996002197266
1781591794844861200,18.488861083984375,-1.782895803451538,-6.692608833312988,-1.6566251516342163
1781591794893374500,18.53737451171875,-1.4956059455871582,-0.588038444519043,-0.7663581371307373
1781591794941888000,18.585887939453126,-0.30457937717437744,-1.389491081237793,-4.077381134033203
1781591794990401500,18.634401611328126,0.9396016597747803,1.3144922256469727,0.25286543369293213
1781591795038914800,18.682914794921874,-0.036814332008361816,2.199648857116699,-1.1578466892242432
1781591795087428400,18.731428466796874,2.1534006595611572,2.3832874298095703,-0.8131056427955627
1781591795135941600,18.779941650390626,1.417811632156372,1.0427446365356445,1.182100534439087
1781591795184455200,18.828455078125,1.2456393241882324,-1.3165616989135742,1.7144644260406494
1781591795232968400,18.876968505859374,4.530267238616943,2.622194290161133,1.6902687549591064
1781591795281482000,18.92548193359375,2.357499361038208,1.7077302932739258,3.680935859680176
1781591795329995500,18.97399560546875,-1.152721643447876,-3.020504951477051,2.2904746532440186
1781591795378508800,19.0225087890625,-2.3819777965545654,1.877220630645752,-5.24194860458374
1781591795427022300,19.071022216796877,-1.3001611232757568,-3.653057098388672,-4.907387733459473
1781591795475535600,19.11953564453125,-6.877054214477539,-12.547151565551758,5.640511512756348
1781591795524049200,19.168049072265624,-0.535030722618103,5.950291633605957,3.5834033489227295
1781591795572562400,19.2165625,1.1316832304000854,3.831780433654785,-2.2959144115448
1781591795621076000,19.265075927734376,-0.11359032988548279,3.1854448318481445,-2.005847692489624
1781591795669589200,19.31358935546875,0.17960013449192047,2.698383331298828,0.920661211013794
1781591795718102800,19.362102783203124,0.6867462396621704,0.5472316741943359,2.5673465728759766
1781591795766616300,19.4106162109375,0.7317333221435547,-1.4950828552246094,1.076486349105835
1781591795815129600,19.459129638671875,2.3889529705047607,-1.7491111755371094,-0.5234403610229492
1781591795863643000,19.507642822265623,-2.6701536178588867,-7.841545104980469,-1.4329187870025635
1781591795912156400,19.556156494140627,-1.2647373676300049,-1.1262483596801758,-1.6754645109176636
1781591795960670000,19.604669921875,0.03846317529678345,-0.31853580474853516,-4.069021701812744
1781591796009183200,19.653183349609375,1.3642513751983643,0.6282405853271484,1.1749005317687988
1781591796057696800,19.70169677734375,-0.016611814498901367,2.9399242401123047,-1.7082116603851318
1781591796106210300,19.750210205078126,2.673468828201294,2.828914165496826,-1.3813992738723755
1781591796154723600,19.7987236328125,1.0956645011901855,-0.6906843185424805,0.2949885129928589
1781591796203236900,19.84723681640625,1.5906646251678467,-1.260807991027832,1.0163241624832153
1781591796251750400,19.89575048828125,5.024669647216797,3.8069896697998047,2.335257053375244
1781591796300264000,19.944263916015625,2.382416248321533,0.4546089172363281,5.019045352935791
1781591796348777200,19.992777099609373,-0.6125164031982422,-3.653339385986328,1.745263934135437
1781591796397290500,20.04129052734375,-2.9528605937957764,3.7450037002563477,-5.135711669921875
1781591796445804000,20.089803955078125,-1.613680124282837,-4.470311164855957,-6.113851070404053
1781591796494317600,20.138317626953125,-6.98723030090332,-13.88169002532959,4.791040420532227
1781591796542830800,20.186830810546876,0.10067208111286163,6.390433311462402,5.547316551208496
1781591796591344400,20.235344482421876,1.7510133981704712,3.6939268112182617,-2.2458252906799316
1781591796639858000,20.28385791015625,0.26002511382102966,4.072612762451172,-2.8347840309143066
1781591796688371200,20.33237109375,0.16955506801605225,3.6688990592956543,0.03342032432556152
1781591796736884500,20.380884521484376,0.25426656007766724,-0.41961193084716797,1.934673547744751
1781591796785398000,20.42939794921875,1.2620232105255127,-2.6997852325439453,0.21808242797851562
1781591796833911600,20.47791162109375,2.5264830589294434,-2.7982988357543945,-0.5581979751586914
1781591796882424800,20.5264248046875,-2.433105945587158,-6.467694282531738,-0.102325439453125
1781591796930938000,20.574938232421875,-1.6605333089828491,-0.4573841094970703,-0.47524523735046387
1781591796979451600,20.62345166015625,-0.12007355690002441,0.5207757949829102,-4.809167385101318
1781591797027965200,20.671965087890626,1.1083840131759644,1.002121925354004,0.3063613176345825
1781591797076478500,20.720478515625,-0.27165043354034424,2.8380813598632812,-1.7592055797576904
1781591797124991700,20.76899169921875,3.0706653594970703,1.4937381744384766,-1.110307216644287
1781591797173505300,20.81750537109375,0.9329090118408203,-0.9807376861572266,0.8620431423187256
1781591797222018800,20.866018798828126,2.215397834777832,-0.25743579864501953,1.5182005167007446
1781591797270532000,20.914531982421874,5.318759918212891,4.872747421264648,2.5808606147766113
1781591797319045600,20.963045654296874,1.9842548370361328,-0.4131937026977539,4.603912353515625
1781591797367559000,21.011558837890625,-3.2831501960754395,-3.7771196365356445,0.3445230722427368
1781591797416072400,21.060072509765625,-3.4528892040252686,4.311010837554932,-5.948157787322998
1781591797464585700,21.108585693359377,-2.1184935569763184,-10.30499267578125,-3.8759288787841797
1781591797513099300,21.157099365234377,-7.296852111816406,-10.341287612915039,8.268317222595215
1781591797561612500,21.205612548828125,1.4267137050628662,9.424551010131836,2.4642186164855957
1781591797610125800,21.254125732421876,1.0991559028625488,2.978933334350586,-4.246854782104492
1781591797658639400,21.302639404296876,-0.45486554503440857,4.085166931152344,-1.0991995334625244
1781591797707153000,21.35115283203125,0.8455228805541992,2.2083663940429688,1.848075032234192
1781591797755666200,21.399666259765624,0.3347818851470947,0.2679433822631836,3.4732842445373535
1781591797804179500,21.448179443359376,1.7592430114746094,-2.492648124694824,-1.3110134601593018
1781591797852693000,21.49669287109375,-0.5050398111343384,-7.223310470581055,-1.524255633354187
1781591797901206500,21.54520654296875,-2.254179000854492,-0.5694456100463867,-0.8450558185577393
1781591797949719800,21.5937197265625,-1.0110549926757812,-1.5924453735351562,-0.6497280597686768
1781591797998233000,21.642233154296875,0.5935554504394531,-0.1780691146850586,-3.3326852321624756
1781591798046746600,21.69074658203125,0.49297744035720825,1.6202354431152344,0.571325421333313
1781591798095260000,21.739260009765626,0.6651487350463867,2.608400344848633,-1.9200289249420166
1781591798143773400,21.7877734375,2.062882900238037,1.2661867141723633,-0.9026439189910889
1781591798192287000,21.836286865234374,0.7945854663848877,-1.5707950592041016,0.9052714705467224
1781591798240800300,21.88480029296875,2.3336610794067383,0.871917724609375,1.1375300884246826
1781591798289313500,21.9333134765625,5.669643402099609,5.73227071762085,2.7737112045288086
1781591798337827000,21.9818271484375,1.5696330070495605,-2.563591957092285,5.292488098144531
1781591798386340400,22.03034033203125,-2.1159868240356445,-2.0527963638305664,-0.020900607109069824
1781591798434853600,22.078853515625,-3.208292245864868,5.203300476074219,-6.276766777038574
1781591798483367200,22.1273671875,-2.909308671951294,-10.20474910736084,-4.791012763977051
1781591798531880700,22.175880615234377,-6.230959415435791,-10.704005241394043,7.694390773773193
1781591798580394000,22.22439404296875,0.25601518154144287,7.498936653137207,2.5625767707824707
1781591798628907300,22.2729072265625,1.1972084045410156,2.2067418098449707,-3.503896713256836
1781591798677420800,22.3214208984375,-0.5419132113456726,4.181602954864502,-0.9319405555725098
1781591798725934000,22.36993408203125,0.7569284439086914,2.9596991539001465,1.499407410621643
1781591798774447600,22.418447509765624,0.8252391219139099,0.1814899444580078,3.061403751373291
1781591798822961000,22.4669609375,1.0465364456176758,-2.324751853942871,-1.34666109085083
1781591798871474400,22.515474365234375,2.595137119293213,-1.476607322692871,-0.372852087020874
1781591798919987700,22.56398779296875,-3.3963868618011475,-7.125955581665039,-0.08791589736938477
1781591798968501200,22.612501220703123,-0.6639131903648376,-0.607935905456543,-0.7916438579559326
1781591799017014500,22.6610146484375,0.06924843788146973,2.486233711242676,-4.509043216705322
1781591799065527800,22.70952783203125,1.2748678922653198,-0.257415771484375,0.9122183322906494
1781591799114041300,22.758041259765626,0.0530017614364624,2.8006205558776855,-1.0548542737960815
1781591799162554600,22.8065546875,2.651942729949951,1.184330940246582,-1.8065617084503174
1781591799211068000,22.85506787109375,0.3706698417663574,-1.4149770736694336,0.3159745931625366
1781591799259581400,22.90358154296875,2.1502552032470703,0.6497125625610352,1.0427722930908203
1781591799308094700,22.9520947265625,5.686861038208008,5.647707462310791,3.1366889476776123
1781591799356608300,23.000608154296874,1.270207166671753,-2.368244171142578,4.901302337646484
1781591799405121500,23.04912158203125,-1.5294606685638428,-1.881791114807129,-0.037702977657318115
1781591799453635000,23.097635009765625,-3.546372413635254,5.439769268035889,-5.265613555908203
1781591799502148400,23.1461484375,-2.971480369567871,-12.330425262451172,-4.67784309387207
1781591799550661600,23.19466162109375,-6.1357035636901855,-9.217499732971191,8.147442817687988
1781591799599175200,23.243175048828125,0.5425344109535217,6.966408729553223,2.1951513290405273
1781591799647688400,23.2916884765625,1.0319933891296387,2.9142026901245117,-3.897733211517334
1781591799696202000,23.340201904296876,-0.37694284319877625,4.700835227966309,-1.7057275772094727
1781591799744715300,23.38871533203125,0.5739550590515137,2.923269748687744,1.3905283212661743
1781591799793228500,23.437228515625,0.43111342191696167,0.019865036010742188,2.985459804534912
1781591799841742000,23.4857421875,1.1380693912506104,-3.156515121459961,-1.3338829278945923
1781591799890255400,23.53425537109375,1.9507813453674316,-2.55364990234375,0.6835005283355713
1781591799938768600,23.5827685546875,-3.220468759536743,-6.355368614196777,-0.1617450714111328
1781591799987282200,23.6312822265625,-0.8399608731269836,0.904109001159668,-1.8975002765655518
1781591800035795500,23.67979541015625,-0.13535749912261963,0.1184844970703125,-4.788384437561035
1781591800084308700,23.728308837890626,0.8629103302955627,0.07431888580322266,1.2098150253295898
1781591800132822300,23.776822265625,0.01853930950164795,3.258636951446533,-1.9842617511749268
1781591800181335600,23.82533544921875,2.5709731578826904,1.2538232803344727,-1.3068993091583252
1781591800229848800,23.873848876953126,0.7829393148422241,-0.9222402572631836,1.4989607334136963
1781591800278362400,23.9223623046875,1.5790741443634033,-0.21865367889404297,1.5851551294326782
1781591800326875600,23.970875732421874,5.1822943687438965,4.002970218658447,2.0653915405273438
1781591800375389000,24.019388916015625,2.715945243835449,-0.0207061767578125,3.9039087295532227
1781591800423902500,24.06790234375,-0.40443122386932373,-3.534322738647461,2.2723164558410645
1781591800472415700,24.116415771484377,-3.491468906402588,4.347959518432617,-3.2841570377349854
1781591800520929300,24.16492919921875,-1.3826267719268799,-2.5177974700927734,-6.169861793518066
1781591800569442600,24.213442626953125,-6.834639549255371,-14.556612968444824,4.081960201263428
1781591800617955800,24.261955810546876,-1.3434563875198364,4.064947605133057,4.612208366394043
1781591800666469400,24.310469482421876,1.5769542455673218,3.953786849975586,-1.7065340280532837
1781591800714982700,24.358982666015624,-0.25024208426475525,2.9340949058532715,-1.9329718351364136
1781591800763496000,24.407495849609376,0.09842708706855774,3.8258118629455566,1.1109434366226196
1781591800812009000,24.456009033203124,1.5561753511428833,1.6086063385009766,2.135469436645508
1781591800860522800,24.504522705078124,0.023882150650024414,-1.3699760437011719,1.279193639755249
1781591800909036000,24.5530361328125,1.7590537071228027,-4.550727844238281,-2.1245322227478027
1781591800957549600,24.601549560546875,-1.0180991888046265,-5.191160202026367,-1.2716609239578247
1781591801006062800,24.650062744140627,-2.1980204582214355,0.6873044967651367,1.4649083614349365
1781591801054576000,24.698576171875,0.2636401653289795,-2.418607711791992,-3.7219619750976562
1781591801103089400,24.74708935546875,1.4875731468200684,2.054048538208008,-0.6644846796989441
1781591801151603000,24.79560302734375,-0.22484350204467773,2.4976329803466797,-0.7998560667037964
1781591801200116200,24.8441162109375,1.8768075704574585,1.601064682006836,-1.7939856052398682
1781591801248629500,24.89262939453125,1.1132349967956543,0.14018535614013672,0.21479088068008423
1781591801297142800,24.941142822265626,0.9683130979537964,-1.1751012802124023,0.7266501188278198
1781591801345656300,24.98965625,5.3231611251831055,3.915743827819824,1.5614686012268066
1781591801394169600,25.038169677734373,3.2173960208892822,1.8763089179992676,4.323754787445068
1781591801442683000,25.086682861328125,-1.3282784223556519,-4.873883247375488,2.649115562438965
1781591801491196400,25.135196533203125,-3.5556631088256836,2.6036062240600586,-4.008944988250732
1781591801539709700,25.183709716796876,-1.2477669715881348,-1.7563676834106445,-6.165894508361816
1781591801588223000,25.232222900390624,-7.226470947265625,-15.161685943603516,5.060781955718994
1781591801636736500,25.280736572265624,-0.7199709415435791,4.575202465057373,4.43108606338501
1781591801685249800,25.329249755859376,1.5181543827056885,4.931069374084473,-1.4884467124938965
1781591801733763000,25.37776318359375,-0.11566436290740967,3.740908622741699,-3.0999488830566406
1781591801782276400,25.4262763671875,0.013787388801574707,3.1831488609313965,0.5126296281814575
1781591801830790000,25.474789794921875,1.19023859500885,0.35588836669921875,2.430042266845703
1781591801879303200,25.52330322265625,0.20448940992355347,-0.827549934387207,2.0982463359832764
1781591801927816400,25.57181640625,1.92605459690094,-3.1310625076293945,-1.5965147018432617
1781591801976330000,25.620330078125,-1.5455161333084106,-7.228764533996582,-1.2326809167861938
1781591802024843300,25.66884326171875,-1.985222578048706,0.7745866775512695,0.7853333950042725
1781591802073356500,25.7173564453125,-0.49938464164733887,-1.9175739288330078,-4.892162322998047
1781591802121869800,25.765869873046874,1.3325846195220947,1.5062923431396484,-0.5615831613540649
1781591802170383000,25.814383056640626,-0.47284650802612305,2.3195252418518066,-0.5450426340103149
1781591802218896600,25.862896728515626,2.014786958694458,1.9042315483093262,-0.8780938386917114
1781591802267410000,25.911409912109374,1.4316246509552002,1.1457080841064453,1.1637818813323975
1781591802315923200,25.959923095703125,1.012072205543518,-0.2433156967163086,1.0311200618743896
1781591802364436700,26.008436767578125,2.204575300216675,0.5238151550292969,-0.2599080204963684
1781591802412950000,26.056949951171877,5.271022796630859,3.196002960205078,2.0601136684417725
1781591802461463300,26.10546337890625,1.8085253238677979,-3.3633155822753906,4.726069450378418
1781591802509976600,26.1539765625,-2.2344419956207275,-1.2561759948730469,0.6692869663238525
1781591802558490000,26.202489990234376,-2.6933350563049316,5.484821796417236,-5.99718713760376
1781591802607003400,26.25100341796875,-2.5980536937713623,-8.252846717834473,-5.448639392852783
1781591802655516700,26.2995166015625,-6.786688804626465,-11.331063270568848,7.913576126098633
1781591802704030200,26.3480302734375,1.2442514896392822,8.5736722946167,3.2906620502471924
1781591802752543500,26.39654345703125,1.1335804462432861,1.682464599609375,-3.261096239089966
1781591802801056800,26.445056884765624,-0.9755635261535645,3.894847869873047,-0.7743207812309265
1781591802849570000,26.493570068359375,0.8546380996704102,2.641533374786377,1.4400206804275513
1781591802898083300,26.542083251953127,1.1229945421218872,0.18358516693115234,1.6500104665756226
1781591802946596900,26.590596923828127,1.381558895111084,-1.1521034240722656,-0.7506680488586426
1781591802995110100,26.639110107421875,2.5424766540527344,-1.2901697158813477,0.6804003715515137
1781591803043623400,26.68762353515625,-4.13310432434082,-9.298784255981445,-0.13130736351013184
1781591803092136700,26.73613671875,-0.8301385641098022,1.4092130661010742,-3.0953261852264404
1781591803140650000,26.78464990234375,-0.6208786368370056,0.25702476501464844,-4.209334850311279
1781591803189163500,26.83316357421875,1.4254497289657593,-0.9371557235717773,3.0065903663635254
1781591803237676800,26.8816767578125,0.02675783634185791,3.8966827392578125,-1.2826638221740723
1781591803286190000,26.930190185546873,2.4426212310791016,1.838728427886963,-1.4041186571121216
1781591803334703600,26.97870361328125,0.24602484703063965,-0.609440803527832,0.18791848421096802
1781591803383217000,27.027216796875,2.249340772628784,-0.6530637741088867,1.7139531373977661
1781591803431730200,27.075730224609377,5.300082206726074,4.497448921203613,3.3107337951660156
1781591803480243500,27.124243408203125,1.123245358467102,0.03883934020996094,4.050685882568359
1781591803528756700,27.1727568359375,-2.528752565383911,-3.7912817001342773,0.16370457410812378
1781591803577270300,27.221270263671876,-2.8480730056762695,4.5143914222717285,-5.275810718536377
1781591803625783600,27.269783447265624,-2.4085943698883057,-6.944422721862793,-4.594871520996094
1781591803674296800,27.318296875,-7.20797872543335,-12.746657371520996,7.810052394866943
1781591803722810000,27.36681005859375,1.5589326620101929,9.284744262695312,3.1199326515197754
1781591803771323600,27.41532373046875,1.2343628406524658,2.4532885551452637,-3.4180221557617188
1781591803819837000,27.4638369140625,-0.8069486618041992,3.380211353302002,-0.7290236353874207
1781591803868350200,27.51235009765625,-0.05264824628829956,1.7721357345581055,1.757581114768982
1781591803916863500,27.560863525390626,1.0727367401123047,-0.06428050994873047,2.902006149291992
1781591803965376800,27.609376708984374,0.5600066184997559,-1.5386276245117188,1.6697845458984375
1781591804013890300,27.657890380859374,0.8268529176712036,-4.534006118774414,-1.6941081285476685
1781591804062403600,27.706403564453126,-1.3684767484664917,-2.0539321899414062,-2.4762110710144043
1781591804110916900,27.754916748046874,-1.704695463180542,-2.431647300720215,1.2126214504241943
1781591804159430100,27.80343017578125,0.4668519198894501,0.3081998825073242,-4.021825790405273
1781591804207943400,27.851943359375,0.9176466464996338,1.498652458190918,0.018686532974243164
1781591804256457000,27.90045703125,-0.02318441867828369,2.288076400756836,-1.7072443962097168
1781591804304970200,27.94897021484375,2.1697962284088135,2.5075225830078125,-1.5842065811157227
1781591804353483500,27.9974833984375,1.3600637912750244,-0.6118602752685547,0.9077439904212952
1781591804401996800,28.045996826171876,1.6305522918701172,-0.6463403701782227,2.1108384132385254
1781591804450510000,28.094510009765624,4.687736511230469,3.570620536804199,1.435294508934021
1781591804499023600,28.143023681640624,2.742696762084961,-0.30917930603027344,3.229602813720703
1781591804547537000,28.191536865234376,-1.3318089246749878,-3.66007137298584,2.8758468627929688
1781591804596050200,28.24005029296875,-2.4644203186035156,3.6401162147521973,-3.7742342948913574
1781591804671879000,28.31587890625,-0.38819921016693115,-1.8586502075195312,-7.071199893951416
1781591804722829600,28.36682958984375,-5.130446910858154,-7.584559440612793,6.738070964813232
1781591804773757000,28.4177568359375,2.1165544986724854,7.238440990447998,1.8180248737335205
1781591804824695800,28.46869580078125,1.4699578285217285,2.439809799194336,-2.6283328533172607
1781591804875634700,28.519634765625,0.1925189197063446,4.465779781341553,-0.7968633770942688
1781591804926573800,28.57057373046875,2.0187582969665527,1.6013898849487305,0.4418104887008667
1781591805022967300,28.66696728515625,2.8696181774139404,-2.218667984008789,-2.0472514629364014
1781591805071480800,28.715480712890624,-0.42170634865760803,-9.624183654785156,-1.8440767526626587
1781591805168507400,28.81250732421875,-0.125230073928833,-1.769418716430664,-1.6737909317016602
1781591805217020700,28.861020751953124,1.6304271221160889,0.842564582824707,-2.960482597351074
1781591805265534000,28.909533935546875,0.2674977779388428,2.550774574279785,-0.4954596161842346
1781591805314047500,28.958047607421875,2.032593250274658,1.6980514526367188,-1.0931557416915894
1781591805362560800,29.006560791015627,1.9242005348205566,-0.25731372833251953,-0.8248159289360046
1781591805411074000,29.055073974609375,1.4106950759887695,-0.9882144927978516,0.13695389032363892
1781591805459587300,29.10358740234375,4.3052873611450195,1.5004539489746094,1.3950892686843872
1781591805508100600,29.1521005859375,4.542211055755615,3.8671936988830566,3.688823938369751
1781591805556614000,29.20061376953125,0.678521990776062,-4.0810956954956055,3.965684413909912
1781591805605127200,29.249127197265626,-3.2892308235168457,-0.38686561584472656,-1.901526689529419
1781591805653640400,29.297640380859374,-0.6966630816459656,2.1328444480895996,-7.3051676750183105
1781591805702153700,29.34615380859375,-4.671101093292236,-11.924121856689453,-0.9975550174713135
1781591805750667300,29.394667236328125,-3.803234100341797,-2.9579973220825195,7.400232791900635
1781591805799180500,29.4431806640625,2.3346378803253174,6.648165702819824,0.09404897689819336
1781591805847693800,29.49169384765625,0.9207578897476196,2.580204963684082,-3.0198686122894287
1781591805896207000,29.54020703125,-0.05921787768602371,3.5817012786865234,0.1053931713104248
1781591805944720400,29.588720458984376,1.8707818984985352,1.7568345069885254,1.530295491218567
1781591805993233700,29.637233642578124,0.415768027305603,-1.1029624938964844,2.616156816482544
1781591806041747000,29.685746826171876,3.4205856323242188,-1.2272014617919922,-1.4734771251678467
1781591806090260500,29.734260498046876,-1.9221529960632324,-9.293548583984375,-1.4423877000808716
1781591806138773800,29.782773681640624,-1.2506992816925049,1.0791292190551758,-1.6235296726226807
1781591806187287000,29.831287109375,-0.6130201816558838,-0.5449848175048828,-2.4482877254486084
1781591806235800300,29.87980029296875,1.628081202507019,-1.1406307220458984,-0.6099667549133301
1781591806284313600,29.928313720703127,0.08096551895141602,1.5027189254760742,-0.3058318495750427
1781591806332827000,29.976826904296875,1.6037037372589111,2.3110733032226562,-2.438422441482544
1781591806381340200,30.025340087890626,1.7957305908203125,1.3081169128417969,-0.5305584669113159
1781591806429853400,30.073853515625,1.20148503780365,-1.4068641662597656,0.4604150652885437
1781591806478367000,30.122366943359374,4.496103286743164,1.0791120529174805,0.9541366100311279
1781591806526880300,30.17088037109375,4.713043689727783,4.87200403213501,3.902331590652466
1781591806575393500,30.2193935546875,1.2794573307037354,-4.94902229309082,3.7646820545196533
1781591806623906800,30.26790673828125,-2.6458327770233154,0.7104892730712891,-1.652612328529358
1781591806672420000,30.316420166015625,-1.7650972604751587,4.412731647491455,-6.7162089347839355
1781591806720933400,30.364933349609377,-2.7244906425476074,-12.881985664367676,-3.022616147994995
1781591806769446700,30.41344677734375,-5.632185459136963,-6.443631172180176,8.716064453125
1781591806866473200,30.51047314453125,1.0142477750778198,1.500901222229004,-2.599323034286499
1781591806914986500,30.558986572265624,0.27080485224723816,3.9739551544189453,0.39061546325683594
1781591806963499800,30.607499755859376,1.7357438802719116,2.791865348815918,1.2817152738571167
1781591807012013300,30.656013427734376,0.8759293556213379,-0.9261198043823242,1.8893227577209473
1781591807060526600,30.704526611328124,4.097222328186035,-1.2044448852539062,-2.5253283977508545
1781591807109039900,30.753039794921875,-2.7039742469787598,-9.545378684997559,-1.1358288526535034
1781591807157553200,30.80155322265625,-1.3301523923873901,0.42640209197998047,-1.351496696472168
1781591807206066400,30.85006640625,-1.1246083974838257,1.241560935974121,-3.8887107372283936
1781591807254579700,30.898579833984375,1.0787235498428345,-1.9232616424560547,-0.6520738005638123
1781591807303093000,30.947093017578126,0.3762083053588867,1.3839244842529297,1.4650105237960815
1781591807351606300,30.995606201171874,1.7639094591140747,2.975245952606201,-1.727431297302246
1781591807400119600,31.04411962890625,1.8719162940979004,-0.07110786437988281,-1.1204965114593506
1781591807448632800,31.0926328125,1.861116886138916,-1.2130317687988281,0.4325433373451233
1781591807497146000,31.14114599609375,4.463141441345215,0.9299249649047852,1.638199806213379
1781591807545659600,31.18965966796875,3.2446961402893066,3.401597023010254,1.3576529026031494
1781591807594172700,31.238172607421873,0.6295616626739502,-2.0599803924560547,2.376716136932373
1781591807642686200,31.286686279296877,-4.821928024291992,-0.47639942169189453,-2.323946952819824
1781591807691199500,31.335199462890625,-0.27555525302886963,0.12005805969238281,-5.150224685668945
1781591807739712800,31.383712646484376,-6.358153820037842,-11.177498817443848,1.052876591682434
1781591807788226000,31.43222607421875,-1.7760467529296875,-0.0939340591430664,9.764922142028809
1781591807836739300,31.4807392578125,1.9322601556777954,2.3760061264038086,0.41082262992858887
1781591807885252600,31.529252685546876,0.15498846769332886,4.333164215087891,-2.6213364601135254
1781591807933766000,31.577765869140624,0.8543956279754639,5.378671646118164,-0.6774011850357056
1781591807982279200,31.626279052734375,2.0509934425354004,0.7873668670654297,-1.1245288848876953
1781591808030792400,31.67479248046875,-1.1302316188812256,-1.3685951232910156,1.966855525970459
1781591808079305700,31.7233056640625,3.5309553146362305,-1.4442195892333984,-0.441032350063324
1781591808127819300,31.7718193359375,0.1013249084353447,-4.474270820617676,2.542381763458252
1781591808224845800,31.868845703125,-0.4029306173324585,1.9721097946166992,-2.808596611022949
1781591808273359000,31.917359130859374,0.775546133518219,-0.16011619567871094,-2.386573314666748
1781591808321872400,31.965872314453126,2.0628886222839355,0.041243553161621094,1.70261812210083
1781591808370385700,32.0143857421875,0.5226787328720093,4.381265640258789,-1.8941121101379395
1781591808418899000,32.06289892578125,2.2996573448181152,1.6349754333496094,-1.9355021715164185
1781591808467412200,32.111412109375,1.2935351133346558,-1.291163444519043,1.041520118713379
1781591808515925500,32.15992553710937,2.634425163269043,-0.8016452789306641,2.3186111450195312
1781591808564438800,32.20843872070313,4.818599700927734,3.9090003967285156,3.636598587036133
1781591808612952000,32.2569521484375,1.5301291942596436,-2.8066530227661133,2.949294090270996
1781591808661465300,32.30546533203125,-0.5779224634170532,0.9252872467041016,0.0465240478515625
1781591808709978600,32.353978515625,-3.8774235248565674,4.1220622062683105,-3.742347478866577
1781591808758492000,32.40249194335937,-3.868332624435425,-16.14037322998047,-3.4494590759277344
1781591808807005200,32.45100512695313,-4.667148113250732,-2.6460628509521484,6.704034328460693
1781591808855518500,32.4995185546875,1.202380657196045,6.5014824867248535,1.110910177230835
1781591808904031700,32.54803173828125,0.8159908056259155,1.5270013809204102,-3.4741878509521484
1781591808952545300,32.59654516601562,-0.23497259616851807,4.601043224334717,-0.1272639036178589
1781591809001058300,32.64505834960938,1.705603003501892,2.205662727355957,1.592212438583374
1781591809049571800,32.69357177734375,-0.1334185004234314,-0.12583351135253906,2.5272488594055176
1781591809098084900,32.7420849609375,4.402658939361572,-1.483510971069336,-3.1283838748931885
1781591809146598400,32.790598388671874,-0.5439842343330383,-3.1968564987182617,4.229306221008301
1781591809195111700,32.83911157226562,-3.3423376083374023,-7.6539716720581055,-3.104252815246582
1781591809243625000,32.887625,0.061890363693237305,3.4303951263427734,-4.74615478515625
1781591809292138200,32.93613818359375,0.4349502921104431,-3.065532684326172,-1.5300318002700806
1781591809340651500,32.984651611328125,0.7391681671142578,1.3802833557128906,1.322629451751709
1781591809389164800,33.03316479492187,1.0610694885253906,4.106102466583252,-1.980302333831787
1781591809437678000,33.08167797851563,1.7048989534378052,-0.046036720275878906,-0.9685260653495789
1781591809486191400,33.13019140625,0.49642133712768555,-0.855565071105957,-0.033937811851501465
1781591809534704600,33.17870458984375,5.106321334838867,2.488560676574707,1.0323206186294556
1781591809583218000,33.227218017578124,4.173248767852783,3.4028334617614746,4.90199613571167
1781591809631731200,33.27573120117187,1.2239642143249512,-5.3046064376831055,3.7019901275634766
1781591809680244500,33.32424438476563,-3.183506965637207,3.0233588218688965,-0.18214720487594604
1781591809728757800,33.3727578125,-0.8061650395393372,1.1179132461547852,-7.0429887771606445
1781591809777271000,33.42127099609375,-6.683315277099609,-15.50915813446045,-4.1036152839660645
1781591809825784300,33.46978442382812,-3.592287540435791,-0.9796886444091797,8.325329780578613
1781591809874297600,33.51829760742187,1.452934980392456,7.001972675323486,1.2955777645111084
1781591809922811100,33.56681103515625,0.2645735740661621,3.4359984397888184,-1.9995911121368408
1781591809971324200,33.61532421875,0.2643347382545471,3.597872257232666,0.1698780655860901
1781591810019837700,33.663837646484374,1.7013996839523315,1.3797168731689453,0.21493476629257202
1781591810068350700,33.71235083007812,-0.844573438167572,-1.246328353881836,1.38382089138031
1781591810116864300,33.7608642578125,3.3044209480285645,-1.121103286743164,-3.0998969078063965
1781591810165377500,33.80937744140625,-1.8304539918899536,-8.136164665222168,0.15265703201293945
1781591810213890800,33.857890869140626,-1.439528465270996,-0.6186361312866211,-0.8050700426101685
1781591810262404000,33.90640405273437,-0.25194209814071655,-0.11841392517089844,-2.375302791595459
1781591810310917400,33.95491748046875,0.8081306219100952,-1.2352190017700195,-1.5052547454833984
1781591810359430700,34.0034306640625,0.6952570676803589,2.569549560546875,0.9396568536758423
1781591810407944000,34.05194384765625,1.2692450284957886,2.7697415351867676,-1.488305926322937
1781591810456457200,34.100457275390625,1.6542582511901855,0.5047292709350586,-1.1088584661483765
1781591810504970500,34.14897045898437,0.5898439884185791,-0.25811100006103516,-0.2125757932662964
1781591810553483800,34.19748388671875,2.786440372467041,0.040215492248535156,0.06581736356019974
1781591810601997000,34.2459970703125,4.736968040466309,3.6912050247192383,2.820279359817505
1781591810650510300,34.29451025390625,1.284608006477356,-2.1530942916870117,5.016198635101318
1781591810699023600,34.343023681640624,-3.327056884765625,-4.054570198059082,0.04245169833302498
1781591810747537000,34.39153686523437,-1.5885791778564453,5.517107963562012,-6.265544414520264
1781591810796050200,34.44005029296875,-3.220831871032715,-6.4900922775268555,-4.768949031829834
1781591810844563500,34.4885634765625,-6.099351406097412,-12.075183868408203,7.479191303253174
1781591810893076700,34.53707666015625,1.4628347158432007,9.017301559448242,7.429357051849365
1781591810941590000,34.58559008789062,1.7601715326309204,1.9865431785583496,-0.12103271484375
1781591810990103300,34.63410327148438,0.9530023336410522,4.428246974945068,-0.7226465344429016
1781591811038616600,34.682616455078126,1.831106424331665,4.9049391746521,-1.0748250484466553
1781591811087129900,34.7311298828125,0.9111051559448242,-1.246450424194336,-1.468126654624939
1781591811135643100,34.77964306640625,0.5101439356803894,-2.859201431274414,1.8592826128005981
1781591811184156400,34.82815649414062,3.123232364654541,-1.7175703048706055,2.1572251319885254
1781591811232669700,34.87666967773438,-3.8981823921203613,-8.164386749267578,-6.0831451416015625
1781591811281183000,34.925182861328125,-0.3769119381904602,1.0345792770385742,0.3590273857116699
1781591811329696300,34.9736962890625,-0.9211107492446899,0.1844615936279297,-1.2407588958740234
1781591811378209500,35.02220947265625,1.3458131551742554,0.47748279571533203,-1.3675293922424316
1781591811426722800,35.07072290039063,0.08146834373474121,4.162505149841309,-0.44885000586509705
1781591811475236000,35.119236083984376,1.9465757608413696,0.8422222137451172,-0.4255789518356323
1781591811523749400,35.167749267578124,1.8549787998199463,-0.27869510650634766,0.10915210843086243
1781591811572262700,35.2162626953125,1.3610966205596924,0.20558547973632812,0.635942816734314
1781591811620776000,35.26477587890625,4.58159875869751,2.1814980506896973,0.4139048457145691
1781591811669289200,35.31328930664063,2.15970516204834,1.255070686340332,4.117655277252197
1781591811717802500,35.361802490234375,-0.757276177406311,-4.065120697021484,4.007364273071289
1781591811766315800,35.41031567382812,-1.689168930053711,1.6665658950805664,-2.8503477573394775
1781591811814829000,35.4588291015625,-1.7137799263000488,-1.7821159362792969,-7.086914539337158
1781591811863342300,35.50734228515625,-6.539401054382324,-13.44401741027832,1.3765296936035156
1781591811911855600,35.555855712890626,-1.6078925132751465,5.547237396240234,5.831182956695557
1781591811960369000,35.604368896484374,1.756596565246582,3.710949420928955,-0.8699244856834412
1781591812008882200,35.65288208007812,-0.0006172060966491699,3.420881748199463,-0.8755546808242798
1781591812057395500,35.7013955078125,0.5726205706596375,3.9321298599243164,1.0428745746612549
1781591812105908700,35.74990869140625,-0.0785602331161499,0.0959615707397461,2.3020248413085938
1781591812154422000,35.798422119140625,-0.06893771886825562,-2.0976505279541016,0.3493398427963257
1781591812202935300,35.84693530273437,4.774460792541504,0.008637428283691406,0.6889516115188599
1781591812251448600,35.89544848632813,-5.383573532104492,-9.846624374389648,-0.9868777394294739
1781591812299961900,35.9439619140625,0.914794921875,0.7443351745605469,-4.134814262390137
1781591812348475100,35.99247509765625,-0.2818645238876343,0.9935016632080078,-3.052001953125
1781591812396988400,36.040988525390624,0.7670425176620483,-2.0055761337280273,0.5660309791564941
1781591812445501400,36.08950146484375,-0.4015681743621826,3.541050434112549,-2.035616636276245
1781591812494015000,36.13801489257813,2.7367587089538574,1.380697250366211,-1.654745101928711
1781591812542528000,36.186528076171875,1.5453944206237793,-0.5143356323242188,0.7356632351875305
1781591812591041300,36.23504125976562,2.2517800331115723,0.4125251770019531,2.262544870376587
1781591812639554600,36.28355444335938,5.7823028564453125,4.78326940536499,4.3998260498046875
1781591812688067800,36.33206787109375,1.2197096347808838,-1.382338523864746,3.7025742530822754
1781591812736581000,36.3805810546875,-1.1318743228912354,-2.07405948638916,-0.04917360842227936
1781591812785094400,36.429094482421874,-2.7315049171447754,4.525672912597656,-5.705643653869629
1781591812833607700,36.47760766601562,-1.6392513513565063,-8.917502403259277,-5.834695816040039
1781591812882121000,36.52612084960938,-7.110718250274658,-11.995737075805664,6.669567108154297
1781591812930634200,36.57463427734375,0.13424326479434967,8.824954986572266,4.43400239944458
1781591812979147500,36.6231474609375,1.6247738599777222,3.1192479133605957,-3.0302443504333496
1781591813027660800,36.67166088867187,-0.2675250470638275,4.094918251037598,-0.7859328985214233
1781591813076174000,36.72017407226563,0.8037222623825073,1.764333724975586,1.7676622867584229
1781591813124687400,36.768687255859376,0.4479735493659973,-0.6516208648681641,2.6716537475585938
1781591813173200400,36.817200439453124,3.684896230697632,-0.4168224334716797,-1.672778844833374
1781591813221714000,36.8657138671875,-1.2910207509994507,-3.6997060775756836,-0.2159196138381958
1781591813270227000,36.91422705078125,-2.7540032863616943,-6.006272315979004,-1.6432163715362549
1781591813318740200,36.962740234375,-0.4789641201496124,1.2973575592041016,-4.033700942993164
1781591813367253500,37.01125341796875,0.5805059671401978,-2.9539003372192383,-2.3201441764831543
1781591813415766800,37.05976684570312,0.38710296154022217,2.005795478820801,1.4288053512573242
1781591813464280000,37.10828002929688,1.2598240375518799,3.2342453002929688,-1.03691565990448
1781591813512793300,37.15679345703125,2.132406234741211,-0.0031366348266601562,-0.058225829154253006
1781591813561306600,37.205306640625,2.1490888595581055,-1.0421981811523438,1.4174883365631104
1781591813609820000,37.25381982421875,4.412378311157227,1.2042369842529297,1.4499180316925049
1781591813658333200,37.30233325195312,5.11245059967041,4.2843403816223145,2.8995048999786377
1781591813706846500,37.35084643554688,-0.9163227081298828,-3.2678966522216797,2.4261741638183594
1781591813755359500,37.399359375,-3.75298810005188,0.47570133209228516,-1.1540206670761108
1781591813803873000,37.447873046875,-0.789670467376709,0.0710306167602539,-6.094935417175293
1781591813852386000,37.49638598632812,-6.369699478149414,-13.367464065551758,-0.4260515868663788
1781591813900899300,37.5448994140625,-2.511113405227661,0.8246479034423828,4.741252899169922
1781591813949412600,37.59341259765625,1.5970913171768188,6.801710605621338,1.012357234954834
1781591813997926000,37.64192578125,0.5134050846099854,3.473332405090332,-1.6982334852218628
1781591814046439200,37.69043920898437,-1.0254111289978027,3.508176326751709,0.5768702030181885
1781591814094952400,37.73895239257813,0.15454190969467163,1.259333610534668,1.7157139778137207
1781591814143465700,37.7874658203125,0.5448967814445496,-2.344273567199707,1.0566036701202393
1781591814191978800,37.835978759765624,3.13423752784729,-2.3075132369995117,0.013556838035583496
1781591814240492000,37.88449194335937,-1.2560436725616455,-8.773072242736816,1.1279096603393555
1781591814289005300,37.93300537109375,-2.0165674686431885,1.8125,-1.9385496377944946
1781591814337518600,37.9815185546875,-0.6163570284843445,-0.7318172454833984,-4.523928642272949
1781591814386031900,38.030031982421875,0.776308536529541,-0.5517826080322266,0.9888480305671692
1781591814434545200,38.07854516601562,-0.4214540719985962,3.279820442199707,-1.063690185546875
1781591814483058400,38.12705834960938,1.4961179494857788,3.3243408203125,-3.015030860900879
1781591814531571500,38.175571533203126,2.240633726119995,-0.22175216674804688,-1.7217838764190674
1781591814580084700,38.224084716796874,1.4662330150604248,-1.9084482192993164,-0.6456142663955688
1781591814628598000,38.27259790039062,5.440007209777832,3.237823963165283,1.0411494970321655
1781591814677111300,38.321111328125,3.997802495956421,3.2612228393554688,5.757223129272461
1781591814725624600,38.36962451171875,1.9264705181121826,-6.2402191162109375,7.249415397644043
1781591814774137600,38.4181376953125,-3.5250744819641113,3.2831239700317383,-1.7191314697265625
1781591814822651100,38.46665112304687,-1.4857125282287598,2.119758129119873,-6.335569381713867
1781591814871164200,38.5151640625,-4.1780171394348145,-18.974891662597656,-0.7523242235183716
1781591814919677400,38.563677490234376,-4.767001628875732,-0.38438987731933594,7.309190273284912
1781591814968190700,38.612190673828124,1.6171274185180664,7.911904335021973,0.5901219844818115
1781591815016704000,38.6607041015625,0.6468714475631714,3.9251766204833984,-3.8866095542907715
1781591815065217300,38.70921728515625,0.2449263334274292,4.770510673522949,-0.2949656844139099
1781591815113730300,38.757730224609375,0.4424259066581726,0.23276805877685547,2.420637607574463
1781591815162243600,38.80624365234375,1.274728775024414,-2.521477699279785,1.9070160388946533
1781591815210756900,38.8547568359375,3.8399159908294678,-0.3805408477783203,-2.300375461578369
1781591815259270100,38.90327026367188,-3.436375379562378,-9.743276596069336,-1.5723907947540283
1781591815307783400,38.951783447265626,-1.0537934303283691,0.00983428955078125,-0.7829796075820923
1781591815356296400,39.00029638671875,-0.34575170278549194,0.1797647476196289,-4.032918930053711
1781591815404809700,39.04880981445312,1.3387607336044312,-0.4675254821777344,-0.22518587112426758
1781591815453323000,39.09732299804688,-0.5673325061798096,4.430409908294678,-1.017279028892517
1781591815501836300,39.145836181640625,2.728330135345459,2.5980567932128906,-1.8570655584335327
1781591815550349600,39.194349609375,1.5048835277557373,-1.3902149200439453,-0.8011162281036377
1781591815598862600,39.24286254882813,1.376787543296814,0.03818321228027344,-0.47274473309516907
1781591815647376000,39.2913759765625,7.0953216552734375,4.65983247756958,2.1438674926757812
1781591815695889200,39.33988916015625,2.777714729309082,-0.4519510269165039,7.572899341583252
1781591815744402400,39.38840234375,-0.5615419149398804,-3.9577713012695312,2.3181324005126953
1781591815792915700,39.43691577148437,-3.1682889461517334,5.386600017547607,-3.1410045623779297
1781591815841428700,39.4854287109375,-1.7192983627319336,-6.710239410400391,-7.095597743988037
1781591815889942000,39.53394189453125,-8.731412887573242,-16.49712562561035,3.6005406379699707
1781591815938455300,39.58245532226562,-0.8542084097862244,8.167733192443848,6.084374904632568
1781591815986968300,39.63096826171875,2.054274082183838,4.733443737030029,-2.3539371490478516
1781591816035481600,39.67948168945313,-0.15219759941101074,4.505284309387207,-2.347106695175171
1781591816083995000,39.727994873046875,0.19537249207496643,2.507567882537842,1.3670763969421387
1781591816132508200,39.77650805664062,0.9776778817176819,-0.18606948852539062,3.430027961730957
1781591816181021400,39.825021484375,1.431349277496338,-1.9944133758544922,-0.06925106048583984
1781591816229534500,39.873534423828126,-0.644992470741272,-8.270853042602539,-4.0045857429504395
1781591816278047700,39.9220478515625,-2.0557730197906494,-0.06159019470214844,-0.440468430519104
1781591816326561000,39.97056103515625,-1.3359663486480713,-1.4940128326416016,-0.452065110206604
1781591816375074000,40.01907397460938,0.15931344032287598,-2.05399227142334,-4.194777965545654
1781591816423587300,40.06758740234375,0.9303373098373413,3.1976723670959473,0.48797011375427246
1781591816472100600,40.1161005859375,0.7550959587097168,3.724123477935791,-1.6864761114120483
1781591816520614000,40.16461376953125,2.294067621231079,1.1889095306396484,-1.5663849115371704
1781591816569127200,40.21312719726563,1.0811231136322021,-0.3316335678100586,-0.4069187641143799
1781591816617640200,40.26164013671875,2.002851724624634,0.8925571441650391,0.37121134996414185
1781591816666153500,40.310153564453124,7.303609848022461,3.2569427490234375,3.714632034301758
1781591816714666800,40.35866674804687,1.8835201263427734,-3.421511650085449,7.4135308265686035
1781591816763179800,40.4071796875,-1.397143840789795,-1.782547950744629,1.9586949348449707
1781591816811693000,40.455693115234375,-2.9719045162200928,5.239299774169922,-4.814818859100342
1781591816860206300,40.50420629882812,-3.0646562576293945,-10.57216739654541,-6.4007768630981445
1781591816908719400,40.55271923828125,-7.656857013702393,-11.307968139648438,6.278812885284424
1781591816957232600,40.601232666015626,0.6419803500175476,10.410751342773438,4.160434722900391
1781591817005746000,40.649745849609374,2.1395423412323,3.0744433403015137,-3.51560640335083
1781591817102772200,40.74677221679688,0.80419921875,2.416616439819336,1.7406364679336548
1781591817151285500,40.795285400390625,0.029431164264678955,-0.20691871643066406,3.144254207611084
1781591817199798800,40.843798828125,1.5248239040374756,-3.9090442657470703,-1.063042163848877
1781591817248312000,40.89231201171875,1.3591883182525635,-4.469818115234375,-0.20884466171264648
1781591817296825000,40.9408251953125,-3.218345880508423,-4.019828796386719,-2.198603868484497
1781591817345338400,40.98933837890625,-0.7915453910827637,-0.8749961853027344,-0.42391347885131836
1781591817393851600,41.0378515625,-0.2978348135948181,1.4777936935424805,-3.48355770111084
1781591817442364700,41.08636474609375,1.2441331148147583,1.8969974517822266,-1.4196345806121826
1781591817490878000,41.1348779296875,0.9937416315078735,3.857184886932373,-1.9489178657531738
1781591817539391200,41.18339111328125,2.411330223083496,1.1083307266235352,-1.397388219833374
1781591817604801500,41.24880151367187,0.11659026145935059,-1.5170574188232422,-0.48419997096061707
1781591817653314600,41.297314453125,6.981308460235596,4.764072418212891,5.049921035766602
1781591817701827800,41.345827880859375,1.4086322784423828,-1.071366310119629,7.71598482131958
1781591817750341000,41.39434106445312,-2.2351181507110596,-3.999683380126953,1.0432512760162354
1781591817798854100,41.44285424804688,-3.0870113372802734,5.076779365539551,-5.247855186462402
1781591817847367400,41.491367431640626,-2.1838748455047607,-7.260599136352539,-6.42071533203125
1781591817944393700,41.58839379882812,-0.13275682926177979,9.648874282836914,4.58314847946167
1781591817992906800,41.63690673828125,1.2679274082183838,4.438559532165527,-3.3903355598449707
1781591818041420000,41.685419921875,-1.1728942394256592,4.281443119049072,-1.175984263420105
1781591818089933300,41.73393334960937,-0.2898448705673218,2.2596120834350586,1.684485912322998
1781591818138446300,41.7824462890625,0.2901436686515808,-0.26180076599121094,2.4658608436584473
1781591818186959600,41.830959716796876,1.2615513801574707,-2.657472610473633,-0.6397218704223633
1781591818235472600,41.87947265625,1.0592718124389648,-4.7431840896606445,0.6952831745147705
1781591818283985700,41.92798559570313,-3.0564346313476562,-5.152717590332031,-1.846111536026001
1781591818332499200,41.97649926757813,-1.3920027017593384,-0.7481575012207031,-0.0433344841003418
1781591818381012500,42.025012451171875,-0.11811453104019165,-0.9016847610473633,-4.134430885314941
1781591818429525500,42.073525390625,0.6168755292892456,2.393082618713379,-1.7306573390960693
1781591818478038800,42.12203881835938,0.01813066005706787,4.394351959228516,-2.519552230834961
1781591818526551800,42.1705517578125,1.535407543182373,1.2209177017211914,-2.356060743331909
1781591818575064800,42.21906494140625,0.9489980936050415,-2.1261672973632812,-1.5014389753341675
1781591818623578400,42.26757836914062,4.431272506713867,1.471761703491211,1.6802752017974854
1781591818672091400,42.31609130859375,5.344846248626709,5.432287693023682,7.627378463745117
1781591818720604700,42.364604736328126,0.18330883979797363,-4.9439496994018555,5.345131874084473
1781591818769118000,42.41311791992187,-3.1031007766723633,0.2440319061279297,-1.4634923934936523
1781591818817631000,42.461630859375,-2.487849235534668,5.192871570587158,-4.903851509094238
1781591818866144000,42.51014404296875,-5.6028523445129395,-16.351882934570312,-5.168849468231201
1781591818914657300,42.5586572265625,-5.428609371185303,-5.352059364318848,4.852378845214844
1781591818963170600,42.60717065429687,0.23755210638046265,9.169668197631836,2.7089364528656006
1781591819011683600,42.65568359375,0.9136534929275513,3.6378564834594727,-2.395312786102295
1781591819060196900,42.70419677734375,0.13084912300109863,5.180943489074707,-0.2183210253715515
1781591819108710100,42.752710205078124,0.2921939492225647,2.204953193664551,2.1647682189941406
1781591819157223200,42.80122314453125,-1.037879228591919,-2.723377227783203,2.368577480316162
1781591819254249700,42.898249755859375,-2.55064058303833,-8.063612937927246,-0.2218925952911377
1781591819302762800,42.9467626953125,-2.3271408081054688,0.08582782745361328,-0.43993520736694336
1781591819351276000,42.99527612304688,0.28956228494644165,-1.9176311492919922,-4.634007453918457
1781591819399789000,43.0437890625,1.0453863143920898,1.953725814819336,0.9458900094032288
1781591819448302300,43.09230224609375,-0.25278759002685547,3.5096521377563477,-1.1911922693252563
1781591819496815400,43.1408154296875,1.8188172578811646,1.820727825164795,-2.5605108737945557
1781591819545328400,43.189328369140625,0.8245599269866943,0.10732364654541016,-1.6199867725372314
1781591819593841700,43.23784155273437,1.5899595022201538,-0.042079925537109375,-1.4463380575180054
1781591819642355000,43.28635498046875,5.539493560791016,4.733843803405762,2.7622556686401367
1781591819690868200,43.3348681640625,2.66195011138916,-2.3987884521484375,7.115657806396484
1781591819739381200,43.38338134765625,-1.269171953201294,-3.3299779891967773,1.745254635810852
1781591819787894500,43.43189453125,-2.2341976165771484,4.650013446807861,-4.94690465927124
1781591819836407600,43.48040747070313,-4.951932430267334,-8.320786476135254,-3.876560926437378
1781591819884920800,43.5289208984375,-7.659392356872559,-9.951905250549316,5.862548351287842
1781591819933433900,43.577433837890624,0.5403745174407959,5.380156993865967,4.837964057922363
1781591819981947100,43.62594702148437,1.4620976448059082,3.523716449737549,-2.0101394653320312
1781591820030460200,43.67446020507813,-0.670372724533081,6.957127571105957,-2.1452014446258545
1781591820078973400,43.722973388671875,0.7134460806846619,5.379455089569092,-0.18134212493896484
1781591820127486700,43.77148681640625,-0.6129603981971741,-2.139310836791992,1.7714178562164307
1781591820175999700,43.81999975585938,0.4973105192184448,-4.547642707824707,-1.7432739734649658
1781591820273026000,43.917026123046874,-3.2393898963928223,-5.822644233703613,-2.250572681427002
1781591820321539300,43.96553930664062,-1.4642902612686157,-1.3522586822509766,-2.107862949371338
1781591820370052400,44.01405224609375,-0.28717100620269775,1.7783145904541016,-4.228605270385742
1781591820418565600,44.062565673828125,0.3484434485435486,2.144317626953125,0.015373602509498596
1781591820467078700,44.11107861328125,0.7389830350875854,3.185267925262451,-3.1704835891723633
1781591820515592000,44.15959204101563,2.6745142936706543,0.9901609420776367,0.0463031530380249
1781591820564105200,44.208105224609376,1.1198230981826782,-0.7508468627929688,0.8627956509590149
1781591820612618200,44.2566181640625,3.8207240104675293,1.7552270889282227,4.031562328338623
1781591820661131500,44.30513159179687,4.102542877197266,3.315520763397217,6.755364418029785
1781591820709644500,44.35364453125,-1.2601622343063354,-4.700178146362305,2.8848071098327637
1781591820806670800,44.4506708984375,0.04106829687952995,-2.1011600494384766,-5.008525371551514
1781591820855184100,44.49918408203125,-8.780577659606934,-13.087793350219727,5.215574264526367
1781591820903697200,44.547697265625,-0.8436213135719299,2.8011417388916016,3.829953670501709
1781591820952210400,44.59621044921875,0.026638388633728027,5.223881244659424,-1.1018340587615967
1781591821000723700,44.6447236328125,-0.5729420781135559,4.145033836364746,-1.00067937374115
1781591821049236700,44.69323681640625,-0.2405918389558792,3.1034860610961914,0.923648476600647
1781591821097750000,44.74175,-0.422792911529541,0.494598388671875,3.352428436279297
1781591821146263000,44.79026293945312,0.08570069074630737,-3.303835868835449,-0.18253326416015625
1781591821194776300,44.8387763671875,1.099326491355896,-3.0832338333129883,-1.9700508117675781
1781591821243289300,44.887289306640625,-1.8495248556137085,-6.245177268981934,-3.938016414642334
1781591821291802600,44.935802734375,-0.6912170648574829,-0.998835563659668,-1.0383597612380981
1781591821340315600,44.98431567382813,0.6368808746337891,1.2597084045410156,-3.9219465255737305
1781591821388829000,45.032828857421876,1.3882955312728882,2.6596431732177734,0.7213011980056763
1781591821437342000,45.081342041015624,1.8299517631530762,2.3087081909179688,-1.5386877059936523
1781591821485855200,45.12985522460937,1.7233411073684692,1.7468771934509277,-2.545747756958008
1781591821534368300,45.1783681640625,1.1527247428894043,-1.2336549758911133,-0.20948494970798492
1781591821582881500,45.226881591796875,2.6853551864624023,0.47910022735595703,2.304311990737915
1781591821631394600,45.27539453125,6.313984394073486,2.861170768737793,6.583733081817627
1781591821679907800,45.32390795898438,0.08615267276763916,-3.565593719482422,5.678747177124023
1781591821728420900,45.3724208984375,0.4394500255584717,-1.8183088302612305,-2.235030174255371
1781591821776934100,45.42093408203125,-1.0806856155395508,1.9562697410583496,-5.174805164337158
1781591821825447400,45.46944750976562,-10.60734748840332,-10.61259937286377,-2.7627406120300293
1781591821873960400,45.51796044921875,-0.91991126537323,0.6521434783935547,3.782011032104492
1781591821922473700,45.5664736328125,0.8200008869171143,4.758238792419434,2.928788185119629
1781591821970987000,45.61498706054687,1.0484297275543213,4.032129287719727,-0.898078978061676
1781591822019499800,45.66349975585938,0.8756453394889832,4.096439361572266,-1.362127423286438
1781591822068013300,45.71201342773438,1.7064650058746338,1.6050033569335938,-0.059379637241363525
1781591822116526300,45.7605263671875,-1.4232674837112427,-1.8386707305908203,0.4817420244216919
1781591822165039600,45.80903955078125,3.8498542308807373,-1.6084680557250977,-2.5930018424987793
1781591822213552600,45.857552734375,-2.981661796569824,-11.242161750793457,-2.3752806186676025
1781591822262066000,45.90606591796875,-0.5748032331466675,2.418274402618408,1.3995680809020996
1781591822310579000,45.95457885742187,0.6324324607849121,-2.0382003784179688,-2.2934353351593018
1781591822407605200,46.051605224609375,-1.3112661838531494,4.801548004150391,-5.028335094451904
1781591822456118500,46.10011840820312,2.274975299835205,3.6988110542297363,-2.1484363079071045
1781591822504631600,46.14863159179688,0.7410945892333984,-2.7039995193481445,-1.5607445240020752
1781591822553144800,46.197144775390626,4.883108615875244,-0.14793968200683594,3.4390599727630615
1781591822601658000,46.245658203125,3.482030153274536,2.9253039360046387,4.185513019561768
1781591822650171100,46.29417114257812,1.8728423118591309,-2.7703323364257812,3.790109157562256
1781591822698684400,46.34268432617188,-1.8271623849868774,-2.401121139526367,-0.5972753763198853
1781591822747197400,46.391197509765625,-1.3342037200927734,2.1517858505249023,-5.210556983947754
1781591822795710700,46.43971069335937,-5.916332721710205,-11.232975006103516,-2.515237331390381
1781591822844223700,46.4882236328125,-4.220283508300781,-1.0378618240356445,3.83735990524292
1781591822892737000,46.536737060546876,0.4881288707256317,4.52487325668335,4.5956926345825195
1781591822941250000,46.58525,0.793337345123291,5.993640899658203,0.3778054714202881
1781591822989763000,46.63376318359375,0.3009240925312042,4.271183490753174,0.4671461880207062
1781591823038276400,46.6822763671875,1.334327220916748,-0.12618541717529297,0.9225910305976868
1781591823086789600,46.73078955078125,-0.922092616558075,-2.729602813720703,-0.34044671058654785
1781591823135302700,46.779302734375,3.364762783050537,0.5091876983642578,-3.617936372756958
1781591823183816000,46.82781591796875,-3.6064577102661133,-8.936674118041992,-3.842031478881836
1781591823232329000,46.876328857421875,-1.9275119304656982,1.355447769165039,1.4050731658935547
1781591823280842200,46.92484228515625,-0.2563163638114929,0.5811977386474609,-2.3228402137756348
1781591823329355300,46.97335522460938,0.37320512533187866,-1.5730524063110352,-3.4300124645233154
1781591823377868500,47.02186865234375,-0.7462581396102905,4.211603164672852,-3.2179012298583984
1781591823426381600,47.070381591796874,2.759263038635254,2.6969542503356934,-1.572579026222229
1781591823474894800,47.11889477539062,1.42359459400177,-2.5192413330078125,0.2642403244972229
1781591823523408100,47.167408203125,0.889916181564331,0.6937236785888672,1.8392385244369507
1781591823571921200,47.215921142578125,5.5856733322143555,4.849696159362793,5.185975074768066
1781591823620434200,47.26443408203125,2.137338876724243,-2.8921422958374023,4.043353080749512
1781591823668947500,47.31294750976563,-1.223006248474121,-3.2740068435668945,1.3778626918792725
1781591823717460700,47.361460693359376,-3.6116464138031006,4.069064140319824,-4.330161094665527
1781591823765974000,47.40997412109375,-2.5928878784179688,-6.48876953125,-5.201421737670898
1781591823814487000,47.45848706054687,-7.756231784820557,-10.770272254943848,7.126440048217773
1781591823863000300,47.50700024414063,0.4814680814743042,5.329784393310547,5.1063032150268555
1781591823911513300,47.555513427734375,1.2830716371536255,4.022274017333984,-0.895131528377533
1781591824008539600,47.65253955078125,0.5710152387619019,3.6866793632507324,1.2855530977249146
1781591824057053000,47.70105297851563,0.5146818161010742,-1.1123123168945312,2.7596943378448486
1781591824105566000,47.74956591796875,0.690759539604187,-3.62137508392334,-1.9952858686447144
1781591824154079200,47.79807934570312,1.8512510061264038,-1.6641664505004883,0.8906024694442749
1781591824202592300,47.84659228515625,-3.4113268852233887,-6.553132057189941,-2.284165382385254
1781591824251105500,47.89510546875,-1.1659400463104248,-0.8180809020996094,-2.6475629806518555
1781591824299618600,47.94361865234375,-0.7310602068901062,0.4235095977783203,-3.9717283248901367
1781591824348131800,47.9921318359375,1.093112826347351,0.48638439178466797,0.42551979422569275
1781591824396644900,48.040644775390625,0.03159487247467041,3.8368115425109863,-2.870800495147705
1781591824445158100,48.089158203125,2.1586782932281494,2.2879676818847656,-0.25134843587875366
1781591824493671200,48.13767114257813,1.555922269821167,-1.7293224334716797,0.7544146776199341
1781591824542184400,48.186184326171876,1.3628668785095215,0.10622310638427734,0.4245097041130066
1781591824590697500,48.234697509765624,6.223208427429199,5.213423728942871,3.5104496479034424
1781591824639210800,48.28321069335937,1.883744478225708,-0.3558664321899414,7.038074970245361
1781591824687723800,48.33172387695313,-1.7356261014938354,-6.562772750854492,1.5882458686828613
1781591824736237000,48.380237060546875,-1.2801728248596191,3.431820869445801,-3.9808082580566406
1781591824784750000,48.42875,-4.159281253814697,-4.126255035400391,-4.36832857131958
1781591824833263400,48.47726342773438,-6.641271591186523,-10.58613109588623,5.018927097320557
1781591824881776400,48.5257763671875,-0.1512216329574585,6.191333293914795,3.2434439659118652
1781591824930289700,48.57428955078125,1.1492834091186523,3.5641627311706543,-1.96681547164917
1781591824978802700,48.622802734375,-0.5802612900733948,4.444524765014648,-0.32021766901016235
1781591825027316000,48.67131591796875,0.7106775045394897,3.4941749572753906,2.0669379234313965
1781591825075829000,48.7198291015625,0.29751497507095337,-0.6184368133544922,3.871445655822754
1781591825124342300,48.76834228515625,1.2963190078735352,-4.21562385559082,-3.8226826190948486
1781591825172855300,48.81685522460938,-0.3731847107410431,-7.516385078430176,-4.062807083129883
1781591825221368600,48.86536865234375,-2.091776132583618,0.6292343139648438,0.6669670343399048
1781591825269881900,48.9138818359375,-0.24698364734649658,-2.673874855041504,-0.22769129276275635
1781591825318395000,48.96239477539063,1.0472854375839233,0.5765304565429688,-4.127842426300049
1781591825366908200,49.010908203125,0.4888688325881958,2.882343292236328,0.15452353656291962
1781591825415421200,49.059421142578124,1.5732018947601318,3.6825733184814453,-2.162044048309326
1781591825512447500,49.15644750976563,0.6993846893310547,-2.094999313354492,0.7786000967025757
1781591825560960800,49.204960693359375,4.904163837432861,3.569094657897949,2.1144626140594482
1781591825609473800,49.25347387695312,4.772571563720703,3.014160633087158,5.445489883422852
1781591825657987000,49.30198706054688,-0.1576296091079712,-6.534334182739258,2.4580607414245605
1781591825706500000,49.3505,-2.6549692153930664,1.2248640060424805,-2.3572750091552734
1781591825755013400,49.399013427734374,-1.6088745594024658,2.902095317840576,-5.520854949951172
1781591825803526400,49.4475263671875,-8.587176322937012,-16.545211791992188,0.04334133863449097
1781591825852039400,49.496039306640625,-1.6766892671585083,-0.3407583236694336,6.519328594207764
1781591825900552700,49.544552734375,1.0397814512252808,6.5521392822265625,2.2876365184783936
1781591825949066000,49.59306591796875,0.3391401767730713,5.678280353546143,-2.615241527557373
1781591825997579000,49.6415791015625,0.5155326128005981,4.3934645652771,-0.7003886699676514
1781591826046092300,49.69009228515625,1.4213402271270752,0.7412242889404297,0.3493252992630005
1781591826094605300,49.73860522460937,0.18184363842010498,-3.620480537414551,0.257543683052063
1781591826143118300,49.78711840820313,2.2306034564971924,-1.7812185287475586,-2.5710580348968506
1781591826191631600,49.835631591796876,-3.6847143173217773,-7.592909812927246,-1.481609582901001
1781591826240144600,49.88414453125,-1.5788154602050781,-0.1158456802368164,0.2346268892288208
1781591826288658000,49.93265795898437,0.08970874547958374,-0.1957416534423828,-5.159456253051758
1781591826337171000,49.9811708984375,1.2899904251098633,2.444281578063965,0.7692005038261414
1781591826385684200,50.029684326171875,0.8450401425361633,4.175937175750732,-2.530974864959717
1781591826434197200,50.078197265625,2.1507487297058105,0.60687255859375,-1.2384986877441406
1781591826482710500,50.12671044921875,1.253137230873108,-0.9398393630981445,1.8105907440185547
1781591826531223600,50.1752236328125,1.4315481185913086,0.5886068344116211,1.8002867698669434
1781591826579736600,50.22373657226562,6.102852821350098,4.128787994384766,3.42024827003479
1781591826628249900,50.27224975585938,2.7798924446105957,-2.8711013793945312,4.462032318115234
1781591826676763000,50.320762939453125,-2.680511713027954,-1.2083158493041992,1.7203322649002075
1781591826725276200,50.36927612304687,-2.4529972076416016,2.779114246368408,-4.733416557312012
1781591826773789200,50.4177890625,-5.386289596557617,-11.665365219116211,-5.29362678527832
1781591826822302500,50.466302490234376,-6.760916233062744,-6.835948944091797,6.457622528076172
1781591826870815500,50.5148154296875,0.028410255908966064,7.199697494506836,4.391775131225586
1781591826919328800,50.56332885742187,1.9450457096099854,4.079326152801514,-2.5456933975219727
1781591826967841800,50.611841796875,-0.6353847980499268,5.660144805908203,-0.03456723690032959
1781591827016355000,50.66035498046875,0.8255575895309448,2.603091239929199,1.4891273975372314
1781591827113381400,50.75738134765625,3.2850427627563477,-2.191685676574707,-3.967571258544922
1781591827161894400,50.805894287109375,-1.233040690422058,-3.377657890319824,1.950241208076477
1781591827210407700,50.85440771484375,-3.1341443061828613,-6.496997833251953,-4.061183452606201
1781591827258920700,50.90292065429688,-1.0071755647659302,2.736942768096924,-1.9952943325042725
1781591827307434000,50.95143408203125,-0.388579785823822,-0.13359546661376953,-2.655113935470581
1781591827355947000,50.999947021484374,1.0908876657485962,1.725149154663086,0.4496050775051117
1781591827404460300,51.04846020507812,1.0347542762756348,3.583371639251709,-3.070768356323242
1781591827452973300,51.09697338867188,2.1529057025909424,-1.132948875427246,-0.8987269997596741
1781591827501486300,51.145486328125,1.7966105937957764,-0.09845447540283203,1.606276512145996
1781591827549999600,51.19399951171875,3.521712064743042,3.761918067932129,3.9639456272125244
1781591827598512600,51.2425126953125,4.768511772155762,1.0482511520385742,4.367802619934082
1781591827647025700,51.291025634765624,-1.9866005182266235,-4.973381996154785,3.1760377883911133
1781591827695539000,51.3395390625,-2.1598997116088867,1.0426626205444336,-3.4190592765808105
1781591827744051700,51.3880517578125,-1.8566521406173706,-0.10822105407714844,-4.8927483558654785
1781591827792565200,51.436565185546876,-8.23768424987793,-14.405550956726074,3.9811747074127197
1781591827841078300,51.48507836914062,-0.4746097922325134,3.946068286895752,4.5105085372924805
1781591827889591300,51.53359130859375,1.2188345193862915,5.379016399383545,-0.23923802375793457
1781591827938104300,51.582104248046875,0.22974151372909546,5.789326190948486,-1.729775071144104
1781591827986617600,51.63061767578125,0.3230276107788086,4.171802043914795,0.7338014245033264
1781591828035130600,51.67913061523438,0.4152972102165222,-1.7238569259643555,3.2646138668060303
1781591828083644000,51.727643798828126,0.5502668023109436,-3.7856884002685547,0.36575180292129517
1781591828132157000,51.776156982421874,-0.15724816918373108,-4.695549964904785,-3.262232542037964
1781591828180670000,51.824669921875,-2.385345220565796,-3.4626283645629883,-2.9384093284606934
1781591828229183200,51.87318334960938,-0.511902928352356,-0.6102056503295898,0.4871513843536377
1781591828277696300,51.9216962890625,0.6064995527267456,0.9159154891967773,-3.8371200561523438
1781591828326209500,51.97020947265625,1.1180496215820312,1.831613540649414,0.9590225219726562
1781591828374722300,52.018722412109376,0.734312117099762,3.1832828521728516,-3.754570722579956
1781591828423235600,52.067235595703124,1.7935206890106201,1.020705223083496,-0.862443745136261
1781591828471748900,52.11574877929687,1.643194556236267,-0.80999755859375,1.5332648754119873
1781591828520262000,52.16426196289063,2.494518756866455,1.1729373931884766,1.4902119636535645
1781591828568775000,52.21277490234375,5.259145736694336,3.5377893447875977,3.342365264892578
1781591828617288200,52.2612880859375,2.348111391067505,-4.735382080078125,4.352137565612793
1781591828714314200,52.358314208984375,-2.1602578163146973,5.101287841796875,-3.9259400367736816
1781591828762827500,52.40682763671875,-5.492447376251221,-13.791945457458496,-3.207099199295044
1781591828811340500,52.45534057617188,-5.016968250274658,-3.7058486938476562,5.137048721313477
1781591828859853600,52.503853515625,1.3147238492965698,6.2495527267456055,3.740563154220581
1781591828908366800,52.552366943359374,0.9603560566902161,4.141749382019043,-2.1458740234375
1781591828956880000,52.6008798828125,-0.32150137424468994,4.680520057678223,-1.3669466972351074
1781591829005393000,52.649392822265625,1.315047025680542,1.1849956512451172,0.6102849245071411
1781591829053906200,52.69790625,-0.40533867478370667,-2.376882553100586,1.8928096294403076
1781591829102419500,52.74641943359375,3.6942009925842285,-0.7479524612426758,-2.951700210571289
1781591829150932500,52.794932373046876,-2.951439142227173,-9.970063209533691,-1.2561358213424683
1781591829199445500,52.843445556640624,-1.99485445022583,1.7210874557495117,0.0524827241897583
1781591829247958800,52.89195874023437,-0.37383800745010376,0.12391185760498047,-2.529867649078369
1781591829296471800,52.94047192382813,1.3577171564102173,-0.6323328018188477,-1.5560879707336426
1781591829344984800,52.98898486328125,0.26372528076171875,3.4155349731445312,-0.9809656143188477
1781591829393498000,53.037498046875,1.9849945306777954,2.44258975982666,-2.8567190170288086
1781591829442011100,53.08601123046875,1.1749781370162964,0.0483551025390625,-0.6206308007240295
1781591829490524200,53.134524169921875,1.2107937335968018,-0.6728229522705078,1.2260890007019043
1781591829539037400,53.18303735351562,5.423891067504883,3.666862964630127,4.600159168243408
1781591829587550500,53.23155053710938,2.8831868171691895,-1.24359130859375,4.929086685180664
1781591829636063200,53.280063232421874,-0.31156909465789795,-3.871492385864258,1.7040719985961914
1781591829684576500,53.32857641601562,-2.226642370223999,4.823408126831055,-3.585437297821045
1781591829733089800,53.37708984375,-1.4199713468551636,-2.291317939758301,-5.499941825866699
1781591829781602800,53.425602783203125,-8.946273803710938,-14.459243774414062,3.406813383102417
1781591829830115800,53.47411572265625,-0.7185513377189636,2.2737560272216797,3.7933509349823
1781591829878629000,53.52262915039063,1.5064351558685303,5.198991775512695,1.0435185432434082
1781591829927142000,53.571141845703124,0.008805453777313232,5.986961841583252,-1.7889951467514038
1781591829975655200,53.6196552734375,0.20050451159477234,4.1223883628845215,-0.28585085272789
1781591830024168200,53.66816821289063,0.35500937700271606,-0.9287443161010742,2.70024037361145
1781591830072681500,53.716681396484375,-0.15341868996620178,-3.977053642272949,0.13650143146514893
1781591830121194500,53.76519458007812,3.8005573749542236,0.2683563232421875,-0.03289663791656494
1781591830169707500,53.81370751953125,-4.557608127593994,-9.781597137451172,-3.067490816116333
1781591830218220800,53.862220703125,0.13801151514053345,1.215102195739746,-1.502313256263733
1781591830315246800,53.95924682617188,1.058684229850769,0.48329734802246094,-1.0533645153045654
1781591830363759900,54.007759765625,0.9391628503799438,3.293734550476074,-1.9980547428131104
1781591830412273200,54.056273193359374,1.858607530593872,1.7562971115112305,-1.3048410415649414
1781591830460786200,54.1047861328125,1.5543605089187622,-1.3610267639160156,1.2278677225112915
1781591830509299200,54.15329931640625,0.7967787981033325,-0.31914424896240234,2.1526682376861572
1781591830557812200,54.20181225585937,5.453062057495117,4.193694114685059,2.304305076599121
1781591830606325200,54.2503251953125,3.74094557762146,-2.3459901809692383,3.648664712905884
1781591830654838500,54.298838623046876,-1.0036629438400269,-3.1957521438598633,1.0591527223587036
1781591830703351600,54.3473515625,-2.6481924057006836,5.228011131286621,-2.585857391357422
1781591830751864600,54.39586450195313,-3.399207592010498,-4.37021541595459,-5.115873336791992
1781591830800377600,54.444377685546876,-7.306938171386719,-13.075581550598145,4.192991256713867
1781591830848891000,54.49289086914062,-0.2535250186920166,4.612857341766357,4.849764347076416
1781591830897404000,54.54140380859375,1.634781837463379,4.333545684814453,-1.0552235841751099
1781591830945917000,54.5899169921875,-0.5889183282852173,5.320827484130859,-1.6850619316101074
1781591830994430000,54.63842993164062,0.6233869194984436,3.4697608947753906,0.6768999695777893
1781591831042943200,54.68694311523438,0.7143895030021667,-0.41684818267822266,2.7860450744628906
1781591831091456300,54.735456298828126,0.20563119649887085,-4.351573944091797,-0.6030435562133789
1781591831139969300,54.78396923828125,3.272575855255127,-1.8542556762695312,-0.4204466938972473
1781591831188482300,54.832482421875,-4.406406879425049,-6.956364631652832,-1.6452982425689697
1781591831236995600,54.88099560546875,-0.5410206317901611,2.2084197998046875,-0.8321897387504578
1781591831285508600,54.92950854492187,0.0525241494178772,-0.6644315719604492,-3.078455686569214
1781591831334022000,54.97802197265625,0.7629014849662781,0.9154729843139648,0.23265112936496735
1781591831382535000,55.026534912109376,1.1053658723831177,4.166893482208252,-3.1647489070892334
1781591831431048000,55.0750478515625,1.8712629079818726,0.8816928863525391,-0.8404456973075867
1781591831479560700,55.12356079101563,1.1493908166885376,-0.760197639465332,1.0339583158493042
1781591831528074000,55.172073974609376,1.528218388557434,0.4882669448852539,2.137695789337158
1781591831576587000,55.2205869140625,6.361982822418213,3.803524971008301,4.571846008300781
1781591831625100300,55.26910034179687,1.108858346939087,-3.048158645629883,3.343808174133301
1781591831673613300,55.31761328125,-1.8226131200790405,-1.6156797409057617,-0.5984651446342468
1781591831722126300,55.36612622070312,-1.4860587120056152,4.115944862365723,-4.306077480316162
1781591831819152400,55.46315234375,-6.256228446960449,-5.054409027099609,5.046045780181885
1781591831867665400,55.51166552734375,0.7110101580619812,5.948229789733887,4.042201519012451
1781591831916178700,55.5601787109375,1.089830994606018,4.214911460876465,-1.97334885597229
1781591831964691700,55.608691650390625,-0.09034731984138489,5.479169845581055,-0.7214145660400391
1781591832013204700,55.65720483398437,0.8299509882926941,3.088550567626953,1.403635859489441
1781591832061717800,55.7057177734375,-0.5374184846878052,-3.410283088684082,2.9579319953918457
1781591832110230800,55.754230712890624,2.8291335105895996,-2.0343313217163086,-3.0938687324523926
1781591832158743800,55.80274389648437,-0.4655114412307739,-4.516521453857422,1.4111442565917969
1781591832207257000,55.85125708007813,-2.9015250205993652,-3.817074775695801,-3.3398361206054688
1781591832255770000,55.89977001953125,-0.06338703632354736,1.227829933166504,-1.2240869998931885
1781591832304283100,55.948283203125,0.15019172430038452,-0.2321615219116211,-3.116926670074463
1781591832352796200,55.99679614257813,0.8450719714164734,1.936997413635254,-0.5058342218399048
1781591832401309200,56.04530908203125,1.4179253578186035,3.320270538330078,-2.5762381553649902
1781591832449822200,56.093822265625,2.2056455612182617,-0.5061740875244141,-0.42832106351852417
1781591832498335200,56.142335205078126,1.6980968713760376,-0.9278240203857422,2.3552799224853516
1781591832546848300,56.19084814453125,3.3133907318115234,2.9798803329467773,2.8500747680664062
1781591832595361500,56.23936157226562,5.036815643310547,2.5277018547058105,5.210364818572998
1781591832643874600,56.28787451171875,0.6294130086898804,-4.648041725158691,3.114813804626465
1781591832692387600,56.3363876953125,-2.2028238773345947,2.4512481689453125,-2.6603574752807617
1781591832740900600,56.38490063476563,-2.2796945571899414,-1.1749067306518555,-5.424131870269775
1781591832789413600,56.43341357421875,-9.933305740356445,-13.977968215942383,0.4059985876083374
1781591832837926700,56.4819267578125,-1.229604959487915,-0.5684022903442383,3.9006593227386475
1781591832886439700,56.53043969726563,0.9117739200592041,6.044588088989258,1.9602017402648926
1781591832934952700,56.57895263671875,0.23209524154663086,6.253421783447266,-2.086306095123291
1781591832983465700,56.6274658203125,0.2637113928794861,5.180533409118652,0.3215603828430176
1781591833031979000,56.67597900390625,0.7451688647270203,0.004794120788574219,2.438974618911743
1781591833080492000,56.724491943359375,-0.9785653948783875,-4.621916770935059,1.0885809659957886
1781591833129005000,56.77300512695312,4.077732086181641,-0.35225391387939453,-1.6261965036392212
1781591833177518000,56.82151806640625,-2.5702288150787354,-7.487174034118652,-1.1538338661193848
1781591833226031000,56.870031005859374,-1.6257426738739014,-0.7803239822387695,-2.5547382831573486
1781591833274544000,56.91854418945312,0.2700839638710022,1.72576904296875,-2.3956198692321777
1781591833323057200,56.96705712890625,1.2236169576644897,1.1531314849853516,3.07029390335083
1781591833420083500,57.06408349609375,1.3104438781738281,4.0157365798950195,-3.104353666305542
1781591833468596500,57.11259643554688,2.602491617202759,0.21128463745117188,0.04427546262741089
1781591833517109500,57.161109619140625,1.4223310947418213,-1.9803895950317383,2.255145311355591
1781591833565622500,57.20962255859375,5.338055610656738,3.6321873664855957,5.219676494598389
1781591833614135600,57.258135498046876,3.7970845699310303,-0.3632164001464844,4.468146324157715
1781591833662648600,57.306648681640624,-0.5135856866836548,-2.9887094497680664,0.9158787131309509
1781591833711161600,57.35516162109375,-2.2982048988342285,4.232497215270996,-3.33369779586792
1781591833759674600,57.403674560546875,-2.5786659717559814,-8.251337051391602,-4.825982093811035
1781591833808187600,57.45218774414062,-9.169023513793945,-9.28066635131836,2.194725513458252
1781591833856700700,57.50070068359375,0.1405753493309021,3.6641225814819336,4.5034894943237305
1781591833905213700,57.549213623046874,0.8927021026611328,5.2742919921875,0.03632098436355591
1781591833953726700,57.59772680664062,-0.00846812129020691,5.838077545166016,-0.8963524699211121
1781591834002240000,57.64623999023438,0.7635341882705688,2.49959135055542,0.2729426622390747
1781591834050752800,57.694752685546874,-0.10005855560302734,-1.943380355834961,2.9357595443725586
1781591834099265800,57.74326586914062,2.1738743782043457,-2.1394338607788086,-2.2180240154266357
1781591834147779000,57.79177905273438,0.4536905586719513,-2.6457862854003906,0.36883580684661865
1781591834196292000,57.8402919921875,-3.2671639919281006,-6.953180313110352,-3.570185661315918
1781591834244805000,57.88880517578125,-0.05439302325248718,0.9202480316162109,-1.8083728551864624
1781591834293318100,57.937318115234376,0.6385969519615173,-0.26503658294677734,-2.735713243484497
1781591834341831000,57.98583081054687,0.9700303077697754,2.1874146461486816,2.7177906036376953
1781591834390344200,58.03434423828125,0.39591479301452637,3.1060080528259277,-4.190587520599365
1781591834438857200,58.082857177734375,2.161890983581543,0.9754304885864258,-0.6659001708030701
1781591834487370200,58.13137036132812,2.1042702198028564,-1.069746971130371,2.233769178390503
1781591834535883300,58.17988330078125,2.2676336765289307,2.1102066040039062,1.6375937461853027
1781591834584396300,58.228396240234375,4.9925007820129395,3.9852490425109863,3.019662857055664
1781591834632909300,58.27690942382812,1.649717092514038,-5.00825309753418,3.790926456451416
1781591834681422000,58.325422119140626,-2.472939968109131,2.0979628562927246,-0.9992071390151978
1781591834729935400,58.373935302734374,-0.19228285551071167,-0.11893463134765625,-4.86815881729126
1781591834778448400,58.42244848632812,-9.967052459716797,-13.278302192687988,-0.6738461256027222
1781591834826961400,58.47096142578125,-1.6011704206466675,-2.8549346923828125,4.510334491729736
1781591834875474400,58.51947436523437,0.8260551691055298,5.404555797576904,2.0359413623809814
1781591834923987500,58.56798754882813,0.28992241621017456,5.145890712738037,-2.7306406497955322
1781591835021013200,58.66501318359375,1.07902991771698,1.4009437561035156,1.8471784591674805
1781591835069526300,58.7135263671875,-0.3008415699005127,-2.6071853637695312,1.9274933338165283
1781591835118039300,58.762039306640624,4.2486491203308105,-0.6980094909667969,-3.515289783477783
1781591835166552300,58.81055224609375,-3.66409969329834,-9.801033973693848,-2.510044574737549
1781591835215065300,58.8590654296875,-1.382537841796875,1.884725570678711,1.1636912822723389
1781591835263578400,58.90757836914062,0.4336819648742676,-0.9233322143554688,-2.9899699687957764
1781591835312091400,58.95609130859375,1.4677791595458984,-0.4120197296142578,-0.36700934171676636
1781591835360604400,59.0046044921875,0.17979049682617188,4.571957111358643,-2.4128684997558594
1781591835409117400,59.05311743164062,2.0900354385375977,1.614262580871582,-2.571472406387329
1781591835457630500,59.10163037109375,1.674411416053772,-1.3017454147338867,-0.2603883147239685
1781591835506143500,59.1501435546875,2.371950626373291,0.8656492233276367,1.1459007263183594
1781591835554656500,59.19865649414062,6.232420921325684,5.164730072021484,5.024155139923096
1781591835603169500,59.24716943359375,3.0315723419189453,-3.2055492401123047,4.699474811553955
1781591835651682600,59.2956826171875,-2.163975715637207,-1.796422004699707,0.16760015487670898
1781591835700195600,59.34419555664063,-1.3825831413269043,3.230815887451172,-3.7461395263671875
1781591835748708600,59.39270849609375,-6.796084880828857,-7.84532356262207,-5.293975830078125
1781591835845734700,59.48973461914063,0.8485230803489685,6.077994346618652,5.166787624359131
1781591835894247700,59.53824755859375,1.7749874591827393,3.627399444580078,-1.3755426406860352
1781591835942760700,59.5867607421875,0.061884522438049316,5.041830539703369,-0.8317670822143555
1781591835991273700,59.635273681640626,0.9784414768218994,2.721395969390869,0.9934142827987671
1781591836039786800,59.683786865234374,-0.2706114947795868,-2.0132761001586914,3.04764723777771
1781591836088299800,59.7322998046875,1.3656831979751587,-3.030259132385254,-3.954094409942627
1781591836136812500,59.7808125,-0.9774149656295776,-8.272688865661621,-3.984685182571411
1781591836185325600,59.82932568359375,-2.674600601196289,2.2631049156188965,2.4701242446899414
1781591836233838600,59.87783862304688,0.27346885204315186,-4.413291931152344,-2.9742021560668945
1781591836282351900,59.926351806640625,1.1827597618103027,2.6955060958862305,-1.5109150409698486
1781591836330865000,59.97486499023437,0.7871348857879639,3.0653905868530273,-0.07048690319061279
1781591836379378000,60.0233779296875,1.6310524940490723,1.7003135681152344,-2.6660804748535156
1781591836427890700,60.071890625,1.861541986465454,1.5366525650024414,0.2055256962776184
1781591836476403700,60.12040380859375,1.2517927885055542,-0.7204103469848633,0.9219378232955933
1781591836573429800,60.2174296875,5.94273567199707,2.9331607818603516,5.245732307434082
1781591836621942800,60.26594287109375,1.1075084209442139,-4.977230072021484,3.780477523803711
1781591836670455800,60.314455810546875,-2.923630714416504,2.028428077697754,-1.897296667098999
1781591836718968800,60.36296875,-2.407320499420166,2.1126456260681152,-6.428217887878418
1781591836767481900,60.41148193359375,-8.189827919006348,-14.672489166259766,-0.717107892036438
1781591836815995000,60.459994873046874,-3.4299817085266113,-4.119597434997559,6.1433491706848145
1781591836864508000,60.5085078125,1.210028886795044,6.641979694366455,2.4155542850494385
1781591836913020700,60.557020751953125,0.1396951675415039,4.194584846496582,-2.8199303150177
1781591836961533700,60.60553369140625,0.21680742502212524,5.537547588348389,0.3979318141937256
1781591837010046700,60.654046630859376,1.060745120048523,1.631300926208496,1.8169910907745361
1781591837058559700,60.702559814453124,0.7094204425811768,-3.1227664947509766,1.3055925369262695
1781591837107072800,60.75107275390625,4.39570426940918,0.2031240463256836,-0.8863354921340942
1781591837155585800,60.799585693359376,-3.8453457355499268,-9.523575782775879,0.30592405796051025
1781591837204098800,60.848098876953124,-2.0274949073791504,0.1533975601196289,-2.5702664852142334
1781591837252611600,60.89661157226563,-0.3605627417564392,0.009682655334472656,-3.3483219146728516
1781591837301124600,60.94512451171875,0.8095247149467468,-0.44175052642822266,-0.9814308881759644
1781591837349637600,60.9936376953125,1.075195074081421,4.801079750061035,0.08651888370513916
1781591837398150700,61.042150634765626,1.9101309776306152,1.6808667182922363,-2.2560648918151855
1781591837446663700,61.09066357421875,0.9579542875289917,-1.0708818435668945,-1.0767476558685303
1781591837495176700,61.1391767578125,2.774026393890381,0.673497200012207,2.1491446495056152
1781591837543689500,61.187689453125,6.361353874206543,5.24904727935791,5.860647678375244
1781591837592202500,61.23620239257812,1.9040592908859253,-3.7031021118164062,4.816766262054443
1781591837640715500,61.28471557617188,-1.9156153202056885,-0.8084268569946289,-0.2780083417892456
1781591837689228500,61.333228515625,-1.6897046566009521,2.8561911582946777,-5.962481498718262
1781591837737741600,61.38174145507813,-4.4927592277526855,-10.579307556152344,-4.700557231903076
1781591837786254300,61.43025439453125,-7.796308994293213,-9.052947998046875,8.56897258758545
1781591837834767400,61.47876733398437,2.2545855045318604,6.979219436645508,2.5217394828796387
1781591837883280400,61.5272802734375,-0.297227680683136,3.8027091026306152,-4.684440612792969
1781591837931793400,61.57579345703125,-1.3887237310409546,3.867436408996582,-0.5127831697463989
1781591837980306400,61.62430639648438,0.6506878137588501,1.0624427795410156,2.4443604946136475
1781591838028819500,61.6728193359375,0.7624959945678711,-0.4086761474609375,4.120361804962158
1781591838077332500,61.72133251953125,1.0936863422393799,-0.5995311737060547,-1.2372000217437744
1781591838174358300,61.818358154296874,-2.787245035171509,-4.839789390563965,-2.38022518157959
1781591838222871300,61.86687133789062,-1.0761663913726807,-0.28238487243652344,-1.9425857067108154
1781591838271384300,61.91538427734375,0.6918132305145264,0.11983776092529297,-2.8223190307617188
1781591838319897300,61.9638974609375,1.0507564544677734,0.6602649688720703,1.3889918327331543
1781591838368410000,62.01241015625,1.1662554740905762,3.3366756439208984,-2.4661850929260254
1781591838416923100,62.060923095703124,1.9486384391784668,1.878098964691162,-0.5065250396728516
1781591838465436200,62.10943627929687,1.7221660614013672,-0.6617059707641602,0.12284964323043823
1781591838513949200,62.15794921875,1.39512038230896,0.7944021224975586,0.20191174745559692
1781591838562462200,62.206462158203124,6.462069511413574,3.698391914367676,2.4533510208129883
1781591838610975200,62.25497534179687,2.3255646228790283,-3.8816165924072266,5.411518096923828
1781591838659488000,62.303488037109375,-1.1129100322723389,-2.2602643966674805,1.4399592876434326
