time,seconds_elapsed,z,y,x
1781591776526363400,0.17036328125,-1.162322998046875,-0.23388485610485077,-0.7829759120941162
1781591776574876000,0.2188759765625,-0.4897608458995819,0.07971785217523575,-0.8116865754127502
1781591776623388400,0.267388427734375,-0.13843722641468048,0.01954767294228077,-0.2942841053009033
1781591776671901000,0.31590087890625,0.41729700565338135,-0.2767217457294464,0.3895026445388794
1781591776720413400,0.364413330078125,0.5855902433395386,-0.03550651669502258,0.4608974754810333
1781591776768926000,0.412926025390625,0.06017018109560013,-0.4084394574165344,0.2672533392906189
1781591776817438700,0.461438720703125,0.23594652116298676,-1.1204023361206055,1.3781108856201172
1781591776865951200,0.509951171875,0.5154171586036682,-0.779692530632019,0.9834923148155212
1781591776914463700,0.558463623046875,-0.3481929302215576,0.09941824525594711,-0.7739656567573547
1781591776962976300,0.606976318359375,-0.6928733587265015,-0.03023780696094036,-0.7073814272880554
1781591777011488800,0.65548876953125,-0.9039271473884583,-1.0455714464187622,-0.93729567527771
1781591777060001300,0.704001220703125,-1.196073293685913,-0.37667450308799744,-1.1332305669784546
1781591777108515600,0.752515625,-0.81810063123703,-0.7760273218154907,-1.0122029781341553
1781591777157026600,0.801026611328125,-0.8850666880607605,-0.9805143475532532,-1.116126298904419
1781591777205539000,0.8495390625,-0.6911935210227966,0.061850059777498245,-0.7058542370796204
1781591777254051600,0.898051513671875,-0.8894191384315491,-0.3257436454296112,-0.7914516925811768
1781591777302564000,0.946564208984375,-0.45998117327690125,0.07651081681251526,-0.4635699987411499
1781591777351076600,0.99507666015625,-0.1893680840730667,-0.8522327542304993,-0.33460119366645813
1781591777399589400,1.04358935546875,0.0027488914784044027,0.07910698652267456,-0.15210533142089844
1781591777448102000,1.092101806640625,0.41554075479507446,0.8860593438148499,-0.1565341055393219
1781591777496614400,1.140614501953125,-0.0021380267571657896,-0.3039052188396454,0.2611446976661682
1781591777545127000,1.189126953125,0.038789913058280945,0.4251618981361389,-0.03329212963581085
1781591777593639700,1.2376396484375,0.16615521907806396,-0.25793763995170593,-0.09231694042682648
1781591777642152200,1.286152099609375,-0.16943861544132233,0.1804341822862625,-0.12286017835140228
1781591777690664700,1.334664794921875,-0.07750347256660461,0.45875945687294006,-0.20647229254245758
1781591777739177200,1.38317724609375,0.0501672700047493,-0.1660788655281067,-0.29672756791114807
1781591777787690000,1.43168994140625,0.22174391150474548,-0.1605810821056366,0.2897026240825653
1781591777836202500,1.480202392578125,0.3139844834804535,-0.8890373110771179,0.593684196472168
1781591777884715000,1.528715087890625,0.17165300250053406,0.16187916696071625,-0.24037529528141022
1781591777933227800,1.577227783203125,-0.2574795186519623,-0.030925029888749123,0.32612544298171997
1781591777981740300,1.625740234375,-0.20616686344146729,-0.2981020212173462,-0.11911863088607788
1781591778030252800,1.674252685546875,0.01107192412018776,0.6548470258712769,-0.9062178730964661
1781591778078765600,1.722765625,-0.07864884287118912,-0.4897608458995819,0.14928008615970612
1781591778127278000,1.771278076171875,-0.1870773434638977,-0.4248564541339874,0.2632827162742615
1781591778175790600,1.81979052734375,-0.26167920231819153,0.10323614627122879,-0.26794055104255676
1781591778224303400,1.868303466796875,-0.45685049891471863,-0.3891972303390503,-0.27404922246932983
1781591778272815900,1.91681591796875,-0.3536907136440277,0.08826996386051178,-0.053756099194288254
1781591778321328600,1.96532861328125,-0.1764635592699051,-0.3113883137702942,-0.033826638013124466
1781591778369841200,2.013841064453125,-0.16554436087608337,-0.06666062027215958,0.09460768103599548
1781591778418353700,2.062353759765625,-0.032070402055978775,-0.1931859850883484,0.13660463690757751
1781591778466866400,2.110866455078125,0.34490951895713806,-0.21311545372009277,0.20708316564559937
1781591778515379000,2.15937890625,0.4205803871154785,0.14408773183822632,0.1594357043504715
1781591778563891700,2.2078916015625,0.28580835461616516,-0.29153522849082947,0.009010255336761475
1781591778612404200,2.256404296875,0.028787001967430115,0.24892739951610565,-0.31612253189086914
1781591778660916700,2.304916748046875,0.18226677179336548,0.14408773183822632,-0.04940368980169296
1781591778709429500,2.353429443359375,0.282524973154068,-0.40569058060646057,-0.03023780696094036
1781591778757942300,2.4019423828125,0.11484257876873016,0.32337653636932373,-0.32475098967552185
1781591778806454800,2.450454833984375,0.10170898586511612,0.4082103967666626,-0.1591302752494812
1781591778854967300,2.49896728515625,0.17776164412498474,0.7936660647392273,0.08483384549617767
1781591778903480000,2.54747998046875,0.1816559135913849,0.9522618055343628,0.17226386070251465
1781591778951992600,2.59599267578125,0.10354158282279968,1.6295582056045532,-0.1966221034526825
1781591779000505300,2.64450537109375,0.617660641670227,2.9248969554901123,-0.7571669220924377
1781591779049018000,2.69301806640625,1.5182280540466309,2.280052900314331,-1.5528945922851562
1781591779097530600,2.741530517578125,1.1590396165847778,1.310381293296814,0.25870123505592346
1781591779146043100,2.790043212890625,-0.7895427346229553,0.6094903349876404,1.5143338441848755
1781591779194556000,2.838555908203125,-1.4950915575027466,1.548084020614624,-0.5935314893722534
1781591779243068400,2.887068359375,-0.48533207178115845,0.44318240880966187,-0.9260709881782532
1781591779291581200,2.935581298828125,-0.28412848711013794,-2.763552188873291,0.47693267464637756
1781591779340094000,2.984093994140625,-0.5409207344055176,-2.8828237056732178,0.6466767191886902
1781591779388606500,3.0326064453125,-0.8737657070159912,-2.186208724975586,0.40492698550224304
1781591779437119200,3.081119140625,0.006414080038666725,-0.8090140223503113,-0.6012436747550964
1781591779485631700,3.1296318359375,-0.022983787581324577,-2.703611135482788,-0.33803731203079224
1781591779534144500,3.17814453125,-0.49457138776779175,-3.4563493728637695,-0.811610221862793
1781591779582657300,3.2266572265625,-0.4704422354698181,-4.946553707122803,-1.704618215560913
1781591779631169800,3.275169677734375,0.7867938280105591,-5.944324970245361,-3.201007843017578
1781591779679682600,3.3236826171875,1.6964478492736816,-4.913108825683594,-5.502135276794434
1781591779728195000,3.372195068359375,2.9486443996429443,-5.722657680511475,-4.005669593811035
1781591779776707800,3.420707763671875,4.42510461807251,-2.2049927711486816,-4.287354469299316
1781591779825220600,3.469220703125,3.849669933319092,-1.8915427923202515,-2.087477684020996
1781591779873733400,3.5177333984375,4.571788311004639,-1.0134246349334717,-0.15645773708820343
1781591779922246000,3.566245849609375,3.682292938232422,1.3833032846450806,-0.08483384549617767
1781591779970758700,3.614758544921875,1.4480549097061157,1.3445134162902832,-1.7587560415267944
1781591780019271400,3.663271484375,-0.17913609743118286,1.1144464015960693,-1.9462915658950806
1781591780067784000,3.711783935546875,0.189444437623024,0.4477638900279999,-0.8809433579444885
1781591780116296700,3.760296630859375,1.1901936531066895,0.17623448371887207,-0.21930044889450073
1781591780164809500,3.8088095703125,2.80715274810791,0.7086794972419739,-0.4831176698207855
1781591780213322000,3.857322021484375,3.4303112030029297,1.0527490377426147,0.09987638890743256
1781591780261834800,3.905834716796875,2.051818370819092,-0.04199695214629173,0.10819942504167557
1781591780310347500,3.954347412109375,0.8732311725616455,-1.1116211414337158,1.2596795558929443
1781591780358860300,4.0028603515625,0.03275762498378754,-0.8352048993110657,1.4350740909576416
1781591780407372800,4.051372802734375,0.5285507440567017,-0.9438624382019043,1.014417290687561
1781591780455885600,4.099885498046875,0.47097674012184143,-0.8273400068283081,0.3909534513950348
1781591780504398300,4.1483984375,0.19150610268115997,-0.5482511520385742,0.5229002237319946
1781591780552910800,4.196910888671875,0.10476330667734146,-0.7698423266410828,0.693026065826416
1781591780601423600,4.245423583984375,0.6812669634819031,-0.15057817101478577,0.033139415085315704
1781591780649936100,4.29393603515625,0.3851502537727356,-0.22533275187015533,-0.3610210716724396
1781591780698449000,4.342448974609375,-0.9190460443496704,-0.41958773136138916,-0.7528908252716064
1781591780746961700,4.390961669921875,0.6246092319488525,-0.4725802540779114,0.18203771114349365
1781591780795474200,4.43947412109375,0.9665408134460449,0.5735256671905518,-0.5189296007156372
1781591780843987000,4.487987060546875,-0.19394956529140472,0.667064368724823,-0.4529562294483185
1781591780892499700,4.536499755859375,-1.5652645826339722,-0.5323686599731445,-0.0021380267571657896
1781591780941012500,4.585012451171875,-1.7453933954238892,-0.5903244614601135,0.9272163510322571
1781591780989525200,4.633525146484375,-1.2802962064743042,-0.5766563415527344,0.2724456787109375
1781591781038038000,4.6820380859375,-0.5083922147750854,0.6246855854988098,-2.685896158218384
1781591781135063300,4.779063232421875,-0.04604393243789673,-0.4111120104789734,0.9875392913818359
1781591781183576000,4.827576171875,0.2643517255783081,-0.38324129581451416,0.8079450130462646
1781591781232088800,4.8760888671875,0.8609375357627869,0.13416117429733276,1.0473276376724243
1781591781280601600,4.9246015625,0.5381718873977661,0.10231985151767731,1.1493420600891113
1781591781329114400,4.9731142578125,-0.13713914155960083,0.006872228812426329,0.21746785938739777
1781591781377627000,5.021626953125,-0.021151192486286163,1.0790926218032837,-0.8732311725616455
1781591781426139600,5.0701396484375,-0.5562687516212463,0.6655371785163879,-1.1814124584197998
1781591781474652400,5.11865234375,-0.9275981783866882,-0.768467903137207,1.5038727521896362
1781591781523165200,5.167165283203125,0.4584540128707886,-1.416900873184204,2.8035638332366943
1781591781571678000,5.215677978515625,2.0573925971984863,0.7925207018852234,1.9855395555496216
1781591781620190700,5.264190673828125,2.052887439727783,1.707137942314148,0.20219624042510986
1781591781668703200,5.312703125,2.7030766010284424,2.415282964706421,-1.0932189226150513
1781591781717216000,5.361216064453125,-0.22296564280986786,0.49487683176994324,-1.9108613729476929
1781591781765728800,5.409728759765625,-0.7876337766647339,1.2912918329238892,-1.2775473594665527
1781591781814241500,5.458241455078125,-3.31974458694458,0.25411975383758545,-0.16539163887500763
1781591781862754300,5.50675439453125,-6.377810001373291,-2.5169155597686768,-0.26595523953437805
1781591781911267000,5.55526708984375,-3.6007423400878906,-1.6781219244003296,-0.12591449916362762
1781591781959779800,5.60377978515625,-0.9681442975997925,0.5083158612251282,0.044440411031246185
1781591782008292600,5.652292724609375,-0.3338375985622406,-0.10751219838857651,-0.4159989058971405
1781591782056805400,5.700805419921875,-1.5247948169708252,-0.4563923478126526,0.8267291188240051
1781591782105318100,5.749318115234375,-2.1564290523529053,1.135903000831604,-0.15088360011577606
1781591782153831000,5.797830810546875,-0.35094180703163147,-0.014737112447619438,-1.2844959497451782
1781591782202343700,5.84634375,0.640720784664154,-0.4182896614074707,0.028099779039621353
1781591782250856400,5.8948564453125,0.720285952091217,-0.6765327453613281,0.3559814393520355
1781591782299369200,5.943369140625,-0.04520399495959282,-0.12560907006263733,-0.08949168771505356
1781591782347882000,5.991882080078125,-0.0792597085237503,-0.023823726922273636,-0.14217877388000488
1781591782396394800,6.040394775390625,0.012217295356094837,0.1597411334514618,-0.16615521907806396
1781591782444907500,6.088907470703125,0.1565341055393219,0.0013744457392022014,-0.19646938145160675
1781591782493420300,6.137420166015625,0.10079269111156464,0.22754712402820587,-0.5563451051712036
1781591782541933000,6.18593310546875,0.09621120244264603,0.5315287113189697,-0.3384954333305359
1781591782590445800,6.23444580078125,0.1305723488330841,0.18906265497207642,-0.3289506733417511
1781591782638958800,6.282958740234375,0.11942406743764877,0.07406735420227051,-0.17837251722812653
1781591782687471600,6.3314716796875,0.15210533142089844,-0.2271653413772583,-0.06062832847237587
1781591782735984400,6.379984375,0.07872519642114639,-0.22731806337833405,-0.016875140368938446
1781591782784497200,6.4284970703125,0.053145237267017365,-0.23861905932426453,0.01802051067352295
1781591782833010000,6.477010009765625,0.07544180005788803,-0.22120940685272217,0.07406735420227051
1781591782881522700,6.525522705078125,0.031001387163996696,-0.0850629210472107,0.08025235682725906
1781591782930035500,6.574035400390625,0.04214967042207718,-0.20761767029762268,0.023518294095993042
1781591782978548200,6.62254833984375,0.009315688163042068,-0.13416117429733276,-0.008857538923621178
1781591783027061000,6.67106103515625,-0.08429934084415436,-0.013515383005142212,-0.002443459117785096
1781591783075573800,6.71957373046875,-0.13591741025447845,0.0038179049734026194,0.011911863461136818
1781591783124086500,6.76808642578125,-0.04581485688686371,-0.23014330863952637,0.03474293276667595
1781591783172599600,6.816599609375,0.010537417605519295,-0.35071274638175964,0.04634936526417732
1781591783221112300,6.8651123046875,-0.06772962957620621,-0.24862197041511536,0.03672824427485466
1781591783269625000,6.913625,-0.08529199659824371,-0.22999058663845062,0.12072215229272842
1781591783318137900,6.962137939453125,-0.009086613543331623,-0.17455461621284485,0.11522436887025833
1781591783366650600,7.010650634765625,-0.002672533504664898,-0.11881320178508759,0.010155626572668552
1781591783415163600,7.05916357421875,0.04520399495959282,-0.1115591824054718,-0.03848448023200035
1781591783463676400,7.107676513671875,0.013439024798572063,-0.06704241037368774,-0.06047561392188072
1781591783512189200,7.156189208984375,-0.006948587018996477,-0.14569124579429626,-0.003665188793092966
1781591783609214700,7.253214599609375,0.030466880649328232,-0.047494735568761826,0.0029779658652842045
1781591783657727500,7.3017275390625,0.013744457624852657,-0.02412915788590908,-0.028557928279042244
1781591783706240500,7.350240478515625,0.02306014485657215,0.03306305781006813,0.009697478264570236
1781591783754753300,7.398753173828125,0.025045456364750862,0.07055488228797913,-0.006719512399286032
1781591783803266000,7.44726611328125,-0.003512472379952669,0.07269290834665298,-0.04153880476951599
1781591783851778800,7.49577880859375,-0.036193739622831345,0.059635672718286514,-0.02611446939408779
1781591783900291600,7.54429150390625,-0.008857538923621178,0.042073313146829605,-0.029016077518463135
1781591783948804600,7.5928046875,0.002061668550595641,0.04810560122132301,-0.025045456364750862
1781591783997317400,7.6413173828125,-0.026572618633508682,0.0475710928440094,-0.026878049597144127
1781591784045830100,7.689830078125,-0.03886627033352852,0.057497646659612656,-0.0191658828407526
1781591784094343000,7.738343017578125,-0.00946840364485979,0.040317077189683914,-0.009773836471140385
1781591784142856000,7.78685595703125,-0.010995565913617611,0.052076224237680435,-0.01908952370285988
1781591784191368700,7.83536865234375,-0.004352411720901728,0.0475710928440094,-0.015577051788568497
1781591784239881500,7.883881591796875,-0.008017600513994694,0.05864302068948746,0.005803215317428112
1781591784288394200,7.932394287109375,0.0015271619195118546,0.01359174121171236,0.0077121676877141
1781591784336907300,7.9809072265625,0.000305432389723137,-0.0021380267571657896,-0.001221729558892548
1781591784385420000,8.029419921875,0.018173227086663246,-0.00038179047987796366,0.001221729558892548
1781591784433932800,8.077932861328126,0.002443459117785096,0.019394956529140472,0.009697478264570236
1781591784482445800,8.12644580078125,0.01893680728971958,0.011453714221715927,0.009010255336761475
1781591784530958600,8.17495849609375,0.03375028073787689,0.01259908638894558,-0.026648975908756256
1781591784579471400,8.223471435546875,-0.02237292192876339,0.060322895646095276,0.004428769461810589
1781591784627984400,8.271984375,-0.008857538923621178,-0.019624030217528343,0.04581485688686371
1781591784676497200,8.3204970703125,0.02107483521103859,-0.0576503649353981,0.03306305781006813
1781591784725010000,8.369010009765624,-0.009315688163042068,-0.047952886670827866,0.026878049597144127
1781591784773522700,8.417522705078126,-0.03588830679655075,-0.03375028073787689,0.0412333719432354
1781591784822035700,8.46603564453125,-0.027488915249705315,-0.0795651376247406,0.030543239787220955
1781591784870548500,8.514548583984375,-0.03535379841923714,-0.09712749719619751,0.02672533318400383
1781591784919061500,8.5630615234375,-0.053756099194288254,-0.11942406743764877,0.02626718580722809
1781591784967574300,8.61157421875,-0.02672533318400383,-0.09552398324012756,0.05528326332569122
1781591785016087300,8.66008740234375,0.019013166427612305,-0.06719512492418289,0.054672397673130035
1781591785064600000,8.70860009765625,0.03451386094093323,0.018096869811415672,-0.006719512399286032
1781591785113112800,8.75711279296875,0.06750056147575378,0.017562363296747208,-0.03352120518684387
1781591785161625600,8.80562548828125,0.051389001309871674,0.035124726593494415,-0.025503603741526604
1781591785210138600,8.854138671875,0.03260490670800209,0.07506000995635986,0.02848157100379467
1781591785258651400,8.9026513671875,0.059024810791015625,0.13110685348510742,0.02848157100379467
1781591785307164400,8.951164306640624,0.0902552679181099,0.16264274716377258,0.025809036567807198
1781591785355677200,8.99967724609375,0.0818558782339096,0.13041962683200836,-0.024740023538470268
1781591785404190200,9.048190185546876,0.07124210149049759,0.11056652665138245,-0.052076224237680435
1781591785452703000,9.096702880859375,0.12362375855445862,0.046883873641490936,-0.006108647678047419
1781591785501216000,9.145216064453125,0.09621120244264603,0.11484257876873016,0.018860450014472008
1781591785549728800,9.193728759765625,0.010079269297420979,0.10224349051713943,0.03306305781006813
1781591785598241500,9.242241455078124,-0.03909534588456154,-0.031154103577136993,-0.012751801870763302
1781591785646754600,9.290754638671874,-0.0642935186624527,-0.07903063297271729,-0.09361502528190613
1781591785695267600,9.339267578125,-0.011682788841426373,-0.10354158282279968,-0.13301581144332886
1781591785743780400,9.3877802734375,0.07047852128744125,-0.15233440697193146,-0.12644900381565094
1781591785792293000,9.436293212890625,0.21143557131290436,-0.24740023910999298,-0.14332415163516998
1781591785840806100,9.48480615234375,0.1536324918270111,0.14294235408306122,-0.013362666592001915
1781591785889319200,9.533319091796875,0.01718057133257389,0.40339982509613037,0.16073378920555115
1781591785937832000,9.58183203125,-0.19265148043632507,0.617660641670227,0.3557523787021637
1781591785986345000,9.630344970703124,-0.6562978625297546,0.9126319885253906,0.5539016127586365
1781591786034857700,9.678857666015626,-0.5576431751251221,0.6653844714164734,0.3831649422645569
1781591786083370800,9.727370849609375,-0.4068359434604645,0.2522871494293213,0.24602578580379486
1781591786131883500,9.775883544921875,-0.37354379892349243,0.05436696484684944,0.04329504072666168
1781591786180396500,9.824396484375,-0.35185810923576355,0.016035201027989388,-0.10125083476305008
1781591786228909600,9.87290966796875,-0.1971566081047058,0.07391463965177536,-0.15668681263923645
1781591786277422300,9.92142236328125,-0.09437860548496246,0.1634826809167862,-0.12896881997585297
1781591786325935400,9.969935302734376,-0.11094831675291061,0.16676609218120575,-0.14393500983715057
1781591786374448000,10.0184482421875,-0.032910339534282684,0.12644900381565094,-0.21212279796600342
1781591786422961200,10.066961181640625,-0.06444623321294785,0.05841394513845444,-0.03634645417332649
1781591786471474200,10.11547412109375,-0.13332124054431915,-0.10888664424419403,-0.012293653562664986
1781591786519987000,10.163987060546875,-0.03237583488225937,-0.252210795879364,0.17256930470466614
1781591786568500000,10.2125,-0.0850629210472107,-0.3894262909889221,0.047952886670827866
1781591786617013000,10.261012939453124,-0.1969275325536728,-0.45471248030662537,-0.26129740476608276
1781591786665526000,10.309526123046876,0.12705987691879272,-0.9172898530960083,-0.23396120965480804
1781591786714038800,10.358038818359375,0.3381900191307068,-0.7829759120941162,-0.07040216773748398
1781591786762551800,10.4065517578125,0.9374483823776245,-0.5164861679077148,-0.4276053309440613
1781591786811064800,10.45506494140625,0.8320741653442383,-0.210442915558815,-0.5694023370742798
1781591786908090600,10.552090576171874,0.4627300798892975,0.08460476994514465,-0.7262418866157532
1781591786956603600,10.600603759765624,0.7449495792388916,-0.030695954337716103,-0.8354339599609375
1781591787005116700,10.64911669921875,0.3917934000492096,0.6550761461257935,-0.3825540542602539
1781591787053629700,10.697629638671875,0.09789107739925385,0.20883940160274506,0.07269290834665298
1781591787102142500,10.746142578125,0.29374960064888,-0.3287216126918793,0.32184937596321106
1781591787150655500,10.794655517578125,-0.2692386507987976,0.7218130826950073,1.598022222518921
1781591787199168500,10.84316845703125,-0.45562875270843506,0.47151124477386475,2.1612396240234375
1781591787247681500,10.891681640625,0.08460476994514465,0.1282816082239151,2.4091744422912598
1781591787296194600,10.940194580078124,-0.5358811020851135,-0.656679630279541,0.24442227184772491
1781591787344707600,10.98870751953125,-1.2790744304656982,-0.3614792227745056,-0.18356487154960632
1781591787393220600,11.037220703125,-0.5419133901596069,-0.5303833484649658,1.1368193626403809
1781591787441733600,11.085733642578125,0.09590577334165573,-0.8026763200759888,0.17478369176387787
1781591787490246700,11.13424658203125,0.2525925934314728,-0.926376461982727,-0.3863719701766968
1781591787538759700,11.182759765625,-0.33971717953681946,-0.057268574833869934,0.19356778264045715
1781591787587272700,11.231272705078124,-0.43371400237083435,0.18493930995464325,0.3314704895019531
1781591787635785700,11.27978564453125,-0.8425352573394775,0.34208428859710693,-0.6230821013450623
1781591787684298800,11.328298828125,-0.22212570905685425,-0.6555342674255371,-0.5759690999984741
1781591787732811800,11.376811767578126,0.22441644966602325,-1.0931425094604492,-0.19624030590057373
1781591787781324800,11.42532470703125,1.25715970993042,-0.24770566821098328,-0.516791582107544
1781591787829838000,11.473838134765625,0.7683915495872498,0.12072215229272842,-0.8317687511444092
1781591787878351000,11.52235107421875,0.39675667881965637,0.22495095431804657,-1.0852012634277344
1781591787926864100,11.570864013671875,0.759304940700531,0.2182314395904541,-1.5069270133972168
1781591787975377200,11.619377197265624,0.5825359225273132,0.9607375860214233,-1.2745693922042847
1781591788023890200,11.66789013671875,0.27397283911705017,1.594204306602478,0.06841685622930527
1781591788072403200,11.7164033203125,0.5317577719688416,-0.22388194501399994,-0.09017891436815262
1781591788120916200,11.764916259765625,0.42157304286956787,-0.34032803773880005,0.8174898028373718
1781591788169429500,11.813429443359375,-0.12530364096164703,0.8053488731384277,1.9699625968933105
1781591788217942500,11.861942626953125,-0.14164426922798157,-0.2381609082221985,2.4491095542907715
1781591788266455600,11.91045556640625,0.13622283935546875,-0.12950333952903748,2.311588764190674
1781591788314968800,11.95896875,-1.0038034915924072,-0.22250749170780182,-0.44318240880966187
1781591788363481900,12.00748193359375,-1.169424295425415,0.03405570983886719,-0.05222893878817558
1781591788460508000,12.1045078125,0.5599339008331299,-0.7363211512565613,0.33192864060401917
1781591788509021200,12.153021240234375,0.06192641705274582,-0.5406153202056885,-0.3943132162094116
1781591788557534200,12.2015341796875,-0.5409207344055176,0.0844520553946495,0.6818777918815613
1781591788606047500,12.250047607421875,0.17417281866073608,-0.017027854919433594,0.1026252806186676
1781591788654560500,12.298560546875,-0.4828122556209564,0.11972949653863907,-0.3840048611164093
1781591788703073500,12.347073486328124,-0.859792172908783,-0.5551233887672424,-0.7247910499572754
1781591788751586800,12.3955869140625,0.2750418782234192,-0.6123919486999512,-1.0674861669540405
1781591788800100000,12.44410009765625,0.8738420605659485,-0.6876810193061829,-0.8288671374320984
1781591788848613000,12.492613037109376,1.0835977792739868,-0.1576794683933258,-1.2458586692810059
1781591788897126100,12.541126220703125,0.5429060459136963,0.5152644515037537,-1.654221773147583
1781591788945639400,12.589639404296875,1.6022982597351074,1.1060470342636108,-1.9557600021362305
1781591788994152700,12.638152587890625,1.4440079927444458,1.0739766359329224,-1.6824743747711182
1781591789042665700,12.686665771484375,0.8353576064109802,0.7974839806556702,-0.35674503445625305
1781591789091179000,12.735178955078124,-0.4860192835330963,-1.1423934698104858,0.6120865345001221
1781591789139692000,12.783692138671874,-0.37697991728782654,0.0025198173243552446,1.0552688837051392
1781591789188205300,12.832205322265626,0.07414371520280838,1.1369720697402954,2.1029019355773926
1781591789236718600,12.880718505859376,-0.29336780309677124,0.5596284866333008,2.7284276485443115
1781591789285231600,12.929231689453125,0.4217257797718048,-0.11881320178508759,2.2475242614746094
1781591789333745000,12.977744873046875,-1.2126429080963135,-0.3358992636203766,-0.256792277097702
1781591789382258000,13.0262578125,-1.0099122524261475,-0.38957902789115906,0.22655446827411652
1781591789430771200,13.074771240234375,-0.4222602844238281,-1.0398445129394531,0.6753110289573669
1781591789479284500,13.123284423828125,0.01183550525456667,-1.073289394378662,-0.22510367631912231
1781591789527797800,13.1717978515625,0.3759109079837799,-0.7688496708869934,0.01802051067352295
1781591789576311000,13.22031103515625,-0.3243691921234131,-0.019013166427612305,0.3718639314174652
1781591789624824000,13.268823974609376,-0.10567960888147354,-0.4563159942626953,0.16310089826583862
1781591789673337300,13.31733740234375,-0.39225155115127563,0.32299473881721497,0.039858926087617874
1781591789721850600,13.3658505859375,-0.6591231226921082,-0.720820426940918,-0.7721330523490906
1781591789818877200,13.462877197265625,0.6880627870559692,-0.3185659945011139,-0.6615665555000305
1781591789867390200,13.51139013671875,0.8784235715866089,0.1576794683933258,-0.9129374027252197
1781591789915903500,13.559903564453125,0.6331613659858704,0.04581485688686371,-0.9629519581794739
1781591789964416800,13.608416748046874,0.5619956254959106,0.034208428114652634,-1.293582558631897
1781591790012930000,13.656929931640626,0.6507236957550049,0.49365508556365967,-1.411173939704895
1781591790061443300,13.705443359375,0.47555822134017944,0.8948405385017395,-1.0008255243301392
1781591790109956400,13.753956298828125,0.6133846044540405,0.7999274134635925,0.10392337292432785
1781591790158470000,13.802469970703125,0.7407498955726624,-0.13935352861881256,0.17539454996585846
1781591790206983000,13.85098291015625,0.370184063911438,0.08597921580076218,1.3784164190292358
1781591790255496200,13.89949609375,0.29214608669281006,0.45448338985443115,2.2420265674591064
1781591790304009500,13.948009521484375,0.19333870708942413,-0.2156352698802948,2.2292747497558594
1781591790352522800,13.996522705078124,-0.31787875294685364,-0.5348120927810669,1.384601354598999
1781591790401036000,14.0450361328125,-1.2402082681655884,-0.638353705406189,-0.6903535723686218
1781591790449549300,14.09354931640625,-0.9795980453491211,-0.9973894953727722,0.37552911043167114
1781591790498062600,14.1420625,-0.38667741417884827,-1.0556507110595703,0.8090903759002686
1781591790546576000,14.190575927734375,0.2920697331428528,-1.2021819353103638,-0.12759438157081604
1781591790595089200,14.239089111328125,0.23075416684150696,-0.7977893948554993,0.04825831577181816
1781591790643602400,14.2876025390625,-0.43692103028297424,-0.25350889563560486,0.6713404059410095
1781591790692115700,14.33611572265625,0.1703549176454544,-0.28496840596199036,0.38469210267066956
1781591790740629200,14.384629150390625,-0.689513623714447,-0.09124792367219925,-0.528092622756958
1781591790789142500,14.433142578125,-0.21975859999656677,-0.9028581380844116,-0.8639155030250549
1781591790837655800,14.48165576171875,0.4529562294483185,-0.3790415823459625,-0.8819360136985779
1781591790886169000,14.530169189453124,0.7227293848991394,-0.19784383475780487,-1.0551925897598267
1781591790934682400,14.578682373046876,0.9199623465538025,0.8722385764122009,-1.2997674942016602
1781591790983195600,14.627195556640626,0.4797579348087311,0.6424770355224609,-1.2279908657073975
1781591791031709000,14.675708984375,1.190651774406433,0.8755219578742981,-1.064737319946289
1781591791080222200,14.72422216796875,0.6551524996757507,1.1475858688354492,-0.9822705388069153
1781591791128735500,14.772735595703125,0.4658607542514801,1.165224552154541,0.2381609082221985
1781591791177249000,14.8212490234375,0.5167152285575867,0.3039052188396454,0.2701549530029297
1781591791225762300,14.86976220703125,0.13255766034126282,0.2211330533027649,1.9300272464752197
1781591791274275600,14.918275634765624,-0.5510764122009277,0.03672824427485466,2.1707842350006104
1781591791322788900,14.966788818359374,-0.48159050941467285,0.09903645515441895,2.1487932205200195
1781591791371302400,15.015302490234374,-0.7419716119766235,-0.3698786199092865,0.4228711426258087
1781591791419815700,15.063815673828126,-0.8775072693824768,-0.5983420610427856,-0.30520331859588623
1781591791468329000,15.112328857421875,-0.41294458508491516,-0.9976949095726013,0.7996219992637634
1781591791516842200,15.16084228515625,0.06062832847237587,-1.7033964395523071,0.03176496922969818
1781591791565355500,15.20935546875,0.13041962683200836,-0.7715222239494324,-0.45188722014427185
1781591791613869000,15.257869140625,-0.4488328993320465,0.27427828311920166,0.16485713422298431
1781591791662382300,15.30638232421875,-0.28008151054382324,-0.060322895646095276,0.8132901191711426
1781591791710895600,15.3548955078125,-1.0514509677886963,0.8484911918640137,-0.04955640435218811
1781591791759409200,15.4034091796875,-0.3155880272388458,-0.7150935530662537,-0.644844114780426
1781591791807922400,15.45192236328125,0.017715077847242355,-0.32734715938568115,-0.9058361053466797
1781591791856435700,15.500435791015626,0.7835104465484619,-0.11323905736207962,-0.7073814272880554
1781591791904949200,15.54894921875,0.8466585874557495,0.21983496844768524,-1.251509189605713
1781591791953462500,15.597462646484376,0.6600393652915955,-0.20830489695072174,-1.005788803100586
1781591792001975800,15.645975830078125,0.7964913249015808,0.6856957077980042,-1.3547453880310059
1781591792050489300,15.6944892578125,0.9914335608482361,0.8587995171546936,-1.1564433574676514
1781591792099002600,15.743002685546875,0.9341649413108826,1.331379771232605,0.020082179456949234
1781591792147516000,15.791515869140625,0.6893609166145325,0.3827831447124481,0.019929463043808937
1781591792196029400,15.840029541015625,0.2926805913448334,-0.3448331654071808,0.7982475757598877
1781591792244542700,15.888542724609374,-0.29420775175094604,0.21349723637104034,1.996611475944519
1781591792293056000,15.937055908203124,-0.7277690172195435,-0.2641226649284363,1.8584797382354736
1781591792341569500,15.985569580078124,-0.2087630331516266,-0.4004218578338623,1.9497276544570923
1781591792390082800,16.034082763671876,-0.7434224486351013,-0.678288996219635,-0.08353576064109802
1781591792438596400,16.082596435546876,-0.8282563090324402,-0.6175079345703125,0.1484401375055313
1781591792487109600,16.131109619140624,-0.38247770071029663,-0.6734784245491028,0.7460949420928955
1781591792535623000,16.179622802734375,0.21502439677715302,-1.0244965553283691,-0.17050762474536896
1781591792584136400,16.228136474609375,-0.16913318634033203,-0.33712100982666016,-0.4820486605167389
1781591792632649700,16.276649658203127,-0.3191768527030945,0.2444986253976822,0.6056724190711975
1781591792681163000,16.3251630859375,-0.03756818547844887,0.051618073135614395,0.953559935092926
1781591792729676500,16.373676513671874,-0.5703186392784119,0.05711585655808449,-0.4857138693332672
1781591792826703400,16.470703369140626,0.6169734001159668,-0.512133777141571,-0.7877101302146912
1781591792875216600,16.519216552734374,1.1725549697875977,-0.1637117564678192,-0.5804742574691772
1781591792923730200,16.567730224609374,1.2018764019012451,-0.015577051788568497,-0.8042035102844238
1781591792972243500,16.616243408203125,0.5225948095321655,-0.13255766034126282,-0.878118097782135
1781591793020756700,16.6647568359375,0.21051926910877228,1.176449179649353,-1.404072642326355
1781591793069270300,16.713270263671873,0.4563159942626953,0.6497310400009155,-1.236772060394287
1781591793117783600,16.761783447265625,0.4338667094707489,1.2037854194641113,-0.21616977453231812
1781591793166297000,16.810297119140625,0.06383536756038666,0.3552178740501404,-0.13736821711063385
1781591793214810600,16.858810546875,0.4482983946800232,-0.12705987691879272,0.4326449930667877
1781591793263324000,16.907323974609376,-0.0720820426940918,0.7432697415351868,1.993633508682251
1781591793311837200,16.955837158203124,-0.43860089778900146,0.2409861534833908,1.9162827730178833
1781591793360350700,17.004350830078124,-0.06933315098285675,0.028405211865901947,2.1166465282440186
1781591793408864000,17.052864013671876,-0.7515164017677307,-0.0717766135931015,-0.3124573230743408
1781591793457377500,17.10137744140625,-0.7503710389137268,-0.3023780584335327,0.09162971377372742
1781591793505890800,17.149890869140624,-0.4059959948062897,-0.2320522516965866,0.5619956254959106
1781591793554404400,17.198404296875,0.04566214233636856,-0.29245150089263916,-0.15775582194328308
1781591793602917600,17.246917724609375,0.3174206018447876,-0.4641045033931732,-0.3871355652809143
1781591793651431200,17.29543115234375,-0.03825540840625763,-0.26160284876823425,0.3514763116836548
1781591793699944400,17.3439443359375,-0.39591673016548157,-0.2816850244998932,0.5717694163322449
1781591793748458000,17.3924580078125,-0.2568686306476593,0.4021781086921692,-0.1346193253993988
1781591793796971300,17.44097119140625,-0.41447174549102783,0.04413498193025589,-0.8768963813781738
1781591793845484800,17.48948486328125,-0.04932733252644539,0.33284494280815125,-0.8820123672485352
1781591793893998300,17.537998291015626,0.6785180568695068,-0.13858994841575623,-0.693026065826416
1781591793942511600,17.58651171875,1.153923511505127,0.12202023714780807,-0.7245619893074036
1781591793991025000,17.63502490234375,0.7159335017204285,0.40149086713790894,-0.8314633369445801
1781591794039538400,17.683538330078125,0.4822777509689331,0.5595521330833435,-1.04076087474823
1781591794088052000,17.732052001953125,0.6854666471481323,1.0062470436096191,-1.2478439807891846
1781591794136565200,17.780565185546877,0.42737627029418945,1.361006736755371,-0.7664825916290283
1781591794185078500,17.82907861328125,0.10170898586511612,1.162322998046875,0.22640176117420197
1781591794233592000,17.877592041015625,0.09666935354471207,-0.05940660089254379,-0.20013457536697388
1781591794282105600,17.926105712890624,0.3162752389907837,0.19356778264045715,1.1728603839874268
1781591794330619000,17.974618896484376,0.10774127393960953,0.9029344916343689,1.8767293691635132
1781591794379132400,18.02313232421875,0.034437503665685654,0.18608468770980835,2.4310126304626465
1781591794427645700,18.071645751953124,-0.3836230933666229,-0.25381430983543396,1.3768128156661987
1781591794476159200,18.1201591796875,-0.8678861260414124,-0.1672242283821106,-0.7929024696350098
1781591794524672500,18.168672607421875,-0.8358157277107239,-0.2603811025619507,0.13072505593299866
1781591794573186000,18.21718603515625,-0.12095122784376144,-0.581848680973053,0.2764163017272949
1781591794621699600,18.265699462890623,0.4232529401779175,-0.5020545125007629,-0.4904480576515198
1781591794670212900,18.314212890625,0.08743002265691757,-0.7275399565696716,-0.38331764936447144
1781591794718726400,18.362726318359375,-0.6673697829246521,-0.06963858753442764,0.7838922142982483
1781591794767239700,18.41123974609375,-0.29619306325912476,0.02741255611181259,0.34979644417762756
1781591794815753200,18.459753173828126,-0.6775254011154175,0.13828451931476593,-0.6446914076805115
1781591794864266500,18.5082666015625,-0.30291256308555603,-0.3136790692806244,-0.8662826418876648
1781591794912780000,18.556780029296874,0.6051379442214966,-0.3484983444213867,-0.7573196291923523
1781591794961293300,18.605293212890626,1.299156665802002,-0.2467893660068512,-0.7004328370094299
1781591795009806800,18.653806884765626,1.1126137971878052,0.5477166175842285,-1.06443190574646
1781591795058320400,18.7023203125,0.48067423701286316,0.4191296100616455,-1.0589340925216675
1781591795106833700,18.750833740234373,0.6429351568222046,0.6519454121589661,-1.1898882389068604
1781591795155347000,18.799346923828125,0.5656607747077942,0.48105600476264954,-1.0625993013381958
1781591795203860500,18.847860595703125,0.27023130655288696,0.932561457157135,0.20891575515270233
1781591795252374000,18.8963740234375,0.10132719576358795,-0.07047852128744125,-0.21403174102306366
1781591795300887300,18.94488720703125,-0.2729802131652832,0.11339177191257477,1.0593159198760986
1781591795349400800,18.99340087890625,-0.168904110789299,0.8377246856689453,2.1471896171569824
1781591795397914000,19.0419140625,0.05742128938436508,-0.05871937796473503,2.348087787628174
1781591795446427600,19.090427734375,-0.21891866624355316,-0.2626718580722809,1.470046043395996
1781591795494941000,19.13894091796875,-1.1907281875610352,-0.08582650125026703,-0.8294016718864441
1781591795543454500,19.187454345703124,-0.9798271059989929,-0.21197007596492767,0.1805105358362198
1781591795591968000,19.235968017578124,-0.21868959069252014,-0.8012255430221558,0.5015963315963745
1781591795640481300,19.284481201171875,0.3848448097705841,-0.813060998916626,-0.2954294681549072
1781591795688994800,19.332994873046875,0.06383536756038666,-0.6860775351524353,-0.3588830530643463
1781591795737508000,19.381508056640627,-0.8311578631401062,0.1847866028547287,0.6908880472183228
1781591795786021600,19.430021728515626,-0.02390008419752121,-0.03741546720266342,0.22739441692829132
1781591795834535000,19.478534912109374,-1.0063233375549316,0.19822561740875244,-0.5971203446388245
1781591795883048400,19.52704833984375,-0.4689914286136627,-0.35216355323791504,-0.9507346749305725
1781591795931562000,19.57556201171875,0.6249146461486816,-0.3396408259868622,-0.7002801299095154
1781591795980075300,19.6240751953125,1.3307689428329468,-0.4303542375564575,-0.7087558507919312
1781591796028588800,19.6725888671875,1.1100176572799683,0.48357582092285156,-1.1560616493225098
1781591796077102000,19.72110205078125,0.37522369623184204,0.5429824590682983,-1.1783581972122192
1781591796125615600,19.76961572265625,0.768467903137207,0.767857015132904,-1.2993093729019165
1781591796174129000,19.81812890625,0.7561742663383484,0.4791470468044281,-0.6198750138282776
1781591796222642400,19.866642333984377,0.2099084109067917,0.9163735508918762,0.401949018239975
1781591796271155700,19.91515576171875,0.16165009140968323,-0.4053087830543518,-0.23800818622112274
1781591796319669200,19.963669189453125,-0.012140937149524689,-0.08239039033651352,1.1698060035705566
1781591796368182500,20.0121826171875,-0.07819069176912308,0.3906480371952057,2.1466550827026367
1781591796416696000,20.060696044921876,0.2660316228866577,-0.5468766689300537,2.4414737224578857
1781591796465209300,20.109209228515624,-0.37003132700920105,-0.4961749315261841,1.4766892194747925
1781591796513723000,20.157722900390624,-1.3626866340637207,-0.33139413595199585,-1.0851249694824219
1781591796562236200,20.206236083984376,-1.0570251941680908,-0.5103775262832642,0.22296564280986786
1781591796610749700,20.254749755859375,-0.0939968153834343,-1.3262637853622437,0.4881573021411896
1781591796659263200,20.30326318359375,0.6378191709518433,-1.0296125411987305,-0.16340632736682892
1781591796707776500,20.351776611328123,-0.07376192510128021,-0.21525347232818604,-0.2063959389925003
1781591796756290000,20.4002900390625,-0.7529671788215637,0.08025235682725906,0.502970814704895
1781591796804803300,20.44880322265625,-0.16584978997707367,0.14118611812591553,0.4017963111400604
1781591796853316900,20.49731689453125,-1.0286962985992432,-0.04818195849657059,-0.6914225816726685
1781591796901830100,20.545830078125,-0.23304490745067596,-0.7486147880554199,-0.8768963813781738
1781591796950343700,20.59434375,0.7843503952026367,-0.5693259835243225,-0.5232820510864258
1781591796998857000,20.64285693359375,1.4541635513305664,-0.31406086683273315,-0.45478883385658264
1781591797047370500,20.69137060546875,1.0506874322891235,0.5766563415527344,-1.1097122430801392
1781591797095883800,20.7398837890625,0.4150826036930084,0.5900954008102417,-1.2235621213912964
1781591797144397300,20.788397216796874,0.8408553600311279,0.8199332356452942,-1.430492639541626
1781591797192910600,20.83691064453125,0.5409207344055176,0.638353705406189,-0.4805978536605835
1781591797241424100,20.885424072265625,0.25992295145988464,0.7919861674308777,0.45738500356674194
1781591797289937400,20.9339375,0.4889972507953644,-0.5760455131530762,0.16470441222190857
1781591797338451000,20.982450927734376,0.05810851231217384,0.15760311484336853,1.588401198387146
1781591797386964200,21.030964111328124,0.15088360011577606,0.5652026534080505,2.5231006145477295
1781591797435477800,21.079477783203124,0.4043924808502197,-0.711122989654541,2.5371506214141846
1781591797483991000,21.127990966796876,-1.0139591693878174,0.22449280321598053,0.5697841048240662
1781591797532504600,21.176504638671876,-1.5176935195922852,-0.4689914286136627,-1.1867575645446777
1781591797581017900,21.225017822265624,-0.8014546036720276,-0.23312127590179443,0.7514400482177734
1781591797629531400,21.273531494140624,-0.022220205515623093,-0.8227584958076477,0.20509785413742065
1781591797678044700,21.322044677734375,0.5010618567466736,-1.0106757879257202,-0.4450913369655609
1781591797726558200,21.37055810546875,-0.1274416595697403,-0.6648499369621277,-0.29672756791114807
1781591797775071500,21.419071533203127,-0.6585122346878052,0.0631481483578682,0.7438042163848877
1781591797823585000,21.4675849609375,-0.5201513767242432,0.5941423773765564,-0.2461785078048706
1781591797872098300,21.516098388671875,-0.8368083834648132,0.22418737411499023,-0.8022181987762451
1781591797920611800,21.56461181640625,-0.23770275712013245,-0.4050033390522003,-0.6925679445266724
1781591797969125000,21.613125,0.8035926222801208,-0.5261073112487793,-0.5403099060058594
1781591798017638400,21.661638427734374,1.4028509855270386,-0.12606722116470337,-0.6570614576339722
1781591798066152000,21.71015185546875,0.7838922142982483,0.5897135734558105,-1.0264055728912354
1781591798114665500,21.75866552734375,0.42859798669815063,0.7827468514442444,-1.3869684934616089
1781591798163178800,21.8071787109375,0.9331722855567932,0.9871574640274048,-1.4008656740188599
1781591798211692300,21.8556923828125,0.5400044918060303,0.9596685767173767,-0.2513708472251892
1781591798260205600,21.90420556640625,0.12675444781780243,0.6151408553123474,0.256792277097702
1781591798308718800,21.95271875,0.2690095901489258,-0.6092612743377686,-0.05871937796473503
1781591798357232400,22.001232421875,-0.023518294095993042,0.25236350297927856,1.4984513521194458
1781591798405745700,22.04974560546875,0.17119485139846802,0.5272526741027832,2.376951217651367
1781591798454259200,22.09825927734375,0.547563910484314,-0.7688496708869934,2.711705207824707
1781591798502772500,22.1467724609375,-1.0051016807556152,-0.03191768378019333,0.6824886798858643
1781591798551286000,22.1952861328125,-1.3823870420455933,-0.3119228184223175,-1.0867284536361694
1781591798599799300,22.24379931640625,-0.8186351656913757,-0.30230170488357544,0.6496546864509583
1781591798648312600,22.2923125,0.0475710928440094,-0.9164499044418335,0.09445496648550034
1781591798696826000,22.340826171875,0.5723803043365479,-1.1542290449142456,-0.48586657643318176
1781591798745339600,22.389339599609375,-0.039018988609313965,-0.7271581888198853,-0.3170388340950012
1781591798793853000,22.43785302734375,-0.675616443157196,0.12415826320648193,0.4604393243789673
1781591798842366500,22.486366455078127,0.001832594396546483,0.16126830875873566,0.0668896958231926
1781591798890879700,22.534879638671875,-1.0918444395065308,0.057039499282836914,-0.8323796391487122
1781591798987906600,22.631906494140626,0.7974839806556702,-0.45448338985443115,-0.4015672206878662
1781591799036419800,22.680419921875,1.4455351829528809,-0.5134318470954895,-0.32994332909584045
1781591799084933000,22.72893310546875,1.028009057044983,0.5533671379089355,-0.9188933372497559
1781591799133446700,22.77744677734375,0.3572031855583191,0.5332086086273193,-1.1588104963302612
1781591799181960000,22.8259599609375,0.6393463611602783,0.9556979537010193,-1.4045308828353882
1781591799230473500,22.874473388671873,0.4240928590297699,1.0961968898773193,-0.13393209874629974
1781591799278986800,22.92298681640625,0.24197880923748016,0.6420188546180725,0.3897317349910736
1781591799327500300,22.971500244140625,0.305585116147995,-0.287106454372406,-0.1340848207473755
1781591799376013600,23.020013671875,-0.026343543082475662,0.2900844216346741,1.6928590536117554
1781591799424526800,23.06852685546875,0.4073704481124878,0.43195775151252747,2.3924520015716553
1781591799473040400,23.117040283203124,0.45097091794013977,-0.8879683017730713,2.679100275039673
1781591799521553700,23.1655537109375,-1.1305580139160156,-0.005574141163378954,0.37056586146354675
1781591799570067000,23.21406689453125,-1.4178171157836914,-0.5755109786987305,-1.1102467775344849
1781591799618580500,23.26258056640625,-0.7367029190063477,-0.30054548382759094,0.6500364542007446
1781591799667093800,23.31109375,0.11942406743764877,-0.986393928527832,0.1268308013677597
1781591799715607300,23.359607177734375,0.5838339924812317,-0.9818887710571289,-0.3387245237827301
1781591799764120600,23.40812060546875,-0.013744457624852657,-0.45761406421661377,-0.10758855938911438
1781591799812633900,23.4566337890625,-0.6101012229919434,0.3243691921234131,0.4878518879413605
1781591799861147400,23.5051474609375,-0.2006690800189972,0.27000224590301514,0.0798705667257309
1781591799909660700,23.55366064453125,-1.0636682510375977,0.07147117704153061,-0.9214895367622375
1781591799958174000,23.602174072265626,-0.3262781500816345,-0.5067123174667358,-0.8500946760177612
1781591800006687500,23.6506875,0.7238747477531433,-0.1839466542005539,-0.4976257085800171
1781591800055200800,23.69920068359375,1.2851831912994385,-0.16676609218120575,-0.5648971796035767
1781591800103714300,23.74771435546875,0.9767727851867676,0.8591049313545227,-1.0444260835647583
1781591800152227600,23.7962275390625,0.3277289569377899,0.7390699982643127,-1.1349867582321167
1781591800200740900,23.844740966796873,0.7063887715339661,1.0487021207809448,-1.3529127836227417
1781591800249254400,23.89325439453125,0.5516108870506287,0.8132137656211853,-0.6822596192359924
1781591800297767700,23.941767578125,0.1683696061372757,0.8649845123291016,0.3459021747112274
1781591800346281000,23.990281005859377,0.38072147965431213,-0.24495677649974823,-0.1115591824054718
1781591800394794200,24.038794189453125,0.10789398849010468,-0.20509785413742065,0.8129846453666687
1781591800443307800,24.087307861328124,-0.09957095980644226,0.5757400393486023,1.9974514245986938
1781591800491821000,24.135821044921876,0.3494146466255188,-0.5819250345230103,2.4483461380004883
1781591800540334600,24.18433447265625,-0.22495095431804657,-0.4150826036930084,1.7958661317825317
1781591800588847900,24.232847900390624,-1.2954151630401611,-0.08796452730894089,-0.8884264826774597
1781591800637361200,24.281361083984375,-1.109635829925537,-0.25763222575187683,0.018173227086663246
1781591800685874700,24.329874755859375,-0.23357942700386047,-0.7641918659210205,0.4702131748199463
1781591800734388000,24.378387939453123,0.4661661982536316,-0.9650136232376099,-0.38102689385414124
1781591800782901200,24.4269013671875,0.38881543278694153,-0.9895246028900146,-0.3326922357082367
1781591800831414800,24.475414794921875,-0.6558396816253662,0.2503018379211426,0.4883863925933838
1781591800879928000,24.523927978515626,-0.6514109373092651,-0.00954476185142994,0.391182541847229
1781591800928441300,24.57244140625,-0.776103675365448,0.39797839522361755,-0.5791761875152588
1781591800976955000,24.620954833984374,-0.3378845751285553,-0.5732202529907227,-0.7055488228797913
1781591801025468200,24.66946826171875,0.27519458532333374,-0.8520036339759827,-0.712573766708374
1781591801073981400,24.7179814453125,1.3540581464767456,-0.5450441241264343,-0.3248273432254791
1781591801122495000,24.766494873046874,1.1153627634048462,0.25900667905807495,-0.8942296504974365
1781591801171008300,24.81500830078125,0.49021899700164795,0.5768854022026062,-1.046640396118164
1781591801219521500,24.863521484375,0.5623010396957397,0.9120211005210876,-1.3629920482635498
1781591801268034800,24.912034912109377,0.6291143894195557,0.9992983937263489,-0.9111047983169556
1781591801316548400,24.96054833984375,0.256334125995636,1.1640028953552246,0.3995055556297302
1781591801365061600,25.0090615234375,0.24526220560073853,-0.18234314024448395,-0.16340632736682892
1781591801413575000,25.057574951171876,0.03581194952130318,-0.3836994469165802,0.8537598848342896
1781591801462088200,25.106088134765624,0.0962875634431839,0.6464476585388184,2.201862096786499
1781591801510601700,25.154601806640624,0.502970814704895,-0.5448150038719177,2.5208098888397217
1781591801559115000,25.203114990234376,-0.43401941657066345,-0.34124433994293213,1.6310852766036987
1781591801607628500,25.251628662109376,-1.3768892288208008,-0.40255987644195557,-1.0275509357452393
1781591801656141800,25.300141845703124,-0.980132520198822,-0.26473352313041687,-0.011148282326757908
1781591801704655000,25.348655029296875,-0.23518294095993042,-0.8119919896125793,0.684473991394043
1781591801753168400,25.39716845703125,0.38476845622062683,-0.8323032855987549,-0.21548254787921906
1781591801801681700,25.445681640625,0.3716348707675934,-0.938746452331543,-0.42974337935447693
1781591801850195200,25.4941953125,-0.5456549525260925,0.17715078592300415,0.49228066205978394
1781591801898708500,25.54270849609375,-0.38179048895835876,0.0021380267571657896,0.3044397234916687
1781591801947221800,25.5912216796875,-0.7874047160148621,0.3546070158481598,-0.455781489610672
1781591801995735300,25.6397353515625,-0.5235874652862549,-0.3387245237827301,-0.8232930302619934
1781591802044248600,25.68824853515625,0.30138540267944336,-0.5106829404830933,-0.769002377986908
1781591802092761900,25.736761962890625,1.117653489112854,-0.2883281707763672,-0.432721346616745
1781591802141275400,25.785275390625,1.0692424774169922,0.5374846458435059,-0.9759328365325928
1781591802189788700,25.83378857421875,0.45326167345046997,0.4425715208053589,-0.9144645929336548
1781591802238302000,25.882302001953125,0.4816668927669525,0.6221657991409302,-1.0990221500396729
1781591802286815200,25.930815185546876,0.6571378111839294,0.5036579966545105,-1.1431571245193481
1781591802335328500,25.97932861328125,0.19792018830776215,1.0118975639343262,-0.2920697331428528
1781591802383842800,26.0278427734375,0.22380557656288147,0.31551164388656616,0.18577924370765686
1781591802432355300,26.076355224609376,0.4554760456085205,-0.505872368812561,0.07338013499975204
1781591802529382000,26.1733818359375,0.11362084746360779,0.4529562294483185,2.304945468902588
1781591802577895400,26.2218955078125,0.43951719999313354,-0.7914516925811768,2.386648654937744
1781591802626408700,26.27040869140625,-0.8700241446495056,0.10186170041561127,0.7583122849464417
1781591802674922000,26.318921875,-1.3291654586791992,-0.24037529528141022,-1.0973422527313232
1781591802723435500,26.367435546875,-0.6555342674255371,-0.5219075679779053,0.654617965221405
1781591802771948800,26.41594873046875,0.07536543905735016,-0.8153517842292786,0.17867794632911682
1781591802820462000,26.464462158203126,0.5186241865158081,-1.0261001586914062,-0.4277580678462982
1781591802868975400,26.512975341796874,-0.044898562133312225,-0.5865065455436707,-0.3110828995704651
1781591802917488600,26.561488525390626,-0.47754353284835815,0.1130099818110466,0.6655371785163879
1781591802966002200,26.610002197265626,0.02695440873503685,-0.048563748598098755,0.31894776225090027
1781591803014515500,26.658515380859374,-1.0791690349578857,-0.1646280586719513,-0.7929024696350098
1781591803063028700,26.70702880859375,-0.38988444209098816,-0.3672060966491699,-0.8325323462486267
1781591803111542300,26.755542236328125,0.8241329193115234,0.021914774551987648,-0.5099957585334778
1781591803160055600,26.8040556640625,1.1384992599487305,-0.323452889919281,-0.6627882719039917
1781591803208568800,26.85256884765625,1.0467168092727661,0.5073232054710388,-1.2014182806015015
1781591803257082000,26.90108203125,0.4831940531730652,0.36392268538475037,-0.9961677193641663
1781591803305595400,26.949595458984376,0.600785493850708,1.0109049081802368,-1.2998439073562622
1781591803354109000,26.99810888671875,0.2905425727367401,0.9108757376670837,-0.4566214084625244
1781591803402622200,27.046622314453124,0.2092975378036499,0.6899717450141907,0.35766133666038513
1781591803451135500,27.095135498046876,0.24549128115177155,-0.4517345130443573,-0.06200277432799339
1781591803499648800,27.143648681640624,0.011530072428286076,0.2112828493118286,1.4858522415161133
1781591803548162000,27.192162109375,0.20127993822097778,0.5627591609954834,2.482630729675293
1781591803596675600,27.240675537109375,0.5125155448913574,-0.5591703653335571,2.592662811279297
1781591803645188900,27.28918896484375,-0.8026763200759888,0.1495855152606964,0.7003564834594727
1781591803693702100,27.3377021484375,-1.39445161819458,-0.22701261937618256,-1.1839323043823242
1781591803742215400,27.38621533203125,-0.7623592615127563,-0.4108065664768219,0.5743656158447266
1781591803790729000,27.43472900390625,-0.09308052062988281,-0.583910346031189,0.18471023440361023
1781591803839242200,27.4832421875,0.41271552443504333,-0.6323977708816528,-0.44203701615333557
1781591803887755500,27.531755615234374,-0.028405211865901947,-0.4560869038105011,-0.3998109996318817
1781591803936268800,27.580268798828126,-0.7525090575218201,0.2044106274843216,0.49052441120147705
1781591803984782000,27.628781982421874,-0.26160284876823425,0.20799945294857025,0.0974329337477684
1781591804033295600,27.677295654296874,-0.6523272395133972,0.38385215401649475,-0.6602684855461121
1781591804081809000,27.725808837890625,-0.41042476892471313,-0.33689191937446594,-0.8558215498924255
1781591804130322200,27.774322265625,0.581848680973053,-0.6075050234794617,-0.6831759214401245
1781591804178835500,27.82283544921875,1.3293944597244263,-0.20914483070373535,-0.5670352578163147
1781591804227348700,27.8713486328125,0.9436333775520325,0.6368265151977539,-1.0375537872314453
1781591804275862300,27.9198623046875,0.3984365463256836,0.8399390578269958,-1.2006547451019287
1781591804324375600,27.96837548828125,0.5585594773292542,0.990517258644104,-1.3669626712799072
1781591804372888800,28.016888916015624,0.5066359639167786,0.7278453707695007,-0.7827468514442444
1781591804421402000,28.065402099609376,0.20761767029762268,0.8604030609130859,0.44173160195350647
1781591804469915400,28.113915283203124,0.22693626582622528,-0.20799945294857025,-0.27488914132118225
1781591804518429000,28.162428955078123,0.06223184987902641,-0.1539379209280014,0.8888082504272461
1781591804566942200,28.210942138671875,0.1594357043504715,0.529543399810791,2.2927281856536865
1781591804615455500,28.25945556640625,0.4392881393432617,-0.861319363117218,2.5699081420898438
1781591804671879000,28.31587890625,-0.6590467095375061,-0.49510589241981506,0.7573959827423096
1781591804722829600,28.36682958984375,-1.4598904848098755,-0.14362958073616028,-0.9693660736083984
1781591804773757000,28.4177568359375,-0.8139009475708008,-0.8372665643692017,0.5742892622947693
1781591804824695800,28.46869580078125,0.04344775900244713,-1.2512801885604858,0.20746494829654694
1781591804875634700,28.519634765625,0.5959749221801758,-0.9358448386192322,-0.1997527778148651
1781591804926573800,28.57057373046875,-0.06604975461959839,-0.6725621223449707,-0.29764387011528015
1781591805022967300,28.66696728515625,-0.5662716627120972,0.3790415823459625,0.14431680738925934
1781591805071480800,28.715480712890624,-0.5633700489997864,0.25381430983543396,-0.734106719493866
1781591805168507400,28.81250732421875,0.6225475668907166,-0.6820304989814758,-0.7019599676132202
1781591805217020700,28.861020751953124,1.2570834159851074,-0.045738499611616135,-0.4251618981361389
1781591805265534000,28.909533935546875,0.9144645929336548,0.32192572951316833,-0.8037453293800354
1781591805314047500,28.958047607421875,0.6368265151977539,0.4679224193096161,-1.1111630201339722
1781591805362560800,29.006560791015627,0.6569086909294128,1.0048725605010986,-1.3545926809310913
1781591805411074000,29.055073974609375,0.37865981459617615,1.0541235208511353,-0.750141978263855
1781591805459587300,29.10358740234375,0.26511532068252563,0.8603267073631287,0.44898560643196106
1781591805508100600,29.1521005859375,0.0974329337477684,-0.337350070476532,-0.08674279600381851
1781591805556614000,29.20061376953125,-0.129197895526886,-0.03634645417332649,1.4587451219558716
1781591805605127200,29.249127197265626,0.15668681263923645,0.3574322462081909,2.558912515640259
1781591805653640400,29.297640380859374,0.2162461280822754,-0.8226057887077332,2.447429656982422
1781591805702153700,29.34615380859375,-0.6367501616477966,-0.004276053514331579,0.7657953500747681
1781591805750667300,29.394667236328125,-1.503490924835205,0.011606430634856224,-1.0228930711746216
1781591805799180500,29.4431806640625,-0.7786235213279724,-0.6003273725509644,0.5616901516914368
1781591805847693800,29.49169384765625,0.020082179456949234,-0.8914044499397278,0.15012001991271973
1781591805896207000,29.54020703125,0.5044979453086853,-0.924238383769989,-0.40233081579208374
1781591805944720400,29.588720458984376,0.024740023538470268,-0.4976257085800171,-0.27259841561317444
1781591805993233700,29.637233642578124,-0.6154462695121765,0.12461641430854797,0.6737838387489319
1781591806041747000,29.685746826171876,-0.3627009689807892,0.08651372790336609,0.11217004805803299
1781591806090260500,29.734260498046876,-0.8602503538131714,0.13019055128097534,-0.7532726526260376
1781591806138773800,29.782773681640624,-0.28985533118247986,-0.23945899307727814,-0.6574432253837585
1781591806187287000,29.831287109375,0.770529568195343,-0.492127925157547,-0.48914995789527893
1781591806235800300,29.87980029296875,1.1381938457489014,-0.15577052533626556,-0.7338013052940369
1781591806284313600,29.928313720703127,0.9108757376670837,0.3623191714286804,-1.1623992919921875
1781591806332827000,29.976826904296875,0.5232820510864258,0.6440805792808533,-1.21287202835083
1781591806381340200,30.025340087890626,0.7561742663383484,1.0525200366973877,-1.2848013639450073
1781591806429853400,30.073853515625,0.4650971591472626,0.9947932958602905,-0.5342012643814087
1781591806478367000,30.122366943359374,0.13843722641468048,0.6933315396308899,0.4131736755371094
1781591806526880300,30.17088037109375,0.2813032269477844,-0.39133524894714355,-0.24518585205078125
1781591806575393500,30.2193935546875,0.04978547990322113,-0.14706569910049438,1.1646137237548828
1781591806623906800,30.26790673828125,0.12003492563962936,0.49189886450767517,2.366795539855957
1781591806672420000,30.316420166015625,0.4120282828807831,-0.6808087825775146,2.485837936401367
1781591806720933400,30.364933349609377,-0.4266127049922943,-0.3958403766155243,1.148425817489624
1781591806769446700,30.41344677734375,-1.3936879634857178,-0.007941242307424545,-1.0840559005737305
1781591806866473200,30.51047314453125,0.005955931730568409,-1.2568542957305908,0.23564109206199646
1781591806914986500,30.558986572265624,0.4704422354698181,-1.3051890134811401,-0.36651885509490967
1781591806963499800,30.607499755859376,-0.09590577334165573,-0.8347467184066772,-0.005268708802759647
1781591807012013300,30.656013427734376,-0.4528798758983612,-0.23327398300170898,0.6391936540603638
1781591807060526600,30.704526611328124,-0.14920371770858765,0.15813761949539185,0.36216646432876587
1781591807109039900,30.753039794921875,-1.015562653541565,-0.0824667438864708,-1.0067051649093628
1781591807157553200,30.80155322265625,-0.08009964227676392,-0.16646064817905426,-0.6165152788162231
1781591807206066400,30.85006640625,0.7614429593086243,-0.017715077847242355,-0.4995346665382385
1781591807254579700,30.898579833984375,0.9865466356277466,0.02626718580722809,-0.7398335933685303
1781591807303093000,30.947093017578126,0.7798452377319336,0.21487168967723846,-1.1438442468643188
1781591807351606300,30.995606201171874,0.47845983505249023,0.5044979453086853,-1.152854561805725
1781591807400119600,31.04411962890625,0.7980184555053711,1.2496765851974487,-1.3679553270339966
1781591807448632800,31.0926328125,0.9138537049293518,2.689408540725708,-2.0596070289611816
1781591807497146000,31.14114599609375,0.3934732675552368,0.9352339506149292,0.19624030590057373
1781591807545659600,31.18965966796875,0.41844236850738525,-0.3318522870540619,0.2328922003507614
1781591807594172700,31.238172607421873,-0.22609633207321167,-0.1888335794210434,2.0570871829986572
1781591807642686200,31.286686279296877,0.5549706816673279,1.0001384019851685,2.83723783493042
1781591807691199500,31.335199462890625,0.8665880560874939,-1.0765727758407593,2.6298491954803467
1781591807739712800,31.383712646484376,-1.2872447967529297,-0.06322450190782547,0.21922409534454346
1781591807788226000,31.43222607421875,-1.0152572393417358,-0.5773435831069946,-0.6360629796981812
1781591807836739300,31.4807392578125,-0.771980345249176,-1.2614357471466064,0.3548360764980316
1781591807885252600,31.529252685546876,-0.23441936075687408,-1.377576470375061,0.1747073233127594
1781591807933766000,31.577765869140624,0.5558869242668152,-0.9902117848396301,-0.12431098520755768
1781591807982279200,31.626279052734375,0.12431098520755768,-0.41386088728904724,-0.13423752784729004
1781591808030792400,31.67479248046875,-0.5753582715988159,-0.0870482325553894,0.566500723361969
1781591808079305700,31.7233056640625,0.1490510106086731,-0.20723587274551392,0.3569740951061249
1781591808127819300,31.7718193359375,-0.45914125442504883,-0.018860450014472008,-0.7693078517913818
1781591808176332300,31.820332275390626,-0.3242928385734558,0.00946840364485979,-1.0142645835876465
1781591808224845800,31.868845703125,0.6081159114837646,0.1242346242070198,-0.7693078517913818
1781591808273359000,31.917359130859374,0.8188642263412476,0.07330377399921417,-0.8184061050415039
1781591808321872400,31.965872314453126,1.005788803100586,0.8988875150680542,-1.2159262895584106
1781591808370385700,32.0143857421875,0.4153880476951599,1.01708984375,-1.0713804960250854
1781591808418899000,32.06289892578125,0.49418962001800537,1.7812817096710205,-1.2893065214157104
1781591808467412200,32.111412109375,0.3811796307563782,1.3927717208862305,-0.6231584548950195
1781591808515925500,32.15992553710937,0.19097159802913666,1.0444260835647583,0.41126471757888794
1781591808564438800,32.20843872070313,0.13927717506885529,-0.007941242307424545,-0.1847866028547287
1781591808612952000,32.2569521484375,-0.02756527252495289,0.13904809951782227,1.2423462867736816
1781591808661465300,32.30546533203125,-0.23922991752624512,0.29825472831726074,2.0646464824676514
1781591808709978600,32.353978515625,-0.0017562361899763346,-0.5884155035018921,2.4828598499298096
1781591808758492000,32.40249194335937,-0.449138343334198,-0.7510582208633423,1.1015418767929077
1781591808807005200,32.45100512695313,-0.9626465439796448,-0.10598503798246384,-0.4664716124534607
1781591808855518500,32.4995185546875,-0.8086322546005249,-0.5180133581161499,0.517707884311676
1781591808904031700,32.54803173828125,-0.25045454502105713,-0.9355394244194031,0.1343138962984085
1781591808952545300,32.59654516601562,0.6555342674255371,-0.8671225309371948,-0.3428478538990021
1781591809001058300,32.64505834960938,0.3099375069141388,-0.6551524996757507,-0.25243985652923584
1781591809049571800,32.69357177734375,-0.3580431044101715,-0.24572035670280457,0.7113520503044128
1781591809098084900,32.7420849609375,0.28962627053260803,-0.7107411623001099,0.6155226230621338
1781591809146598400,32.790598388671874,-0.9957095980644226,-0.2992473840713501,-0.7911462187767029
1781591809195111700,32.83911157226562,-0.4670824706554413,-0.5542070865631104,-0.8349757790565491
1781591809243625000,32.887625,0.6323977708816528,0.23342670500278473,-0.5315287113189697
1781591809292138200,32.93613818359375,0.8603267073631287,-0.006414080038666725,-0.8911753296852112
1781591809340651500,32.984651611328125,0.8937715291976929,0.44463321566581726,-1.2497529983520508
1781591809389164800,33.03316479492187,0.5601630210876465,0.5473348498344421,-1.158123254776001
1781591809437678000,33.08167797851563,0.7520508766174316,1.2546398639678955,-1.4565306901931763
1781591809486191400,33.13019140625,0.19089524447917938,1.3956732749938965,-0.6214022040367126
1781591809534704600,33.17870458984375,0.388662725687027,0.3418551981449127,0.23961171507835388
1781591809583218000,33.227218017578124,0.5140427350997925,-0.2905425727367401,-0.02825249545276165
1781591809631731200,33.27573120117187,0.37140578031539917,-0.32505643367767334,1.6788854598999023
1781591809680244500,33.32424438476563,0.8972840309143066,-0.08491020649671555,2.4279584884643555
1781591809728757800,33.3727578125,0.23228132724761963,-0.8611665964126587,2.1704025268554688
1781591809777271000,33.42127099609375,-1.285335898399353,-0.5416843295097351,0.8846085667610168
1781591809825784300,33.46978442382812,-1.201265573501587,0.20906847715377808,-0.9977712631225586
1781591809874297600,33.51829760742187,-0.6155989766120911,-1.1319323778152466,0.7245619893074036
1781591809922811100,33.56681103515625,0.0256563201546669,-1.3788745403289795,0.22655446827411652
1781591809971324200,33.61532421875,0.4819723069667816,-1.1380411386489868,-0.4589885175228119
1781591810019837700,33.663837646484374,-0.08155044913291931,-0.5196168422698975,-0.20372340083122253
1781591810068350700,33.71235083007812,-0.505032479763031,-0.09582941234111786,0.721431314945221
1781591810116864300,33.7608642578125,-0.14393500983715057,0.5429824590682983,0.3641517758369446
1781591810165377500,33.80937744140625,-0.8486438989639282,0.3426951467990875,-0.8911753296852112
1781591810213890800,33.857890869140626,-0.3580431044101715,-0.3920224606990814,-0.7231875658035278
1781591810262404000,33.90640405273437,0.627968966960907,-0.0948367565870285,-0.6702713966369629
1781591810310917400,33.95491748046875,1.0873392820358276,-0.021609341725707054,-0.7243329286575317
1781591810359430700,34.0034306640625,0.9999856352806091,0.3029889166355133,-0.9285908341407776
1781591810407944000,34.05194384765625,0.5122101306915283,0.5287798047065735,-1.0684025287628174
1781591810456457200,34.100457275390625,0.6264418363571167,1.351232886314392,-1.2551743984222412
1781591810504970500,34.14897045898437,0.5191587209701538,1.250440239906311,-0.8518509268760681
1781591810553483800,34.19748388671875,0.2677878439426422,1.3259583711624146,0.2919933497905731
1781591810601997000,34.2459970703125,0.38789913058280945,0.23648102581501007,-0.07742711156606674
1781591810650510300,34.29451025390625,0.2583194375038147,0.04917461425065994,0.8338304162025452
1781591810699023600,34.343023681640624,-0.11209368705749512,0.8684970140457153,2.0053162574768066
1781591810747537000,34.39153686523437,0.3563632369041443,-0.1219438835978508,2.524016857147217
1781591810796050200,34.44005029296875,0.03871355578303337,0.09651663154363632,1.6173408031463623
1781591810844563500,34.4885634765625,-1.448742151260376,0.4685332775115967,-0.8723149299621582
1781591810893076700,34.53707666015625,-0.664391815662384,-1.2536472082138062,-0.2692386507987976
1781591810941590000,34.58559008789062,-0.5222130417823792,-1.5839723348617554,0.2153298407793045
1781591810990103300,34.63410327148438,0.14286600053310394,-1.4202606678009033,-0.18264856934547424
1781591811038616600,34.682616455078126,0.3787361681461334,-0.6357575058937073,0.12606722116470337
1781591811087129900,34.7311298828125,-0.7759509682655334,-0.1493564397096634,0.49189886450767517
1781591811135643100,34.77964306640625,0.05222893878817558,-0.5024362802505493,0.44837474822998047
1781591811184156400,34.82815649414062,-0.12499820441007614,0.42248934507369995,-0.208152174949646
1781591811232669700,34.87666967773438,-0.8069523572921753,0.030161447823047638,-0.8829286694526672
1781591811281183000,34.925182861328125,0.30199626088142395,-0.2761108875274658,-0.6414843797683716
1781591811329696300,34.9736962890625,0.6352993845939636,-0.09796743839979172,-0.5250383019447327
1781591811378209500,35.02220947265625,0.9403499960899353,0.19570580124855042,-0.7021890878677368
1781591811426722800,35.07072290039063,0.5024362802505493,0.43317949771881104,-0.9539417028427124
1781591811475236000,35.119236083984376,0.5823068618774414,0.7825177907943726,-1.3557380437850952
1781591811523749400,35.167749267578124,0.6291143894195557,0.7859538793563843,-1.257541537284851
1781591811572262700,35.2162626953125,0.5034289360046387,0.8707113862037659,-0.18692462146282196
1781591811620776000,35.26477587890625,0.33597561717033386,0.4935787320137024,0.17745621502399445
1781591811669289200,35.31328930664063,0.12446369975805283,-0.6011673212051392,0.3174969553947449
1781591811717802500,35.361802490234375,-0.4542543292045593,-0.2868010103702545,1.7277547121047974
1781591811766315800,35.41031567382812,-0.24946190416812897,-0.32933247089385986,2.2650866508483887
1781591811814829000,35.4588291015625,0.4759400188922882,-0.8572723865509033,2.2944843769073486
1781591811863342300,35.50734228515625,-0.9461531639099121,0.047952886670827866,-0.010919207707047462
1781591811911855600,35.555855712890626,-1.0959677696228027,0.33834272623062134,-0.19654574990272522
1781591811960369000,35.604368896484374,-0.4825831651687622,-0.5829176902770996,0.5533671379089355
1781591812008882200,35.65288208007812,0.14691297709941864,-0.6148353815078735,-0.18005239963531494
1781591812057395500,35.7013955078125,0.5073232054710388,-0.8052725195884705,-0.5451968312263489
1781591812105908700,35.74990869140625,-0.7415898442268372,0.4915934205055237,0.3341430425643921
1781591812154422000,35.798422119140625,-0.2381609082221985,-0.5293143391609192,0.4571559429168701
1781591812202935300,35.84693530273437,-0.4470766484737396,0.3659079968929291,-0.09430225193500519
1781591812251448600,35.89544848632813,-0.9976949095726013,-0.5403862595558167,-1.1168135404586792
1781591812299961900,35.9439619140625,0.13698641955852509,-0.009162971749901772,-0.6578249931335449
1781591812348475100,35.99247509765625,0.9474512934684753,0.04978547990322113,-0.47235119342803955
1781591812396988400,36.040988525390624,1.182176113128662,0.4760163724422455,-0.9879210591316223
1781591812445501400,36.08950146484375,0.72173672914505,0.9532544612884521,-1.257465124130249
1781591812494015000,36.13801489257813,0.6601921319961548,1.462944746017456,-1.5115848779678345
1781591812542528000,36.186528076171875,1.0143409967422485,1.0799325704574585,-1.0665699243545532
1781591812591041300,36.23504125976562,0.14752385020256042,0.6642391085624695,0.1922696828842163
1781591812639554600,36.28355444335938,0.17600540816783905,-0.19509494304656982,-0.24281874299049377
1781591812688067800,36.33206787109375,0.062537282705307,-0.4304305911064148,0.647516667842865
1781591812736581000,36.3805810546875,-0.40630143880844116,0.35155269503593445,1.9775983095169067
1781591812785094400,36.429094482421874,0.08826996386051178,-0.33834272623062134,2.497978687286377
1781591812833607700,36.47760766601562,0.18295399844646454,-0.887891948223114,2.064035654067993
1781591812882121000,36.52612084960938,-1.175074815750122,0.036880962550640106,-0.8691841959953308
1781591812930634200,36.57463427734375,-0.9440151453018188,-0.23327398300170898,-0.054672397673130035
1781591812979147500,36.6231474609375,-0.15699224174022675,-1.0282381772994995,0.5990293025970459
1781591813027660800,36.67166088867187,0.5005273222923279,-0.8753692507743835,-0.32559093832969666
1781591813076174000,36.72017407226563,0.12774710357189178,-0.699287474155426,-0.5240456461906433
1781591813124687400,36.768687255859376,-0.6003273725509644,0.10247256606817245,0.7521272301673889
1781591813173200400,36.817200439453124,0.03543015569448471,-0.41294458508491516,0.4379900395870209
1781591813221714000,36.8657138671875,-1.2706750631332397,0.11392628401517868,-0.646065890789032
1781591813270227000,36.91422705078125,-0.46143198013305664,-0.5090031027793884,-0.739757239818573
1781591813318740200,36.962740234375,0.6849321126937866,0.1536324918270111,-0.6502655744552612
1781591813367253500,37.01125341796875,0.8253546953201294,0.3704894781112671,-0.9705877900123596
1781591813415766800,37.05976684570312,1.019762396812439,0.38408124446868896,-1.2324960231781006
1781591813464280000,37.10828002929688,0.7958040833473206,0.49144071340560913,-1.0344231128692627
1781591813512793300,37.15679345703125,0.878118097782135,0.9317978620529175,-1.3871212005615234
1781591813561306600,37.205306640625,0.5180133581161499,0.7471640110015869,-0.7706059217453003
1781591813609820000,37.25381982421875,0.16989676654338837,0.6414080262184143,0.41011935472488403
1781591813658333200,37.30233325195312,0.29626941680908203,-0.39370235800743103,0.11323905736207962
1781591813706846500,37.35084643554688,-0.3633118271827698,-0.6044507026672363,1.7200424671173096
1781591813755359500,37.399359375,-0.43921178579330444,-0.3640754222869873,2.0979387760162354
1781591813803873000,37.447873046875,0.1360701322555542,-0.6625592112541199,2.610912322998047
1781591813852386000,37.49638598632812,-0.6010909676551819,-0.6077340841293335,0.46135562658309937
1781591813900899300,37.5448994140625,-1.0742820501327515,-0.05780307948589325,-0.5978075265884399
1781591813949412600,37.59341259765625,-0.6175842881202698,-0.6514109373092651,0.7234929800033569
1781591813997926000,37.64192578125,0.12018764764070511,-1.2491421699523926,0.21135921776294708
1781591814046439200,37.69043920898437,0.49258607625961304,-1.0264818668365479,-0.4904480576515198
1781591814094952400,37.73895239257813,-0.49831295013427734,-0.1285870373249054,0.19761475920677185
1781591814143465700,37.7874658203125,-0.4251618981361389,-0.5414552688598633,0.6000983119010925
1781591814191978800,37.835978759765624,-0.24251331388950348,0.21441353857517242,-0.07139482349157333
1781591814240492000,37.88449194335937,-0.4511236250400543,-0.42882707715034485,-0.8930842876434326
1781591814289005300,37.93300537109375,-0.26763513684272766,-0.3808741867542267,-0.614682674407959
1781591814337518600,37.9815185546875,0.6785180568695068,-0.7142536640167236,-0.5235111117362976
1781591814386031900,38.030031982421875,1.5274673700332642,-0.3295615613460541,-0.5643627047538757
1781591814434545200,38.07854516601562,1.0811543464660645,0.6795107126235962,-0.7715985774993896
1781591814483058400,38.12705834960938,0.3571268320083618,1.4553853273391724,-1.4557671546936035
1781591814531571500,38.175571533203126,0.9058361053466797,2.342055559158325,-1.5569416284561157
1781591814580084700,38.224084716796874,0.5956695079803467,2.3170864582061768,-0.0824667438864708
1781591814628598000,38.27259790039062,0.20578506588935852,1.3812416791915894,0.3393353819847107
1781591814677111300,38.321111328125,0.2700785994529724,-0.2903134822845459,0.0204639695584774
1781591814725624600,38.36962451171875,-0.02306014485657215,0.14882193505764008,1.2727367877960205
1781591814774137600,38.4181376953125,0.06123919412493706,0.39110618829727173,2.1927754878997803
1781591814822651100,38.46665112304687,0.48823368549346924,-1.2398264408111572,2.5492913722991943
1781591814871164200,38.5151640625,-0.8701768517494202,-0.9271399974822998,0.3643808364868164
1781591814919677400,38.563677490234376,-1.275256633758545,-0.2569449841976166,-1.1425461769104004
1781591814968190700,38.612190673828124,-0.7860302329063416,-0.6959276795387268,0.4738783538341522
1781591815016704000,38.6607041015625,0.05719221383333206,-1.522962212562561,0.34895649552345276
1781591815065217300,38.70921728515625,0.44440412521362305,-1.0586286783218384,-0.3943132162094116
1781591815113730300,38.757730224609375,-0.5180133581161499,-0.41928231716156006,0.07383827865123749
1781591815162243600,38.80624365234375,-0.30489787459373474,-0.35613417625427246,0.4197404682636261
1781591815210756900,38.8547568359375,-0.4120282828807831,0.31238096952438354,-0.16554436087608337
1781591815259270100,38.90327026367188,-0.9824233055114746,-0.4309650957584381,-1.0803906917572021
1781591815307783400,38.951783447265626,-0.1484401375055313,-0.6502655744552612,-0.7144063711166382
1781591815404809700,39.04880981445312,1.5406773090362549,0.07460185885429382,-0.7993929386138916
1781591815453323000,39.09732299804688,0.9812778830528259,0.9211840629577637,-1.0745874643325806
1781591815501836300,39.145836181640625,0.439364492893219,1.292437195777893,-1.416290044784546
1781591815550349600,39.194349609375,0.7363975048065186,1.7782273292541504,-1.050458312034607
1781591815598862600,39.24286254882813,0.010079269297420979,1.6129120588302612,0.8217658400535583
1781591815647376000,39.2913759765625,0.36712974309921265,0.11148282140493393,-0.06849320977926254
1781591815695889200,39.33988916015625,0.5518399477005005,-0.7236456871032715,0.2903134822845459
1781591815744402400,39.38840234375,0.10323614627122879,0.07544180005788803,1.8825324773788452
1781591815792915700,39.43691577148437,0.5792525410652161,-0.8020654320716858,2.2853214740753174
1781591815841428700,39.4854287109375,0.35735589265823364,-1.4584397077560425,2.5739550590515137
1781591815889942000,39.53394189453125,-1.3694061040878296,-0.1314886510372162,-0.5768090486526489
1781591815938455300,39.58245532226562,-1.2050834894180298,-0.36285367608070374,-0.6802743077278137
1781591815986968300,39.63096826171875,-0.4283689260482788,-1.0735948085784912,0.9541707634925842
1781591816035481600,39.67948168945313,0.3909534513950348,-1.151021957397461,-0.07269290834665298
1781591816083995000,39.727994873046875,0.3491092324256897,-1.0512219667434692,-0.5305360555648804
1781591816132508200,39.77650805664062,-0.42042768001556396,-0.39255696535110474,0.4237110912799835
1781591816181021400,39.825021484375,-0.3165042996406555,0.17592905461788177,0.3644571900367737
1781591816229534500,39.873534423828126,-0.9352339506149292,0.6731730103492737,-0.7737365961074829
1781591816278047700,39.9220478515625,-0.5344303250312805,-0.08063415437936783,-0.7420479655265808
1781591816326561000,39.97056103515625,0.25900667905807495,-0.35246896743774414,-0.7160098552703857
1781591816375074000,40.01907397460938,1.1212422847747803,-0.131717711687088,-0.5681806206703186
1781591816423587300,40.06758740234375,1.1707223653793335,0.7592285871505737,-0.9740238785743713
1781591816472100600,40.1161005859375,0.6158280372619629,1.1711041927337646,-1.2695297002792358
1781591816520614000,40.16461376953125,0.6254491806030273,1.9437717199325562,-1.4231622219085693
1781591816569127200,40.21312719726563,0.46662431955337524,1.8017456531524658,-0.6310997009277344
1781591816617640200,40.26164013671875,0.04955640435218811,1.6258165836334229,0.8113048076629639
1781591816666153500,40.310153564453124,0.4701367914676666,0.004810560029000044,-0.2848156988620758
1781591816714666800,40.35866674804687,0.44432777166366577,-0.669126033782959,0.6860011219978333
1781591816763179800,40.4071796875,0.266107976436615,-0.04848739132285118,2.0555598735809326
1781591816811693000,40.455693115234375,0.43722647428512573,-1.1684316396713257,2.277609348297119
1781591816860206300,40.50420629882812,-0.04696023091673851,-1.187368392944336,1.91414475440979
1781591816908719400,40.55271923828125,-1.4441606998443604,0.08063415437936783,-0.8625410795211792
1781591816957232600,40.601232666015626,-1.053436279296875,-0.46250098943710327,-0.11438442766666412
1781591817005746000,40.649745849609374,-0.26542073488235474,-1.1148282289505005,0.7221949100494385
1781591817054259200,40.69825927734375,0.4462367296218872,-0.9237039089202881,-0.43027788400650024
1781591817102772200,40.74677221679688,0.2836703360080719,-1.0787107944488525,-0.6266708970069885
1781591817151285500,40.795285400390625,-0.8875865340232849,0.11384992301464081,0.7583122849464417
1781591817199798800,40.843798828125,-0.002672533504664898,-0.10163262486457825,-0.22808164358139038
1781591817248312000,40.89231201171875,-0.6447677612304688,0.39568766951560974,-0.6367501616477966
1781591817296825000,40.9408251953125,-0.7574723362922668,-0.34460410475730896,-1.1126902103424072
1781591817345338400,40.98933837890625,0.31436628103256226,-0.5858956575393677,-0.7964913249015808
1781591817393851600,41.0378515625,1.3818525075912476,-0.2049451321363449,-0.3292561173439026
1781591817442364700,41.08636474609375,1.459737777709961,1.1184934377670288,-0.9685261249542236
1781591817490878000,41.1348779296875,0.6154462695121765,1.6307035684585571,-1.2122611999511719
1781591817539391200,41.18339111328125,0.495258629322052,2.0484585762023926,-1.5442661046981812
1781591817604801500,41.24880151367187,-0.020922118797898293,1.3017528057098389,1.2466223239898682
1781591817653314600,41.297314453125,0.2655734717845917,0.19608759880065918,0.03634645417332649
1781591817701827800,41.345827880859375,0.17134757339954376,-0.6730966567993164,0.16562071442604065
1781591817750341000,41.39434106445312,0.3300960659980774,-0.06322450190782547,2.0610578060150146
1781591817798854100,41.44285424804688,0.4082867503166199,-0.7580068111419678,2.299294948577881
1781591817847367400,41.491367431640626,0.22304199635982513,-1.0491602420806885,2.4904956817626953
1781591817944393700,41.58839379882812,-1.2003493309020996,-0.07819069176912308,-0.6869937777519226
1781591817992906800,41.63690673828125,-0.5115992426872253,-0.8452077507972717,0.9012545943260193
1781591818041420000,41.685419921875,0.35498878359794617,-1.0664935111999512,-0.18501566350460052
1781591818089933300,41.73393334960937,0.3568213880062103,-0.9547052979469299,-0.551152765750885
1781591818138446300,41.7824462890625,-0.7272345423698425,-0.01259908638894558,0.5413025617599487
1781591818186959600,41.830959716796876,-0.25465425848960876,-0.36621344089508057,0.2130390852689743
1781591818235472600,41.87947265625,-0.8091667294502258,0.16310089826583862,-0.4825831651687622
1781591818283985700,41.92798559570313,-0.652556300163269,-0.95149827003479,-0.8567378520965576
1781591818332499200,41.97649926757813,0.06963858753442764,-1.6377284526824951,-0.6714931130409241
1781591818381012500,42.025012451171875,1.4785982370376587,-1.0781763792037964,-0.4311941862106323
1781591818429525500,42.073525390625,1.795026183128357,0.31673339009284973,-0.8940005898475647
1781591818478038800,42.12203881835938,0.6026180982589722,1.1991275548934937,-1.1117738485336304
1781591818526551800,42.1705517578125,0.6459131240844727,1.6643010377883911,-1.4961605072021484
1781591818575064800,42.21906494140625,0.7795398235321045,1.905592679977417,-0.7631227970123291
1781591818623578400,42.26757836914062,0.4082867503166199,1.689117431640625,0.6703477501869202
1781591818672091400,42.31609130859375,0.06765327602624893,0.04199695214629173,-0.26564982533454895
1781591818720604700,42.364604736328126,0.07910698652267456,-0.0824667438864708,1.1004729270935059
1781591818769118000,42.41311791992187,0.39889469742774963,0.028405211865901947,1.9646174907684326
1781591818817631000,42.461630859375,0.21021384000778198,-1.76333749294281,2.755305528640747
1781591818866144000,42.51014404296875,-0.16386447846889496,-0.8128319382667542,1.2470804452896118
1781591818914657300,42.5586572265625,-1.7376048564910889,-0.3047451674938202,-0.5705476999282837
1781591818963170600,42.60717065429687,-0.8410844206809998,0.08063415437936783,-0.11171189695596695
1781591819011683600,42.65568359375,-0.10216713696718216,-0.9046143889427185,0.4284452795982361
1781591819060196900,42.70419677734375,0.500298261642456,-1.0526727437973022,-0.41386088728904724
1781591819108710100,42.752710205078124,-0.09529490768909454,-0.4269944727420807,0.13362666964530945
1781591819157223200,42.80122314453125,-0.5784889459609985,-0.4572322964668274,0.7308996915817261
1781591819254249700,42.898249755859375,-0.6678279042243958,-0.3344484567642212,-1.019685983657837
1781591819302762800,42.9467626953125,-0.2568686306476593,-0.24251331388950348,-0.9844849705696106
1781591819351276000,42.99527612304688,0.6716458201408386,-0.5118283033370972,-0.7987820506095886
1781591819399789000,43.0437890625,1.5292235612869263,-0.019853105768561363,-0.7599157691001892
1781591819448302300,43.09230224609375,1.0183879137039185,0.6110938787460327,-1.0867284536361694
1781591819496815400,43.1408154296875,0.4488328993320465,1.304807186126709,-1.682092547416687
1781591819545328400,43.189328369140625,0.8127555847167969,2.1054980754852295,-1.342680811882019
1781591819593841700,43.23784155273437,0.11201732605695724,1.6699515581130981,0.845894992351532
1781591819642355000,43.28635498046875,0.06215549260377884,0.3390299379825592,0.14813470840454102
1781591819690868200,43.3348681640625,0.13828451931476593,0.22548545897006989,-0.04741837829351425
1781591819739381200,43.38338134765625,0.5553524494171143,1.4911209344863892,0.8790343999862671
1781591819787894500,43.43189453125,0.8025236129760742,-1.3229039907455444,2.0360124111175537
1781591819836407600,43.48040747070313,0.23648102581501007,-1.4869976043701172,1.7730350494384766
1781591819884920800,43.5289208984375,-1.7986913919448853,-1.6543744802474976,1.147204041481018
1781591819933433900,43.577433837890624,-0.9211840629577637,-1.310457706451416,-0.2341139316558838
1781591819981947100,43.62594702148437,-0.4837285578250885,-1.9380449056625366,0.42012226581573486
1781591820030460200,43.67446020507813,0.45616328716278076,-1.7622685432434082,0.21838416159152985
1781591820078973400,43.722973388671875,0.5962803959846497,-1.2510510683059692,0.10445787757635117
1781591820127486700,43.77148681640625,-0.7480039000511169,-0.06719512492418289,0.7095194458961487
1781591820175999700,43.81999975585938,-0.07002037763595581,-0.22067490220069885,0.2637408673763275
1781591820273026000,43.917026123046874,-0.6857720613479614,-0.21296273171901703,-1.2756383419036865
1781591820321539300,43.96553930664062,0.3675878942012787,-0.15088360011577606,-1.0123556852340698
1781591820370052400,44.01405224609375,1.3166426420211792,0.2577849328517914,-0.22617268562316895
1781591820418565600,44.062565673828125,1.6042072772979736,1.7212642431259155,-1.0122029781341553
1781591820467078700,44.11107861328125,1.1695005893707275,1.4477494955062866,-1.2736530303955078
1781591820515592000,44.15959204101563,0.2283107042312622,2.1649811267852783,-1.356501579284668
1781591820564105200,44.208105224609376,0.19998185336589813,1.500512957572937,-0.35590508580207825
1781591820612618200,44.2566181640625,0.2297615110874176,0.8312342762947083,0.6530144214630127
1781591820661131500,44.30513159179687,0.23029601573944092,0.14317142963409424,-0.5100721120834351
1781591820709644500,44.35364453125,-0.06963858753442764,0.06559160351753235,1.8070143461227417
1781591820806670800,44.4506708984375,0.7199041247367859,-1.391702651977539,1.9438481330871582
1781591820855184100,44.49918408203125,-1.8769583702087402,-1.7192789316177368,1.1568251848220825
1781591820903697200,44.547697265625,-1.0491602420806885,-1.1100940704345703,0.5900954008102417
1781591820952210400,44.59621044921875,-0.5782598853111267,-0.799774706363678,0.1334739476442337
1781591821000723700,44.6447236328125,0.22204934060573578,-1.4116321802139282,-0.0243582334369421
1781591821049236700,44.69323681640625,0.3415497839450836,-0.8713986277580261,-0.574212908744812
1781591821097750000,44.74175,-0.746858537197113,-0.33719736337661743,0.4203513264656067
1781591821146263000,44.79026293945312,-0.28580835461616516,-0.3727802336215973,0.016187917441129684
1781591821194776300,44.8387763671875,-0.747469425201416,0.7806851863861084,-0.38209593296051025
1781591821243289300,44.887289306640625,-0.8255837559700012,-0.10934479534626007,-1.346498727798462
1781591821291802600,44.935802734375,-0.08674279600381851,-0.2954294681549072,-1.0923789739608765
1781591821340315600,44.98431567382813,1.3833032846450806,-0.48075059056282043,-0.555276095867157
1781591821388829000,45.032828857421876,2.220111608505249,1.1139118671417236,-0.9932661056518555
1781591821437342000,45.081342041015624,0.598723828792572,1.1441497802734375,-1.0793217420578003
1781591821485855200,45.12985522460937,0.08048143237829208,1.732641577720642,-1.1896591186523438
1781591821534368300,45.1783681640625,0.857730507850647,1.5021164417266846,-0.5149590373039246
1781591821582881500,45.226881591796875,0.2098320573568344,1.1808016300201416,0.6136136651039124
1781591821631394600,45.27539453125,-0.03413207083940506,-0.11087195575237274,-0.5489383339881897
1781591821679907800,45.32390795898438,0.03237583488225937,-0.3961458206176758,1.0387755632400513
1781591821728420900,45.3724208984375,0.18264856934547424,-1.7914372682571411,0.8664353489875793
1781591821776934100,45.42093408203125,0.3087157905101776,-2.5210390090942383,2.329303741455078
1781591821825447400,45.46944750976562,-0.7231875658035278,-0.6851612329483032,0.6941714882850647
1781591821873960400,45.51796044921875,-1.7647119760513306,-0.826423704624176,1.2431098222732544
1781591821922473700,45.5664736328125,-0.794124186038971,-1.700036644935608,-0.0005345066892914474
1781591821970987000,45.61498706054687,0.03711003437638283,-2.387641429901123,0.3266599476337433
1781591822019499800,45.66349975585938,0.6661480665206909,-2.0496039390563965,-0.41897687315940857
1781591822068013300,45.71201342773438,-0.10079269111156464,-0.9983057379722595,0.04932733252644539
1781591822116526300,45.7605263671875,-0.674165666103363,-0.10972658544778824,0.8902590870857239
1781591822165039600,45.80903955078125,-0.3811796307563782,0.05222893878817558,0.15416699647903442
1781591822213552600,45.857552734375,-1.0538945198059082,-0.7790052890777588,-0.8785762786865234
1781591822262066000,45.90606591796875,0.9890664219856262,1.425147533416748,-2.9707882404327393
1781591822310579000,45.95457885742187,0.7318159937858582,-2.2956297397613525,0.32360562682151794
1781591822407605200,46.051605224609375,0.6270527243614197,1.4760783910751343,-0.890564501285553
1781591822456118500,46.10011840820312,0.8584941029548645,1.627649188041687,-1.1432334184646606
1781591822504631600,46.14863159179688,1.1875211000442505,1.8114430904388428,-1.1110867261886597
1781591822553144800,46.197144775390626,0.8220712542533875,0.8929315805435181,0.19188790023326874
1781591822601658000,46.245658203125,0,1.3239730596542358,0.0631481483578682
1781591822650171100,46.29417114257812,-0.2369391769170761,-0.14393500983715057,0.6752346754074097
1781591822698684400,46.34268432617188,0.24892739951610565,-0.49250972270965576,1.70011305809021
1781591822747197400,46.391197509765625,0.4661661982536316,-1.1475094556808472,2.584416151046753
1781591822795710700,46.43971069335937,-0.2110537886619568,-0.12476912885904312,0.6921098232269287
1781591822844223700,46.4882236328125,-1.7059162855148315,-0.06490438431501389,1.078863501548767
1781591822892737000,46.536737060546876,-0.7867174744606018,-0.8106175661087036,-0.0781143307685852
1781591822941250000,46.58525,-0.05451968312263489,-2.0717480182647705,0.5940660238265991
1781591822989763000,46.63376318359375,0.5211440324783325,-1.8207588195800781,-0.11911863088607788
1781591823038276400,46.6822763671875,-0.3027598559856415,-1.1100940704345703,-0.36804601550102234
1781591823086789600,46.73078955078125,-0.49739664793014526,-0.08017600327730179,0.2952767610549927
1781591823135302700,46.779302734375,-0.10109812021255493,0.31932955980300903,0.4099666178226471
1781591823183816000,46.82781591796875,-1.1941642761230469,0.1625663936138153,-0.8281035423278809
1781591823232329000,46.876328857421875,-0.38270679116249084,-0.5185478329658508,-0.4402044415473938
1781591823280842200,46.92484228515625,0.7658717036247253,-0.42386379837989807,-0.41783151030540466
1781591823329355300,46.97335522460938,1.5054762363433838,0.646905779838562,-0.5589412450790405
1781591823377868500,47.02186865234375,1.0903936624526978,2.12481689453125,-0.9172898530960083
1781591823426381600,47.070381591796874,0.7727439403533936,2.1765875816345215,-1.7816635370254517
1781591823474894800,47.11889477539062,0.3044397234916687,1.7049236297607422,-0.6130027770996094
1781591823523408100,47.167408203125,0.026878049597144127,1.2219586372375488,0.5453495383262634
1781591823571921200,47.215921142578125,0.4802160859107971,0.48655378818511963,-0.07490729540586472
1781591823620434200,47.26443408203125,0.38209593296051025,-0.025045456364750862,0.34636032581329346
1781591823668947500,47.31294750976563,0.499381959438324,0.765489935874939,1.87932550907135
1781591823717460700,47.361460693359376,1.0122029781341553,1.5280019044876099,1.2331832647323608
1781591823765974000,47.40997412109375,0.45799586176872253,-0.8013782501220703,1.4572179317474365
1781591823814487000,47.45848706054687,-2.2405755519866943,-1.2778527736663818,1.4911972284317017
1781591823863000300,47.50700024414063,-1.0105230808258057,-0.5054906010627747,-0.5267181396484375
1781591823911513300,47.555513427734375,-0.2960403561592102,-1.2363903522491455,0.42340564727783203
1781591824008539600,47.65253955078125,0.49136435985565186,-1.3845250606536865,-0.4508182108402252
1781591824057053000,47.70105297851563,-0.6136136651039124,-0.61201012134552,0.48586657643318176
1781591824105566000,47.74956591796875,-0.3064250349998474,-0.49510589241981506,0.08949168771505356
1781591824154079200,47.79807934570312,-0.3185659945011139,0.41011935472488403,-0.250149130821228
1781591824202592300,47.84659228515625,-0.7767909169197083,-0.26503896713256836,-1.0526727437973022
1781591824251105500,47.89510546875,-0.21555891633033752,-0.2294560819864273,-0.8696423768997192
1781591824299618600,47.94361865234375,0.8821650743484497,-0.009315688163042068,-0.5862011313438416
1781591824348131800,47.9921318359375,1.658497929573059,0.8743765950202942,-0.7574723362922668
1781591824396644900,48.040644775390625,0.8214604258537292,1.9666792154312134,-1.0461822748184204
1781591824445158100,48.089158203125,0.43004879355430603,1.4679080247879028,-1.4825688600540161
1781591824493671200,48.13767114257813,0.5528326034545898,1.646891474723816,-0.9456186890602112
1781591824542184400,48.186184326171876,-0.012980876490473747,1.3910154104232788,0.4341721534729004
1781591824590697500,48.234697509765624,0.1735619604587555,0.4708240330219269,0.015271619893610477
1781591824639210800,48.28321069335937,0.5408443808555603,-0.7180715203285217,0.4125627875328064
1781591824687723800,48.33172387695313,0.8197805285453796,1.3484840393066406,1.4811943769454956
1781591824736237000,48.380237060546875,0.7467821836471558,-0.42187848687171936,1.4284309148788452
1781591824784750000,48.42875,0.2732856273651123,-1.6515493392944336,1.5832087993621826
1781591824833263400,48.47726342773438,-1.9010112285614014,-1.9162827730178833,0.9399681687355042
1781591824881776400,48.5257763671875,-1.1246020793914795,-0.435241162776947,0.1905898153781891
1781591824930289700,48.57428955078125,-0.47151124477386475,-1.2508219480514526,0.3038288652896881
1781591824978802700,48.622802734375,0.25350889563560486,-1.1984403133392334,-0.19845469295978546
1781591825027316000,48.67131591796875,0.2208276242017746,-1.3605486154556274,-0.4079813063144684
1781591825075829000,48.7198291015625,-0.7354812026023865,-0.4101957082748413,0.4169152081012726
1781591825124342300,48.76834228515625,-0.12736530601978302,0.08582650125026703,0.012217295356094837
1781591825172855300,48.81685522460938,-1.0333541631698608,0.7579304575920105,-0.39828383922576904
1781591825221368600,48.86536865234375,-0.35101816058158875,-0.11827868968248367,-1.0693951845169067
1781591825269881900,48.9138818359375,0.3514763116836548,-0.592233419418335,-0.9198859930038452
1781591825318395000,48.96239477539063,1.5748857259750366,-0.056810423731803894,-0.5776489973068237
1781591825366908200,49.010908203125,1.2689951658248901,1.3490184545516968,-1.1707223653793335
1781591825415421200,49.059421142578124,0.23503021895885468,1.1142936944961548,-1.207221508026123
1781591825512447500,49.15644750976563,0.3413206934928894,1.2834268808364868,0.018402300775051117
1781591825560960800,49.204960693359375,0.06811141967773438,0.8359684348106384,0.5062541961669922
1781591825609473800,49.25347387695312,0.3455967605113983,-0.17974695563316345,-0.26389357447624207
1781591825657987000,49.30198706054688,0.7171552777290344,0.9208786487579346,1.0904699563980103
1781591825706500000,49.3505,0.537790060043335,-0.1614210158586502,1.7689117193222046
1781591825755013400,49.399013427734374,0.906828761100769,-1.9822561740875244,2.1185553073883057
1781591825803526400,49.4475263671875,-1.4401136636734009,-1.5360958576202393,1.1470513343811035
1781591825852039400,49.496039306640625,-1.5044835805892944,-1.3473386764526367,-0.15554144978523254
1781591825900552700,49.544552734375,-0.7826704978942871,-1.3811652660369873,0.1721111536026001
1781591825949066000,49.59306591796875,0.08086322247982025,-2.156276226043701,0.27572908997535706
1781591825997579000,49.6415791015625,0.6180424690246582,-1.3471095561981201,-0.4972439408302307
1781591826046092300,49.69009228515625,-0.30085089802742004,-0.401949018239975,0.1986074149608612
1781591826094605300,49.73860522460937,-0.2625955045223236,-0.2716057598590851,0.370184063911438
1781591826143118300,49.78711840820313,-0.5342012643814087,0.7426588535308838,-0.04459312930703163
1781591826191631600,49.835631591796876,-0.7971785664558411,-0.1026252806186676,-1.0192278623580933
1781591826240144600,49.88414453125,0.03649916872382164,-0.4984656572341919,-0.9114102721214294
1781591826288658000,49.93265795898437,1.12055504322052,-0.16959133744239807,-0.6317868828773499
1781591826337171000,49.9811708984375,1.7721186876296997,1.0104466676712036,-0.7901535630226135
1781591826385684200,50.029684326171875,0.5387827157974243,1.226463794708252,-1.0314451456069946
1781591826434197200,50.078197265625,0.5317577719688416,1.8825324773788452,-1.3703224658966064
1781591826482710500,50.12671044921875,0.5784889459609985,1.3795617818832397,-0.8863648176193237
1781591826531223600,50.1752236328125,-0.14782927930355072,1.3797907829284668,0.6787471175193787
1781591826579736600,50.22373657226562,0.5151880979537964,0.5274053812026978,-0.08139773458242416
1781591826628249900,50.27224975585938,0.6092612743377686,-0.38270679116249084,0.7855721116065979
1781591826676763000,50.320762939453125,0.7254019379615784,1.5396846532821655,1.619020700454712
1781591826725276200,50.36927612304687,1.0106757879257202,-0.23365578055381775,1.7201951742172241
1781591826773789200,50.4177890625,-0.036193739622831345,-1.495167851448059,1.5274673700332642
1781591826822302500,50.466302490234376,-2.330754518508911,-2.1012985706329346,1.1240675449371338
1781591826870815500,50.5148154296875,-1.0266345739364624,-0.2464839369058609,-0.408592164516449
1781591826919328800,50.56332885742187,-0.23739732801914215,-1.707137942314148,0.5479456782341003
1781591826967841800,50.611841796875,0.6323214173316956,-1.4152973890304565,-0.15431971848011017
1781591827016355000,50.66035498046875,0.13484840095043182,-1.0540472269058228,-0.23915356397628784
1781591827113381400,50.75738134765625,0.1755472719669342,-0.09873101860284805,0.06742420047521591
1781591827161894400,50.805894287109375,-0.8347467184066772,0.3095557391643524,-0.8282563090324402
1781591827210407700,50.85440771484375,-0.776103675365448,-0.2542724609375,-0.9985348582267761
1781591827258920700,50.90292065429688,0.4577668011188507,-0.09651663154363632,-0.6079631447792053
1781591827307434000,50.95143408203125,1.5099049806594849,-0.035735588520765305,-0.4024835228919983
1781591827355947000,50.999947021484374,1.4335469007492065,1.8658101558685303,-0.9880737662315369
1781591827404460300,51.04846020507812,0.32009315490722656,1.406516194343567,-1.4860049486160278
1781591827452973300,51.09697338867188,0.3623191714286804,2.1234424114227295,-1.3015238046646118
1781591827501486300,51.145486328125,0.42882707715034485,1.3435970544815063,-0.09117157012224197
1781591827549999600,51.19399951171875,0.1727220118045807,1.026863694190979,0.6335431337356567
1781591827598512600,51.2425126953125,0.2467893660068512,-0.049480047076940536,-0.377285361289978
1781591827647025700,51.291025634765624,0.6185005903244019,1.5244131088256836,1.468595266342163
1781591827695539000,51.3395390625,0.7304415702819824,-0.517707884311676,1.42216956615448
1781591827744051700,51.3880517578125,0.6363683938980103,-1.3853650093078613,1.9994367361068726
1781591827792565200,51.436565185546876,-1.8923827409744263,-0.9089667797088623,0.9263001084327698
1781591827841078300,51.48507836914062,-1.2783108949661255,-0.8944587707519531,-0.04718930274248123
1781591827889591300,51.53359130859375,-0.5319868922233582,-1.4278963804244995,0.19853104650974274
1781591827938104300,51.582104248046875,0.30604326725006104,-1.395520567893982,0.36254823207855225
1781591827986617600,51.63061767578125,0.5326740741729736,-1.2569305896759033,-0.20357069373130798
1781591828035130600,51.67913061523438,-0.48884454369544983,-0.3990474045276642,0.261526495218277
1781591828083644000,51.727643798828126,-0.17951788008213043,-0.1862373948097229,0.15523600578308105
1781591828132157000,51.776156982421874,-0.8641445636749268,0.6296488642692566,-0.511217474937439
1781591828180670000,51.824669921875,-0.7307469844818115,0.1014799103140831,-1.0956623554229736
1781591828229183200,51.87318334960938,0.09834922850131989,-0.490066260099411,-0.6926442980766296
1781591828277696300,51.9216962890625,1.4732531309127808,-0.44646579027175903,-0.3707185685634613
1781591828326209500,51.97020947265625,1.7079778909683228,1.0958913564682007,-0.8630755543708801
1781591828374722300,52.018722412109376,0.29626941680908203,1.2873975038528442,-1.0840559005737305
1781591828423235600,52.067235595703124,0.23487751185894012,1.9515602588653564,-1.3500111103057861
1781591828471748900,52.11574877929687,0.5555815100669861,1.3781108856201172,-0.7275399565696716
1781591828520262000,52.16426196289063,0.06849320977926254,1.2219586372375488,0.5879573225975037
1781591828568775000,52.21277490234375,0.17394374310970306,0.5317577719688416,-0.517707884311676
1781591828617288200,52.2612880859375,0.40950846672058105,0.7271581888198853,0.6472112536430359
1781591828714314200,52.358314208984375,0.7259364128112793,-1.7299690246582031,1.4771473407745361
1781591828762827500,52.40682763671875,-0.7070759534835815,-1.117577075958252,1.2463932037353516
1781591828811340500,52.45534057617188,-1.7788382768630981,-1.5776346921920776,0.7237220406532288
1781591828859853600,52.503853515625,-0.984255850315094,-1.0679444074630737,-0.10254892706871033
1781591828908366800,52.552366943359374,-0.09407317638397217,-1.916817307472229,0.6451495885848999
1781591828956880000,52.6008798828125,0.693026065826416,-1.472795009613037,-0.32673630118370056
1781591829005393000,52.649392822265625,0.1078176349401474,-0.6246092319488525,-0.30375251173973083
1781591829053906200,52.69790625,-0.48212501406669617,-0.052687086164951324,0.6110938787460327
1781591829102419500,52.74641943359375,-0.1813504844903946,0.2407570779323578,0.1582903414964676
1781591829150932500,52.794932373046876,-0.8533781170845032,0.22930335998535156,-0.8865175247192383
1781591829199445500,52.843445556640624,-0.3481929302215576,-0.4013381600379944,-0.7892373204231262
1781591829247958800,52.89195874023437,0.5687150955200195,-0.4220311939716339,-0.6232348084449768
1781591829296471800,52.94047192382813,1.6951497793197632,0.09491311758756638,-0.5871937870979309
1781591829344984800,52.98898486328125,1.2522728443145752,1.6251293420791626,-1.158199667930603
1781591829393498000,53.037498046875,0.19799654185771942,1.313359260559082,-1.40559983253479
1781591829442011100,53.08601123046875,0.7165443897247314,1.8820743560791016,-1.0190751552581787
1781591829490524200,53.134524169921875,-0.003665188793092966,1.2081378698349,0.4571559429168701
1781591829539037400,53.18303735351562,0.3110065162181854,0.5524508357048035,0.12713623046875
1781591829587550500,53.23155053710938,0.2427423894405365,-0.20677772164344788,-0.15699224174022675
1781591829636063200,53.280063232421874,0.42852163314819336,1.1916444301605225,1.4152209758758545
1781591829684576500,53.32857641601562,0.667904257774353,-0.2341139316558838,1.5746567249298096
1781591829733089800,53.37708984375,0.9456950426101685,-1.4950915575027466,1.5172353982925415
1781591829781602800,53.425602783203125,-1.923918604850769,-0.9166789650917053,0.9639446139335632
1781591829830115800,53.47411572265625,-1.3796380758285522,-1.2496002912521362,0.34643667936325073
1781591829878629000,53.52262915039063,-0.5613083839416504,-1.255937933921814,0.10048725455999374
1781591829927142000,53.571141845703124,0.3462076187133789,-1.6563597917556763,0.3026835024356842
1781591829975655200,53.6196552734375,0.5451968312263489,-1.4340814352035522,-0.29443681240081787
1781591830024168200,53.66816821289063,-0.4428006112575531,-0.3533852696418762,0.12774710357189178
1781591830072681500,53.716681396484375,-0.3081812858581543,-0.37033677101135254,0.18387030065059662
1781591830121194500,53.76519458007812,-0.2343430072069168,0.5138136148452759,-0.17890702188014984
1781591830169707500,53.81370751953125,-0.9691369533538818,-0.34605491161346436,-1.296789526939392
1781591830218220800,53.862220703125,-0.32734715938568115,-0.4134790897369385,-0.8895718455314636
1781591830315246800,53.95924682617188,1.9788200855255127,0.9061415195465088,-0.6466003656387329
1781591830363759900,54.007759765625,1.0406081676483154,1.7206534147262573,-0.9202677607536316
1781591830412273200,54.056273193359374,-0.20273074507713318,1.4127775430679321,-1.0719913244247437
1781591830460786200,54.1047861328125,0.8219185471534729,1.501734733581543,-1.088331937789917
1781591830509299200,54.15329931640625,0.01000291109085083,1.2146282196044922,0.4257727563381195
1781591830557812200,54.20181225585937,0.1594357043504715,0.6062833070755005,-0.043142326176166534
1781591830606325200,54.2503251953125,0.45944666862487793,0.10575596243143082,0.1297324001789093
1781591830654838500,54.298838623046876,0.5659661889076233,1.2227985858917236,1.7104977369308472
1781591830703351600,54.3473515625,0.6152172088623047,-0.8545234799385071,2.0612869262695312
1781591830751864600,54.39586450195313,0.5982657074928284,-1.1824051141738892,1.101083755493164
1781591830800377600,54.444377685546876,-1.9750785827636719,-1.0952805280685425,1.1692715883255005
1781591830848891000,54.49289086914062,-1.145753264427185,-0.8895718455314636,-0.11659881472587585
1781591830897404000,54.54140380859375,-0.4627300798892975,-1.219591498374939,0.4456258714199066
1781591830945917000,54.5899169921875,0.3756818473339081,-1.4488948583602905,-0.025579962879419327
1781591830994430000,54.63842993164062,0.5647444725036621,-1.2780818939208984,-0.31230461597442627
1781591831042943200,54.68694311523438,-0.4016436040401459,0.003283398225903511,0.12644900381565094
1781591831091456300,54.735456298828126,-0.32559093832969666,-0.20250166952610016,0.1922696828842163
1781591831139969300,54.78396923828125,-0.49800750613212585,0.5718457698822021,-0.43982264399528503
1781591831188482300,54.832482421875,-0.7694605588912964,-0.2805396616458893,-0.9312633275985718
1781591831236995600,54.88099560546875,-0.06391172856092453,-0.43898269534111023,-0.64278244972229
1781591831285508600,54.92950854492187,1.1409426927566528,-0.5090031027793884,-0.5385536551475525
1781591831334022000,54.97802197265625,1.6843832731246948,0.7819069027900696,-0.7616720199584961
1781591831382535000,55.026534912109376,0.43310311436653137,1.3075560331344604,-1.114980936050415
1781591831431048000,55.0750478515625,0.5030471682548523,1.9185734987258911,-1.3335177898406982
1781591831479560700,55.12356079101563,0.7925970554351807,1.1786636114120483,-0.6615665555000305
1781591831528074000,55.172073974609376,-0.061850059777498245,1.1684316396713257,0.6109411120414734
1781591831576587000,55.2205869140625,0.3686569035053253,0.38873907923698425,-0.34666576981544495
1781591831625100300,55.26910034179687,0.17944152653217316,0.5198459029197693,0.691575288772583
1781591831673613300,55.31761328125,0.3875173330307007,0.7560978531837463,1.8381685018539429
1781591831722126300,55.36612622070312,0.8348994255065918,-1.1994329690933228,1.6349031925201416
1781591831819152400,55.46315234375,-1.9191080331802368,-1.353600025177002,0.9361502528190613
1781591831867665400,55.51166552734375,-0.903239905834198,-0.7333431839942932,-0.20945025980472565
1781591831916178700,55.5601787109375,-0.12461641430854797,-1.682321548461914,0.45532333850860596
1781591831964691700,55.608691650390625,0.5696313977241516,-1.4672207832336426,-0.1925751268863678
1781591832013204700,55.65720483398437,0.16859868168830872,-0.9266055226325989,-0.11148282140493393
1781591832061717800,55.7057177734375,-0.6893609166145325,0.05528326332569122,0.3836994469165802
1781591832110230800,55.754230712890624,0.16768237948417664,-0.08429934084415436,-0.007864884100854397
1781591832158743800,55.80274389648437,-0.7967203855514526,0.37835437059402466,-0.7741183638572693
1781591832207257000,55.85125708007813,-0.7164680361747742,-0.3591884970664978,-0.9895246028900146
1781591832255770000,55.89977001953125,0.2519053518772125,-0.3375791609287262,-0.7506764531135559
1781591832304283100,55.948283203125,1.6160427331924438,-0.20563235878944397,-0.4782307744026184
1781591832352796200,55.99679614257813,1.7624212503433228,1.7957897186279297,-0.9345467686653137
1781591832401309200,56.04530908203125,0.5152644515037537,1.605199933052063,-0.9968549609184265
1781591832449822200,56.093822265625,0.5394699573516846,1.9300272464752197,-0.9331722855567932
1781591832498335200,56.142335205078126,0.47899433970451355,1.1553744077682495,-0.2680932879447937
1781591832546848300,56.19084814453125,-0.0657443255186081,0.8807142972946167,0.5645154118537903
1781591832595361500,56.23936157226562,0.31848961114883423,-0.04802924394607544,-0.3901135325431824
1781591832643874600,56.28787451171875,0.2159406989812851,0.6401863098144531,1.2221877574920654
1781591832692387600,56.3363876953125,0.5905535221099854,-0.0015271619195118546,1.6831614971160889
1781591832740900600,56.38490063476563,1.0912336111068726,-1.932165265083313,1.180877923965454
1781591832789413600,56.43341357421875,-1.5177699327468872,-0.8256601095199585,1.2373065948486328
1781591832837926700,56.4819267578125,-1.743560791015625,-1.2393683195114136,0.337808221578598
1781591832886439700,56.53043969726563,-0.7386882305145264,-1.0250310897827148,-0.13416117429733276
1781591832934952700,56.57895263671875,0.20677772164344788,-1.605505347251892,0.4679224193096161
1781591832983465700,56.6274658203125,0.5855138897895813,-1.2443315982818604,-0.131717711687088
1781591833031979000,56.67597900390625,-0.27427828311920166,-0.7016545534133911,0.03565923124551773
1781591833080492000,56.724491943359375,-0.6360629796981812,-0.009086613543331623,0.23686282336711884
1781591833129005000,56.77300512695312,-0.08345939964056015,0.36254823207855225,-0.17463096976280212
1781591833177518000,56.82151806640625,-0.8370374441146851,0.1750127524137497,-1.0803143978118896
1781591833226031000,56.870031005859374,-0.5300015807151794,-0.20135630667209625,-0.9190460443496704
1781591833274544000,56.91854418945312,1.1221586465835571,0.09040798991918564,-0.8350521326065063
1781591833323057200,56.96705712890625,2.2540910243988037,-0.37323838472366333,-0.620333194732666
1781591833420083500,57.06408349609375,0.002901607658714056,1.9593487977981567,-1.1717913150787354
1781591833468596500,57.11259643554688,0.8344413042068481,2.0018038749694824,-1.0616066455841064
1781591833517109500,57.161109619140625,0.19570580124855042,1.3849067687988281,0.19127702713012695
1781591833565622500,57.20962255859375,0.19265148043632507,0.743880569934845,0.1879936307668686
1781591833614135600,57.258135498046876,0.20189081132411957,0.014966187067329884,-0.10010546445846558
1781591833662648600,57.306648681640624,0.4517345130443573,0.7037162184715271,1.8507676124572754
1781591833711161600,57.35516162109375,0.6369792222976685,-1.148425817489624,1.372231364250183
1781591833759674600,57.403674560546875,0.35353797674179077,-1.5758020877838135,1.5506038665771484
1781591833808187600,57.45218774414062,-1.9301036596298218,-0.6961567997932434,1.2860994338989258
1781591833856700700,57.50070068359375,-1.427514672279358,-0.5487092733383179,-0.0642935186624527
1781591833905213700,57.549213623046874,-0.44180795550346375,-1.5648064613342285,0.39797839522361755
1781591833953726700,57.59772680664062,0.5370265245437622,-1.826027512550354,0.0527634471654892
1781591834002240000,57.64623999023438,0.32994332909584045,-1.2259292602539062,-0.3436878025531769
1781591834050752800,57.694752685546874,-0.5770381689071655,-0.2479347437620163,0.48075059056282043
1781591834099265800,57.74326586914062,-0.03451386094093323,-0.2326631247997284,0.27855435013771057
1781591834147779000,57.79177905273438,-0.8055015802383423,0.4612029194831848,-0.5660426020622253
1781591834196292000,57.8402919921875,-0.71463543176651,-0.23144139349460602,-0.9931897521018982
1781591834244805000,57.88880517578125,0.4010327160358429,-0.06734783947467804,-0.6291907429695129
1781591834293318100,57.937318115234376,2.3406810760498047,0.45799586176872253,-0.9401208758354187
1781591834341831000,57.98583081054687,1.3839141130447388,0.6595812439918518,-0.5906298756599426
1781591834390344200,58.03434423828125,-0.12370011955499649,0.9092722535133362,-1.1527018547058105
1781591834438857200,58.082857177734375,0.25495967268943787,2.052123785018921,-1.4507274627685547
1781591834487370200,58.13137036132812,0.7825941443443298,1.2647955417633057,-0.5774199366569519
1781591834535883300,58.17988330078125,0.10308343172073364,1.3673444986343384,0.6270527243614197
1781591834584396300,58.228396240234375,0.34788748621940613,0.49968740344047546,-0.28435754776000977
1781591834632909300,58.27690942382812,0.3580431044101715,0.2317468225955963,1.2673916816711426
1781591834681422000,58.325422119140626,0.6856193542480469,1.5294526815414429,1.117577075958252
1781591834729935400,58.373935302734374,0.7591522336006165,-1.9019274711608887,2.00577449798584
1781591834778448400,58.42244848632812,-1.4156790971755981,-1.4963133335113525,1.386052131652832
1781591834826961400,58.47096142578125,-1.7179044485092163,-1.2250893115997314,0.308104932308197
1781591834875474400,58.51947436523437,-0.9602794051170349,-0.8476512432098389,-0.08750637620687485
1781591834923987500,58.56798754882813,-0.021685699000954628,-1.7628793716430664,0.3039052188396454
1781591835021013200,58.66501318359375,-0.08933897316455841,-0.5837576389312744,-0.23335035145282745
1781591835069526300,58.7135263671875,-0.540768027305603,-0.2585485279560089,0.5009855031967163
1781591835118039300,58.762039306640624,-0.277332603931427,0.45967575907707214,0.053374309092760086
1781591835166552300,58.81055224609375,-1.1226930618286133,0.08865175396203995,-0.8717040419578552
1781591835215065300,58.8590654296875,-0.21441353857517242,-0.6578249931335449,-0.6403390169143677
1781591835263578400,58.90757836914062,0.711962878704071,-0.7626646757125854,-0.6822596192359924
1781591835312091400,58.95609130859375,1.7404301166534424,-0.06001746281981468,-0.7770199775695801
1781591835360604400,59.0046044921875,0.8969785571098328,1.286786675453186,-1.0900882482528687
1781591835409117400,59.05311743164062,0.3585776388645172,1.7224860191345215,-1.3500111103057861
1781591835457630500,59.10163037109375,0.8326850533485413,1.7819689512252808,-0.9172898530960083
1781591835506143500,59.1501435546875,0.05933023989200592,1.2202024459838867,0.5640572905540466
1781591835554656500,59.19865649414062,0.47525280714035034,0.4301251769065857,-0.034208428114652634
1781591835603169500,59.24716943359375,0.29672756791114807,-0.44264790415763855,0.583375871181488
1781591835651682600,59.2956826171875,0.360410213470459,1.2221877574920654,1.2018764019012451
1781591835700195600,59.34419555664063,0.6512582302093506,-1.6786564588546753,1.9569053649902344
1781591835748708600,59.39270849609375,-0.05047270283102989,-1.3055707216262817,1.7653992176055908
1781591835845734700,59.48973461914063,-1.0459532737731934,-0.5571087002754211,-0.7148644924163818
1781591835894247700,59.53824755859375,-0.19761475920677185,-1.8657337427139282,0.6341540217399597
1781591835942760700,59.5867607421875,0.6259836554527283,-1.3574942350387573,-0.16165009140968323
1781591835991273700,59.635273681640626,0.3503309488296509,-1.2599085569381714,-0.3813323378562927
1781591836039786800,59.683786865234374,-0.6322450637817383,-0.3530798554420471,0.6530908346176147
1781591836088299800,59.7322998046875,-0.6366738080978394,0.5553524494171143,0.22548545897006989
1781591836136812500,59.7808125,-0.6729438900947571,0.8004619479179382,-0.7339540123939514
1781591836185325600,59.82932568359375,-0.30054548382759094,-0.3009272515773773,-0.880790650844574
1781591836233838600,59.87783862304688,0.4093557596206665,-0.27542364597320557,-1.0277799367904663
1781591836282351900,59.926351806640625,1.6187916994094849,0.2629009187221527,-0.407599538564682
1781591836330865000,59.97486499023437,0.9419534802436829,1.1814124584197998,-0.9345467686653137
1781591836379378000,60.0233779296875,0.4516581594944,1.4227041006088257,-1.345276951789856
1781591836427890700,60.071890625,0.7998510599136353,2.0563998222351074,-1.3754384517669678
1781591836476403700,60.12040380859375,0.40752315521240234,1.6151264905929565,-0.2632827162742615
1781591836573429800,60.2174296875,0.41157013177871704,0.030772313475608826,-0.347123920917511
1781591836621942800,60.26594287109375,0.45249807834625244,0.35964664816856384,1.3267983198165894
1781591836670455800,60.314455810546875,0.6811142563819885,1.2525018453598022,1.4590505361557007
1781591836718968800,60.36296875,1.1144464015960693,-1.6114612817764282,1.7037782669067383
1781591836767481900,60.41148193359375,-1.4295762777328491,-0.880790650844574,1.6204715967178345
1781591836815995000,60.459994873046874,-1.7272201776504517,-1.1646900177001953,0.3586539924144745
1781591836864508000,60.5085078125,-0.7517454624176025,-0.8000037670135498,-0.3094030022621155
1781591836913020700,60.557020751953125,0.09453132748603821,-1.4548507928848267,0.2364046722650528
1781591836961533700,60.60553369140625,0.7540361881256104,-1.2382229566574097,-0.3304014801979065
1781591837010046700,60.654046630859376,-0.10827577859163284,-0.8090903759002686,0.025045456364750862
1781591837058559700,60.702559814453124,-0.7079159021377563,-0.344451367855072,0.4776962697505951
1781591837107072800,60.75107275390625,-0.015271619893610477,0.24831652641296387,-0.025350889191031456
1781591837155585800,60.799585693359376,-0.6853139400482178,-0.3318522870540619,-1.0529018640518188
1781591837204098800,60.848098876953124,-0.43951719999313354,-0.3243691921234131,-0.8381064534187317
1781591837252611600,60.89661157226563,0.8659008145332336,0.0576503649353981,-0.7024181485176086
1781591837301124600,60.94512451171875,1.8344268798828125,0.9163735508918762,-0.6411026120185852
1781591837349637600,60.9936376953125,1.5650355815887451,1.99630606174469,-1.197218656539917
1781591837398150700,61.042150634765626,0.13561198115348816,1.4046835899353027,-1.2888482809066772
1781591837446663700,61.09066357421875,0.45654505491256714,2.144364356994629,-0.7578541040420532
1781591837495176700,61.1391767578125,-0.32589635252952576,1.383226990699768,0.8202387094497681
1781591837543689500,61.187689453125,0.33078327775001526,0.5127446055412292,-0.12499820441007614
1781591837592202500,61.23620239257812,0.3459785282611847,-0.47174033522605896,0.6546943187713623
1781591837640715500,61.28471557617188,0.8084795475006104,1.4614176750183105,1.715537428855896
1781591837689228500,61.333228515625,1.331685185432434,-0.8481857180595398,1.5387684106826782
1781591837737741600,61.38174145507813,-0.7004328370094299,-0.48212501406669617,1.8350378274917603
1781591837786254300,61.43025439453125,-2.3027310371398926,-2.461174249649048,1.004719853401184
