time,seconds_elapsed,z,y,x
1781591776526363400,0.17036328125,-1.1707223653793335,-0.2380845546722412,-0.8109229803085327
1781591776574876000,0.2188759765625,-0.4981602132320404,0.0755181610584259,-0.8396336436271667
1781591776623388400,0.267388427734375,-0.14683662354946136,0.015271619893610477,-0.3222311735153198
1781591776671901000,0.31590087890625,0.40889760851860046,-0.2809978127479553,0.3615556061267853
1781591776720413400,0.364413330078125,0.5771908760070801,-0.0397825688123703,0.4329504072666168
1781591776768926000,0.412926025390625,0.05177079141139984,-0.41271552443504333,0.2393062710762024
1781591776817438700,0.461438720703125,0.22754712402820587,-1.124678373336792,1.3501639366149902
1781591776865951200,0.509951171875,0.5070177912712097,-0.7838922142982483,0.9555452466011047
1781591776914463700,0.558463623046875,-0.3565923273563385,0.0951421856880188,-0.8019127249717712
1781591776962976300,0.606976318359375,-0.7012727856636047,-0.03451386094093323,-0.7353284955024719
1781591777011488800,0.65548876953125,-0.9123265743255615,-1.0498474836349487,-0.9652426838874817
1781591777060001300,0.704001220703125,-1.2044726610183716,-0.38095054030418396,-1.161177635192871
1781591777108515600,0.752515625,-0.8265000581741333,-0.7802270650863647,-1.0401500463485718
1781591777157026600,0.801026611328125,-0.8934661149978638,-0.9847903847694397,-1.1440733671188354
1781591777205539000,0.8495390625,-0.6995928883552551,0.05757400393486023,-0.7338013052940369
1781591777254051600,0.898051513671875,-0.8978185057640076,-0.33001968264579773,-0.8193987607955933
1781591777302564000,0.946564208984375,-0.46838057041168213,0.07223475724458694,-0.4915170669555664
1781591777351076600,0.99507666015625,-0.1977674663066864,-0.8565087914466858,-0.36254823207855225
1781591777399589400,1.04358935546875,-0.005650499369949102,0.07490729540586472,-0.18005239963531494
1781591777448102000,1.092101806640625,0.40714138746261597,0.8818596601486206,-0.1844811588525772
1781591777496614400,1.140614501953125,-0.010537417605519295,-0.3081812858581543,0.2331976294517517
1781591777545127000,1.189126953125,0.030390523374080658,0.42088583111763,-0.06123919412493706
1781591777593639700,1.2376396484375,0.15775582194328308,-0.26221370697021484,-0.12026400119066238
1781591777642152200,1.286152099609375,-0.1778380125761032,0.1761581301689148,-0.1508072465658188
1781591777690664700,1.334664794921875,-0.0859028622508049,0.4545597434043884,-0.23441936075687408
1781591777739177200,1.38317724609375,0.04176788032054901,-0.17027856409549713,-0.3246746361255646
1781591777787690000,1.43168994140625,0.2133445292711258,-0.16478078067302704,0.2617555558681488
1781591777836202500,1.480202392578125,0.305585116147995,-0.8932369947433472,0.5657371282577515
1781591777884715000,1.528715087890625,0.16325360536575317,0.15760311484336853,-0.2683223485946655
1781591777933227800,1.577227783203125,-0.2658788859844208,-0.03520108386874199,0.29817837476730347
1781591777981740300,1.625740234375,-0.21456626057624817,-0.3023780584335327,-0.14706569910049438
1781591778030252800,1.674252685546875,0.002672533504664898,0.6505709886550903,-0.9341649413108826
1781591778078765600,1.722765625,-0.0870482325553894,-0.49403688311576843,0.12133301794528961
1781591778127278000,1.771278076171875,-0.1954767256975174,-0.42913252115249634,0.23533566296100616
1781591778175790600,1.81979052734375,-0.2700785994529724,0.09903645515441895,-0.29588761925697327
1781591778224303400,1.868303466796875,-0.4652498960494995,-0.3934732675552368,-0.30199626088142395
1781591778272815900,1.91681591796875,-0.3620901107788086,0.08399390429258347,-0.08170316368341446
1781591778321328600,1.96532861328125,-0.18486295640468597,-0.3156643807888031,-0.06177370250225067
1781591778369841200,2.013841064453125,-0.17394374310970306,-0.0709366723895073,0.06666062027215958
1781591778418353700,2.062353759765625,-0.04046979174017906,-0.1974620372056961,0.10865757614374161
1781591778466866400,2.110866455078125,0.3365101218223572,-0.21731515228748322,0.17913609743118286
1781591778515379000,2.15937890625,0.41218101978302,0.1398116797208786,0.1314886510372162
1781591778563891700,2.2078916015625,0.2774089574813843,-0.295811265707016,-0.01893680728971958
1781591778612404200,2.256404296875,0.020387612283229828,0.2447277009487152,-0.34406960010528564
1781591778660916700,2.304916748046875,0.1738673895597458,0.1398116797208786,-0.07735075056552887
1781591778709429500,2.353429443359375,0.2741255760192871,-0.4099666178226471,-0.05818486958742142
1781591778757942300,2.4019423828125,0.10644318908452988,0.3191004991531372,-0.35269805788993835
1781591778806454800,2.450454833984375,0.09330959618091583,0.4039343297481537,-0.1870773434638977
1781591778854967300,2.49896728515625,0.16936226189136505,0.7893900275230408,0.05688678100705147
1781591778903480000,2.54747998046875,0.173256516456604,0.9479857683181763,0.14431680738925934
1781591778951992600,2.59599267578125,0.0951421856880188,1.6253584623336792,-0.224569171667099
1781591779000505300,2.64450537109375,0.6092612743377686,2.9206972122192383,-0.7851139307022095
1781591779049018000,2.69301806640625,1.5098286867141724,2.275853157043457,-1.5808416604995728
1781591779097530600,2.741530517578125,1.1506401300430298,1.3061816692352295,0.23075416684150696
1781591779146043100,2.790043212890625,-0.7979421019554138,0.6052142977714539,1.486386775970459
1781591779194556000,2.838555908203125,-1.503490924835205,1.5438079833984375,-0.6214785575866699
1781591779243068400,2.887068359375,-0.49373146891593933,0.43890634179115295,-0.9540180563926697
1781591779291581200,2.935581298828125,-0.2925278842449188,-2.7678282260894775,0.44898560643196106
1781591779340094000,2.984093994140625,-0.5493201613426208,-2.8870997428894043,0.6187296509742737
1781591779388606500,3.0326064453125,-0.8821650743484497,-2.19040846824646,0.37697991728782654
1781591779437119200,3.081119140625,-0.0019853105768561363,-0.8132137656211853,-0.6291907429695129
1781591779485631700,3.1296318359375,-0.03138317912817001,-2.707810878753662,-0.36598435044288635
1781591779534144500,3.17814453125,-0.502970814704895,-3.460625410079956,-0.8395572900772095
1781591779582657300,3.2266572265625,-0.478841632604599,-4.950829982757568,-1.7325652837753296
1781591779631169800,3.275169677734375,0.7783944606781006,-5.9485249519348145,-3.228954792022705
1781591779679682600,3.3236826171875,1.6880484819412231,-4.917308807373047,-5.530082702636719
1781591779728195000,3.372195068359375,2.9402449131011963,-5.726933479309082,-4.033616542816162
1781591779776707800,3.420707763671875,4.416705131530762,-2.209268808364868,-4.315301418304443
1781591779825220600,3.469220703125,3.8412704467773438,-1.895818829536438,-2.115424633026123
1781591779873733400,3.5177333984375,4.563388824462891,-1.0177006721496582,-0.18440480530261993
1781591779922246000,3.566245849609375,3.673893451690674,1.3791035413742065,-0.11278090626001358
1781591779970758700,3.614758544921875,1.4396555423736572,1.3403136730194092,-1.786703109741211
1781591780019271400,3.663271484375,-0.18753549456596375,1.1101703643798828,-1.974238634109497
1781591780067784000,3.711783935546875,0.1810450553894043,0.44356417655944824,-0.908890426158905
1781591780116296700,3.760296630859375,1.181794285774231,0.17195843160152435,-0.24724751710891724
1781591780164809500,3.8088095703125,2.798753261566162,0.7044798135757446,-0.5110647678375244
1781591780213322000,3.857322021484375,3.4219117164611816,1.0484730005264282,0.07192932814359665
1781591780261834800,3.905834716796875,2.043419122695923,-0.04627300798892975,0.08025235682725906
1781591780310347500,3.954347412109375,0.864831805229187,-1.1158971786499023,1.2317324876785278
1781591780358860300,4.0028603515625,0.0243582334369421,-0.8394809365272522,1.407127022743225
1781591780407372800,4.051372802734375,0.5201513767242432,-0.9481384754180908,0.9864702820777893
1781591780455885600,4.099885498046875,0.46257734298706055,-0.8315396904945374,0.3630063831806183
1781591780504398300,4.1483984375,0.18310672044754028,-0.5525271892547607,0.4949531853199005
1781591780552910800,4.196910888671875,0.09636391699314117,-0.7741183638572693,0.6650790572166443
1781591780601423600,4.245423583984375,0.6728675365447998,-0.15485422313213348,0.005192350596189499
1781591780649936100,4.29393603515625,0.3767508566379547,-0.22953243553638458,-0.3889681398868561
1781591780698449000,4.342448974609375,-0.9274454712867737,-0.4237874448299408,-0.780837893486023
1781591780746961700,4.390961669921875,0.616209864616394,-0.4768563210964203,0.15409064292907715
1781591780795474200,4.43947412109375,0.9581413865089417,0.5692496299743652,-0.5468766689300537
1781591780843987000,4.487987060546875,-0.2023489624261856,0.6627882719039917,-0.480903297662735
1781591780892499700,4.536499755859375,-1.5736640691757202,-0.5365683436393738,-0.030085090547800064
1781591780941012500,4.585012451171875,-1.7537927627563477,-0.5945241451263428,0.8992693424224854
1781591780989525200,4.633525146484375,-1.2886955738067627,-0.5809323787689209,0.2444986253976822
1781591781038038000,4.6820380859375,-0.516791582107544,0.6204859018325806,-2.7138431072235107
1781591781135063300,4.779063232421875,-0.054443322122097015,-0.41531169414520264,0.9595922231674194
1781591781183576000,4.827576171875,0.2559523284435272,-0.3874409794807434,0.7799979448318481
1781591781232088800,4.8760888671875,0.8525381684303284,0.12996147572994232,1.0193805694580078
1781591781280601600,4.9246015625,0.5297724604606628,0.09804379940032959,1.1213949918746948
1781591781329114400,4.9731142578125,-0.1455385386943817,0.0025961752980947495,0.18952079117298126
1781591781377627000,5.021626953125,-0.0295505840331316,1.0748165845870972,-0.901178240776062
1781591781426139600,5.0701396484375,-0.5646681189537048,0.6612611413002014,-1.2093595266342163
1781591781474652400,5.11865234375,-0.9359975457191467,-0.7726675868034363,1.4759256839752197
1781591781523165200,5.167165283203125,0.4500546157360077,-1.4211769104003906,2.7756168842315674
1781591781571678000,5.215677978515625,2.0489931106567383,0.7882446646690369,1.957592487335205
1781591781620190700,5.264190673828125,2.044487953186035,1.7029383182525635,0.17424917221069336
1781591781668703200,5.312703125,2.6946773529052734,2.4110069274902344,-1.1211659908294678
1781591781717216000,5.361216064453125,-0.23136503994464874,0.490677148103714,-1.9388084411621094
1781591781765728800,5.409728759765625,-0.7960331439971924,1.287015676498413,-1.3054944276809692
1781591781814241500,5.458241455078125,-3.328144073486328,0.249920055270195,-0.19333870708942413
1781591781862754300,5.50675439453125,-6.386209487915039,-2.5211915969848633,-0.29390230774879456
1781591781911267000,5.55526708984375,-3.6091418266296387,-1.6823979616165161,-0.15386156737804413
1781591782008292600,5.652292724609375,-0.3422369956970215,-0.11178825795650482,-0.443945974111557
1781591782056805400,5.700805419921875,-1.5331941843032837,-0.4606684148311615,0.7987820506095886
1781591782105318100,5.749318115234375,-2.1648285388946533,1.1316269636154175,-0.17883066833019257
1781591782153831000,5.797830810546875,-0.35934120416641235,-0.019013166427612305,-1.3124430179595947
1781591782202343700,5.84634375,0.6323214173316956,-0.4225656986236572,0.0001527161948615685
1781591782250856400,5.8948564453125,0.7118865251541138,-0.6807324290275574,0.3280344009399414
1781591782299369200,5.943369140625,-0.053603384643793106,-0.12988512217998505,-0.11743875592947006
1781591782347882000,5.991882080078125,-0.08765909820795059,-0.028099779039621353,-0.1701258420944214
1781591782396394800,6.040394775390625,0.0038179049734026194,0.15546508133411407,-0.19410228729248047
1781591782444907500,6.088907470703125,0.14813470840454102,-0.002901607658714056,-0.22441644966602325
1781591782493420300,6.137420166015625,0.09239330142736435,0.22334744036197662,-0.5842921733856201
1781591782541933000,6.18593310546875,0.08781181275844574,0.5273290276527405,-0.3664425015449524
1781591782590445800,6.23444580078125,0.12217295914888382,0.1847866028547287,-0.3568977415561676
1781591782638958800,6.282958740234375,0.11102467030286789,0.06979130208492279,-0.20631958544254303
1781591782687471600,6.3314716796875,0.14370593428611755,-0.23136503994464874,-0.08857539296150208
1781591782735984400,6.379984375,0.0703258067369461,-0.23159411549568176,-0.04482220485806465
1781591782784497200,6.4284970703125,0.04474584385752678,-0.24289511144161224,-0.009926552884280682
1781591782833010000,6.477010009765625,0.06704241037368774,-0.22548545897006989,0.0461202897131443
1781591782881522700,6.525522705078125,0.02260199747979641,-0.08933897316455841,0.05230529606342316
1781591782930035500,6.574035400390625,0.03375028073787689,-0.21181736886501312,-0.004428769461810589
1781591782978548200,6.62254833984375,0.0009162971982732415,-0.13843722641468048,-0.036804601550102234
1781591783027061000,6.67106103515625,-0.09269873052835464,-0.01779143698513508,-0.030390523374080658
1781591783075573800,6.71957373046875,-0.14431680738925934,-0.00045814859913662076,-0.016035201027989388
1781591783124086500,6.76808642578125,-0.054214250296354294,-0.23441936075687408,0.00679587060585618
1781591783172599600,6.816599609375,0.0021380267571657896,-0.35498878359794617,0.018402300775051117
1781591783221112300,6.8651123046875,-0.07612902671098709,-0.2528980076313019,0.008781181648373604
1781591783269625000,6.913625,-0.093691386282444,-0.23426663875579834,0.09277509152889252
1781591783318137900,6.962137939453125,-0.017486004158854485,-0.17883066833019257,0.08727730810642242
1781591783366650600,7.010650634765625,-0.01107192412018776,-0.12301289290189743,-0.01779143698513508
1781591783415163600,7.05916357421875,0.036804601550102234,-0.11583523452281952,-0.06643154472112656
1781591783463676400,7.107676513671875,0.005039634648710489,-0.07131846249103546,-0.08842267841100693
1781591783512189200,7.156189208984375,-0.015347977168858051,-0.1498909443616867,-0.031612250953912735
1781591783609214700,7.253214599609375,0.022067490965127945,-0.05177079141139984,-0.02496909722685814
1781591783657727500,7.3017275390625,0.005345067009329796,-0.028405211865901947,-0.0565049909055233
1781591783706240500,7.350240478515625,0.014660755172371864,0.028863361105322838,-0.01824958436191082
1781591783754753300,7.398753173828125,0.016646064817905426,0.06635518372058868,-0.034666575491428375
1781591783803266000,7.44726611328125,-0.011911863461136818,0.06849320977926254,-0.0694858655333519
1781591783851778800,7.49577880859375,-0.04459312930703163,0.05543597787618637,-0.05406153202056885
1781591783900291600,7.54429150390625,-0.017256930470466614,0.03779725730419159,-0.05696314200758934
1781591783948804600,7.5928046875,-0.006337722297757864,0.043829549103975296,-0.05299251899123192
1781591783997317400,7.6413173828125,-0.03497200831770897,0.04329504072666168,-0.05482511222362518
1781591784045830100,7.689830078125,-0.047265663743019104,0.05329795181751251,-0.04711294546723366
1781591784094343000,7.738343017578125,-0.017867794260382652,0.0360410213470459,-0.037720900028944016
1781591784142856000,7.78685595703125,-0.019394956529140472,0.04780016839504242,-0.047036588191986084
1781591784191368700,7.83536865234375,-0.012751801870763302,0.04329504072666168,-0.0435241162776947
1781591784239881500,7.883881591796875,-0.016416991129517555,0.054443322122097015,-0.02214384824037552
1781591784288394200,7.932394287109375,-0.006872228812426329,0.009315688163042068,-0.02023489587008953
1781591784336907300,7.9809072265625,-0.008093958720564842,-0.006337722297757864,-0.02916879393160343
1781591784385420000,8.029419921875,0.009773836471140385,-0.004657844081521034,-0.02672533318400383
1781591784433932800,8.077932861328126,-0.005955931730568409,0.01511890348047018,-0.01824958436191082
1781591784482445800,8.12644580078125,0.010537417605519295,0.007177661173045635,-0.01893680728971958
1781591784530958600,8.17495849609375,0.025350889191031456,0.008399390615522861,-0.05459604039788246
1781591784579471400,8.223471435546875,-0.030772313475608826,0.05604684352874756,-0.023518294095993042
1781591784627984400,8.271984375,-0.017256930470466614,-0.02390008419752121,0.017867794260382652
1781591784676497200,8.3204970703125,0.012675444595515728,-0.061850059777498245,0.00511599238961935
1781591784725010000,8.369010009765624,-0.017715077847242355,-0.05215258151292801,-0.0010690133785828948
1781591784773522700,8.417522705078126,-0.04428769648075104,-0.03802633285522461,0.013286309316754341
1781591784822035700,8.46603564453125,-0.03588830679655075,-0.08384118974208832,0.0025961752980947495
1781591784870548500,8.514548583984375,-0.043753188103437424,-0.10132719576358795,-0.001221729558892548
1781591784919061500,8.5630615234375,-0.06215549260377884,-0.12370011955499649,-0.001679878099821508
1781591784967574300,8.61157421875,-0.035124726593494415,-0.09972367435693741,0.027336198836565018
1781591785016087300,8.66008740234375,0.010613775812089443,-0.07147117704153061,0.02672533318400383
1781591785064600000,8.70860009765625,0.02611446939408779,0.013897174037992954,-0.034666575491428375
1781591785113112800,8.75711279296875,0.0591011680662632,0.013286309316754341,-0.06146826967597008
1781591785161625600,8.80562548828125,0.04298960790038109,0.030925029888749123,-0.05345066636800766
1781591785210138600,8.854138671875,0.024205517023801804,0.07078395783901215,0.0005345066892914474
1781591785258651400,8.9026513671875,0.05062541738152504,0.12690715491771698,0.0005345066892914474
1781591785307164400,8.951164306640624,0.0818558782339096,0.15836669504642487,-0.0021380267571657896
1781591785355677200,8.99967724609375,0.07345648854970932,0.12621992826461792,-0.052687086164951324
1781591785404190200,9.048190185546876,0.0628427118062973,0.106366828083992,-0.08002328872680664
1781591785452703000,9.096702880859375,0.11522436887025833,0.04260781779885292,-0.03405570983886719
1781591785501216000,9.145216064453125,0.08781181275844574,0.11056652665138245,-0.009086613543331623
1781591785549728800,9.193728759765625,0.001679878099821508,0.09796743839979172,0.00511599238961935
1781591785598241500,9.242241455078124,-0.047494735568761826,-0.03535379841923714,-0.04069886729121208
1781591785646754600,9.290754638671874,-0.07269290834665298,-0.08323032408952713,-0.12156209349632263
1781591785695267600,9.339267578125,-0.020082179456949234,-0.1078176349401474,-0.16096286475658417
1781591785743780400,9.3877802734375,0.06207913160324097,-0.1565341055393219,-0.15439607203006744
1781591785792293000,9.436293212890625,0.20303617417812347,-0.2515999376773834,-0.1712712198495865
1781591785840806100,9.48480615234375,0.14523309469223022,0.13874267041683197,-0.04130972921848297
1781591785889319200,9.533319091796875,0.008781181648373604,0.39912378787994385,0.13278673589229584
1781591785937832000,9.58183203125,-0.20105087757110596,0.6134609580039978,0.3278053104877472
1781591785986345000,9.630344970703124,-0.6646972298622131,0.9084323048591614,0.5259546041488647
1781591786034857700,9.678857666015626,-0.5660426020622253,0.6611084342002869,0.3552178740501404
1781591786083370800,9.727370849609375,-0.41523534059524536,0.24808746576309204,0.21807873249053955
1781591786131883500,9.775883544921875,-0.3819431960582733,0.050090912729501724,0.015347977168858051
1781591786180396500,9.824396484375,-0.36025750637054443,0.011759147047996521,-0.129197895526886
1781591786228909600,9.87290966796875,-0.2055560052394867,0.06971494108438492,-0.18463388085365295
1781591786277422300,9.92142236328125,-0.10277800261974335,0.15928299725055695,-0.15691588819026947
1781591786325935400,9.969935302734376,-0.1193477064371109,0.1625663936138153,-0.17188207805156708
1781591786374448000,10.0184482421875,-0.04130972921848297,0.12217295914888382,-0.24006985127925873
1781591786422961200,10.066961181640625,-0.07284562289714813,0.054214250296354294,-0.0642935186624527
1781591786471474200,10.11547412109375,-0.14172062277793884,-0.11316270381212234,-0.04024071618914604
1781591786519987000,10.163987060546875,-0.040775224566459656,-0.25641047954559326,0.14462223649024963
1781591786568500000,10.2125,-0.09346231073141098,-0.39370235800743103,0.02000582218170166
1781591786617013000,10.261012939453124,-0.20532692968845367,-0.4589121639728546,-0.28924447298049927
1781591786665526000,10.309526123046876,0.11866047978401184,-0.9215658903121948,-0.26190826296806335
1781591786714038800,10.358038818359375,0.3297906219959259,-0.7872520089149475,-0.09834922850131989
1781591786762551800,10.4065517578125,0.9290489554405212,-0.5206858515739441,-0.4555523991584778
1781591786811064800,10.45506494140625,0.8236747980117798,-0.21464261412620544,-0.5973494052886963
1781591786908090600,10.552090576171874,0.4543306827545166,0.08032871782779694,-0.7541889548301697
1781591786956603600,10.600603759765624,0.7365502119064331,-0.03497200831770897,-0.863381028175354
1781591787005116700,10.64911669921875,0.3833940029144287,0.6508000493049622,-0.4105011224746704
1781591787053629700,10.697629638671875,0.08949168771505356,0.20456334948539734,0.04474584385752678
1781591787102142500,10.746142578125,0.2853502035140991,-0.3329976499080658,0.29390230774879456
1781591787150655500,10.794655517578125,-0.2776380479335785,0.7176133990287781,1.5700751543045044
1781591787199168500,10.84316845703125,-0.46402814984321594,0.4672352075576782,2.1332924365997314
1781591787247681500,10.891681640625,0.07620538026094437,0.12408190965652466,2.3812272548675537
1781591787296194600,10.940194580078124,-0.5442805290222168,-0.6609556674957275,0.2164752036333084
1781591787344707600,10.98870751953125,-1.2874739170074463,-0.3657552897930145,-0.21151192486286163
1781591787393220600,11.037220703125,-0.5503128170967102,-0.5346593856811523,1.1088722944259644
1781591787441733600,11.085733642578125,0.08750637620687485,-0.806876003742218,0.14683662354946136
1781591787490246700,11.13424658203125,0.2441931962966919,-0.9305761456489563,-0.4143190383911133
1781591787538759700,11.182759765625,-0.34811657667160034,-0.06154462695121765,0.16562071442604065
1781591787587272700,11.231272705078124,-0.44211336970329285,0.18066325783729553,0.303523451089859
1781591787635785700,11.27978564453125,-0.850934624671936,0.337808221578598,-0.651029109954834
1781591787684298800,11.328298828125,-0.23052509129047394,-0.6598103046417236,-0.6039161682128906
1781591787732811800,11.376811767578126,0.21601705253124237,-1.0974185466766357,-0.22418737411499023
1781591787781324800,11.42532470703125,1.2487603425979614,-0.2519817352294922,-0.5447386503219604
1781591787829838000,11.473838134765625,0.7599921226501465,0.11652245372533798,-0.8597158193588257
1781591787878351000,11.52235107421875,0.3883572816848755,0.22067490220069885,-1.1131483316421509
1781591787926864100,11.570864013671875,0.7509055137634277,0.21395538747310638,-1.5348740816116333
1781591787975377200,11.619377197265624,0.5741365551948547,0.9564615488052368,-1.3025164604187012
1781591788023890200,11.66789013671875,0.2655734717845917,1.5899282693862915,0.04046979174017906
1781591788072403200,11.7164033203125,0.5233584046363831,-0.22808164358139038,-0.11812597513198853
1781591788120916200,11.764916259765625,0.4131736755371094,-0.34460410475730896,0.7895427346229553
1781591788169429500,11.813429443359375,-0.13370302319526672,0.8010727763175964,1.942015528678894
1781591788217942500,11.861942626953125,-0.15004366636276245,-0.24236060678958893,2.4211626052856445
1781591788266455600,11.91045556640625,0.12782345712184906,-0.13370302319526672,2.2836415767669678
1781591788314968800,11.95896875,-1.0122029781341553,-0.22678354382514954,-0.471129447221756
1781591788363481900,12.00748193359375,-1.1778236627578735,0.02977965772151947,-0.08017600327730179
1781591788460508000,12.1045078125,0.5515345335006714,-0.7405208349227905,0.30398157238960266
1781591788509021200,12.153021240234375,0.05352702736854553,-0.5448150038719177,-0.4222602844238281
1781591788557534200,12.2015341796875,-0.5493201613426208,0.08017600327730179,0.6539307236671448
1781591788606047500,12.250047607421875,0.1657734364271164,-0.021227551624178886,0.0746782198548317
1781591788654560500,12.298560546875,-0.4912116527557373,0.11545344442129135,-0.4119519293308258
1781591788703073500,12.347073486328124,-0.8681915402412415,-0.559399425983429,-0.7527381181716919
1781591788751586800,12.3955869140625,0.2666424810886383,-0.6166679859161377,-1.095433235168457
1781591788800100000,12.44410009765625,0.86544269323349,-0.6919570565223694,-0.8568142056465149
1781591788848613000,12.492613037109376,1.0751984119415283,-0.16195552051067352,-1.2738057374954224
1781591788897126100,12.541126220703125,0.5345066785812378,0.5110647678375244,-1.6821688413619995
1781591788945639400,12.589639404296875,1.593898892402649,1.1018472909927368,-1.983707070350647
1781591788994152700,12.638152587890625,1.4356086254119873,1.0697768926620483,-1.7104213237762451
1781591789042665700,12.686665771484375,0.826958179473877,0.7932079434394836,-0.38469210267066956
1781591789091179000,12.735178955078124,-0.4944186806678772,-1.1466695070266724,0.5841394662857056
1781591789139692000,12.783692138671874,-0.3853793144226074,-0.001679878099821508,1.0273218154907227
1781591789188205300,12.832205322265626,0.0657443255186081,1.1326960325241089,2.0749549865722656
1781591789236718600,12.880718505859376,-0.3017672002315521,0.5554288029670715,2.7004804611206055
1781591789285231600,12.929231689453125,0.4133263826370239,-0.1230892539024353,2.2195770740509033
1781591789333745000,12.977744873046875,-1.2210423946380615,-0.3400989770889282,-0.28473934531211853
1781591789382258000,13.0262578125,-1.018311619758606,-0.3938550651073456,0.1986074149608612
1781591789430771200,13.074771240234375,-0.430659681558609,-1.0441206693649292,0.6473639607429504
1781591789479284500,13.123284423828125,0.0034361144062131643,-1.0774891376495361,-0.2530507445335388
1781591789527797800,13.1717978515625,0.367511510848999,-0.7731257081031799,-0.009926552884280682
1781591789576311000,13.22031103515625,-0.33276858925819397,-0.02328922040760517,0.3439168632030487
1781591789624824000,13.268823974609376,-0.11407899856567383,-0.46059203147888184,0.13515383005142212
1781591789673337300,13.31733740234375,-0.4006509482860565,0.31871870160102844,0.011911863461136818
1781591789721850600,13.3658505859375,-0.6675224900245667,-0.7250964641571045,-0.8000801205635071
1781591789818877200,13.462877197265625,0.6796634197235107,-0.3228420317173004,-0.689513623714447
1781591789867390200,13.51139013671875,0.8700241446495056,0.15347976982593536,-0.9408844709396362
1781591789915903500,13.559903564453125,0.6247619390487671,0.041615162044763565,-0.9908990263938904
1781591789964416800,13.608416748046874,0.5535961985588074,0.03000873140990734,-1.3215296268463135
1781591790012930000,13.656929931640626,0.6423243284225464,0.4894554018974304,-1.4391210079193115
1781591790061443300,13.705443359375,0.46715885400772095,0.890564501285553,-1.0287725925445557
1781591790109956400,13.753956298828125,0.6049851775169373,0.795651376247406,0.07597630470991135
1781591790158470000,13.802469970703125,0.7323505282402039,-0.14362958073616028,0.14744748175144196
1781591790206983000,13.85098291015625,0.3617846667766571,0.08170316368341446,1.3504693508148193
1781591790255496200,13.89949609375,0.2837466895580292,0.45020735263824463,2.2140793800354004
1781591790304009500,13.948009521484375,0.18493930995464325,-0.21983496844768524,2.2013275623321533
1781591790352522800,13.996522705078124,-0.3262781500816345,-0.5390881896018982,1.3566542863845825
1781591790401036000,14.0450361328125,-1.2486076354980469,-0.6425533890724182,-0.7183006405830383
1781591790449549300,14.09354931640625,-0.9879974126815796,-1.001665472984314,0.347582072019577
1781591790546576000,14.190575927734375,0.2836703360080719,-1.2063815593719482,-0.15554144978523254
1781591790595089200,14.239089111328125,0.22235478460788727,-0.8020654320716858,0.020311253145337105
1781591790643602400,14.2876025390625,-0.4453204274177551,-0.2577085793018341,0.643393337726593
1781591790692115700,14.33611572265625,0.16195552051067352,-0.289168119430542,0.35674503445625305
1781591790740629200,14.384629150390625,-0.6979129910469055,-0.09544762223958969,-0.5560396909713745
1781591790789142500,14.433142578125,-0.22815799713134766,-0.9071341753005981,-0.8918625712394714
1781591790837655800,14.48165576171875,0.4445568323135376,-0.38324129581451416,-0.9098830819129944
1781591790886169000,14.530169189453124,0.7143300175666809,-0.20204351842403412,-1.0831396579742432
1781591790934682400,14.578682373046876,0.911562979221344,0.8679624795913696,-1.3277145624160767
1781591790983195600,14.627195556640626,0.4713585376739502,0.6382009983062744,-1.255937933921814
1781591791031709000,14.675708984375,1.1822524070739746,0.8712459206581116,-1.0926843881607056
1781591791080222200,14.72422216796875,0.6467530727386475,1.1433861255645752,-1.0102176666259766
1781591791128735500,14.772735595703125,0.4574613571166992,1.1610249280929565,0.21021384000778198
1781591791177249000,14.8212490234375,0.5083158612251282,0.29962918162345886,0.24220788478851318
1781591791225762300,14.86976220703125,0.12415826320648193,0.21685700118541718,1.9020801782608032
1781591791274275600,14.918275634765624,-0.5594757795333862,0.03252854943275452,2.1428372859954834
1781591791322788900,14.966788818359374,-0.48998990654945374,0.0948367565870285,2.1208462715148926
1781591791371302400,15.015302490234374,-0.7503710389137268,-0.3741546869277954,0.3949240744113922
1781591791419815700,15.063815673828126,-0.8859066367149353,-0.6025417447090149,-0.33315038681030273
1781591791468329000,15.112328857421875,-0.42134398221969604,-1.0019710063934326,0.7716749310493469
1781591791516842200,15.16084228515625,0.05222893878817558,-1.7076724767684937,0.0038179049734026194
1781591791565355500,15.20935546875,0.12202023714780807,-0.7757219076156616,-0.47983428835868835
1781591791613869000,15.257869140625,-0.4572322964668274,0.2700785994529724,0.1369100660085678
1781591791662382300,15.30638232421875,-0.28848087787628174,-0.064598947763443,0.7853430509567261
1781591791710895600,15.3548955078125,-1.0598503351211548,0.8442915081977844,-0.07750347256660461
1781591791759409200,15.4034091796875,-0.3239873945713043,-0.719369649887085,-0.6727911829948425
1781591791807922400,15.45192236328125,0.009315688163042068,-0.3315468728542328,-0.9337831735610962
1781591791856435700,15.500435791015626,0.7751110196113586,-0.11743875592947006,-0.7353284955024719
1781591791904949200,15.54894921875,0.838259220123291,0.21555891633033752,-1.2794562578201294
1781591791953462500,15.597462646484376,0.651639997959137,-0.212504580616951,-1.0337358713150024
1781591792001975800,15.645975830078125,0.7880918979644775,0.6814960241317749,-1.3826924562454224
1781591792050489300,15.6944892578125,0.9830341339111328,0.8545234799385071,-1.1843904256820679
1781591792099002600,15.743002685546875,0.9257655739784241,1.3271801471710205,-0.007864884100854397
1781591792147516000,15.791515869140625,0.6809614896774292,0.37858346104621887,-0.008017600513994694
1781591792196029400,15.840029541015625,0.2842811942100525,-0.34903284907341003,0.7703005075454712
1781591792244542700,15.888542724609374,-0.30260714888572693,0.20922118425369263,1.968664526939392
1781591792293056000,15.937055908203124,-0.7361684441566467,-0.2683223485946655,1.8305326700210571
1781591792341569500,15.985569580078124,-0.21716243028640747,-0.40462157130241394,1.9217805862426758
1781591792390082800,16.034082763671876,-0.7518218159675598,-0.6824886798858643,-0.11148282140493393
1781591792438596400,16.082596435546876,-0.8366556763648987,-0.6217076182365417,0.1204930767416954
1781591792487109600,16.131109619140624,-0.3908770978450775,-0.6777544617652893,0.7181479334831238
1781591792535623000,16.179622802734375,0.20662501454353333,-1.0287725925445557,-0.19845469295978546
1781591792584136400,16.228136474609375,-0.17753258347511292,-0.3413206934928894,-0.5099957585334778
1781591792632649700,16.276649658203127,-0.32757624983787537,0.24022257328033447,0.577725350856781
1781591792681163000,16.3251630859375,-0.045967575162649155,0.04741837829351425,0.9256128668785095
1781591792729676500,16.373676513671874,-0.5787180066108704,0.052916161715984344,-0.5136609077453613
1781591792826703400,16.470703369140626,0.6085740327835083,-0.5163334608078003,-0.8156571984291077
1781591792875216600,16.519216552734374,1.1641556024551392,-0.16791145503520966,-0.6084213256835938
1781591792923730200,16.567730224609374,1.1934770345687866,-0.01977674663066864,-0.8321505188941956
1781591793020756700,16.6647568359375,0.2021198868751526,1.1721731424331665,-1.4320197105407715
1781591793069270300,16.713270263671873,0.44791659712791443,0.6455313563346863,-1.2647191286087036
1781591793117783600,16.761783447265625,0.425467312335968,1.1995856761932373,-0.24411684274673462
1781591793166297000,16.810297119140625,0.05543597787618637,0.35094180703163147,-0.16531528532505035
1781591793214810600,16.858810546875,0.4398989975452423,-0.13125957548618317,0.4046979248523712
1781591793263324000,16.907323974609376,-0.08048143237829208,0.7389936447143555,1.965686559677124
1781591793311837200,16.955837158203124,-0.44700029492378235,0.2367101013660431,1.8883357048034668
1781591793360350700,17.004350830078124,-0.07773254066705704,0.02412915788590908,2.0886993408203125
1781591793408864000,17.052864013671876,-0.7599157691001892,-0.07605266571044922,-0.3404043912887573
1781591793457377500,17.10137744140625,-0.7587704062461853,-0.30657777190208435,0.06368265300989151
1781591793505890800,17.149890869140624,-0.41439539194107056,-0.23625195026397705,0.5340485572814941
1781591793554404400,17.198404296875,0.037262752652168274,-0.29672756791114807,-0.18570289015769958
1781591793602917600,17.246917724609375,0.3090212345123291,-0.46838057041168213,-0.4150826036930084
1781591793651431200,17.29543115234375,-0.046654798090457916,-0.2658788859844208,0.32352927327156067
1781591793699944400,17.3439443359375,-0.40431612730026245,-0.2859610617160797,0.5438223481178284
1781591793748458000,17.3924580078125,-0.2652680277824402,0.3979020416736603,-0.1625663936138153
1781591793796971300,17.44097119140625,-0.4228711426258087,0.039858926087617874,-0.9048434495925903
1781591793845484800,17.48948486328125,-0.057726722210645676,0.3285689055919647,-0.9099594354629517
1781591793893998300,17.537998291015626,0.6701186895370483,-0.14278964698314667,-0.7209731340408325
1781591793942511600,17.58651171875,1.1455241441726685,0.11774418503046036,-0.7525090575218201
1781591793991025000,17.63502490234375,0.70753413438797,0.3972148299217224,-0.8594104051589966
1781591794039538400,17.683538330078125,0.4738783538341522,0.5553524494171143,-1.0687079429626465
1781591794088052000,17.732052001953125,0.677067220211029,1.0019710063934326,-1.275791049003601
1781591794136565200,17.780565185546877,0.41897687315940857,1.3567306995391846,-0.7944296598434448
1781591794185078500,17.82907861328125,0.09330959618091583,1.1580469608306885,0.19845469295978546
1781591794233592000,17.877592041015625,0.08826996386051178,-0.06368265300989151,-0.22808164358139038
1781591794282105600,17.926105712890624,0.3078758418560028,0.18929173052310944,1.1449133157730103
1781591794330619000,17.974618896484376,0.09934188425540924,0.8987348079681396,1.8487823009490967
1781591794379132400,18.02313232421875,0.026038112118840218,0.1818849891424179,2.4030656814575195
1781591794427645700,18.071645751953124,-0.3920224606990814,-0.2580140233039856,1.3488657474517822
1781591794476159200,18.1201591796875,-0.8762855529785156,-0.1715002804994583,-0.8208495378494263
1781591794524672500,18.168672607421875,-0.8442151546478271,-0.2646571695804596,0.10277800261974335
1781591794573186000,18.21718603515625,-0.12935061752796173,-0.5861247777938843,0.2484692484140396
1781591794621699600,18.265699462890623,0.4148535430431366,-0.5062541961669922,-0.5183951258659363
1781591794670212900,18.314212890625,0.07903063297271729,-0.7318159937858582,-0.41126471757888794
1781591794718726400,18.362726318359375,-0.6757691502571106,-0.07391463965177536,0.7559451460838318
1781591794767239700,18.41123974609375,-0.30459246039390564,0.023136503994464874,0.32184937596321106
1781591794815753200,18.459753173828126,-0.685924768447876,0.1340084671974182,-0.672638475894928
1781591794864266500,18.5082666015625,-0.3113119602203369,-0.31787875294685364,-0.8942296504974365
1781591794912780000,18.556780029296874,0.5967385172843933,-0.35269805788993835,-0.7852666974067688
1781591794961293300,18.605293212890626,1.2907572984695435,-0.25098907947540283,-0.7283799052238464
1781591795009806800,18.653806884765626,1.1042144298553467,0.5435169339179993,-1.0923789739608765
1781591795058320400,18.7023203125,0.4722748398780823,0.41492989659309387,-1.086881160736084
1781591795106833700,18.750833740234373,0.6345357894897461,0.6476693749427795,-1.2178353071212769
1781591795155347000,18.799346923828125,0.5572614073753357,0.476779967546463,-1.0905463695526123
1781591795203860500,18.847860595703125,0.2618319094181061,0.9283617734909058,0.18096868693828583
1781591795252374000,18.8963740234375,0.09292780607938766,-0.0746782198548317,-0.24197880923748016
1781591795300887300,18.94488720703125,-0.2813795804977417,0.10919208079576492,1.0313688516616821
1781591795349400800,18.99340087890625,-0.1773035079240799,0.8334486484527588,2.1192426681518555
1781591795397914000,19.0419140625,0.049021899700164795,-0.06299543380737305,2.320140838623047
1781591795446427600,19.090427734375,-0.22731806337833405,-0.2669478952884674,1.4420989751815796
1781591795494941000,19.13894091796875,-1.1991275548934937,-0.09002619981765747,-0.8573487401008606
1781591795543454500,19.187454345703124,-0.9882264733314514,-0.2162461280822754,0.15256348252296448
1781591795591968000,19.235968017578124,-0.22708898782730103,-0.8055015802383423,0.4736492931842804
1781591795640481300,19.284481201171875,0.3764454126358032,-0.8173370957374573,-0.32337653636932373
1781591795688994800,19.332994873046875,0.05543597787618637,-0.6903535723686218,-0.3868301212787628
1781591795786021600,19.430021728515626,-0.0322994738817215,-0.04169152304530144,0.19944734871387482
1781591795834535000,19.478534912109374,-1.0147227048873901,0.19394956529140472,-0.625067412853241
1781591795883048400,19.52704833984375,-0.4773908257484436,-0.3563632369041443,-0.978681743144989
1781591795931562000,19.57556201171875,0.6165152788162231,-0.3439168632030487,-0.7282271981239319
1781591795980075300,19.6240751953125,1.3223695755004883,-0.43455392122268677,-0.7367029190063477
1781591796028588800,19.6725888671875,1.1016182899475098,0.4793761372566223,-1.1840087175369263
1781591796077102000,19.72110205078125,0.36682429909706116,0.538706362247467,-1.2063052654266357
1781591796125615600,19.76961572265625,0.7600684762001038,0.7635809779167175,-1.327256441116333
1781591796174129000,19.81812890625,0.7477748394012451,0.4748710095882416,-0.6478220820426941
1781591796222642400,19.866642333984377,0.2015090137720108,0.9121738076210022,0.37400195002555847
1781591796271155700,19.91515576171875,0.15325069427490234,-0.40950846672058105,-0.26595523953437805
1781591796319669200,19.963669189453125,-0.020540328696370125,-0.08659008145332336,1.1418589353561401
1781591796368182500,20.0121826171875,-0.08659008145332336,0.38644832372665405,2.1187081336975098
1781591796416696000,20.060696044921876,0.25763222575187683,-0.551152765750885,2.413526773452759
1781591796465209300,20.109209228515624,-0.37843072414398193,-0.5004509687423706,1.448742151260376
1781591796513723000,20.157722900390624,-1.3710860013961792,-0.33567020297050476,-1.1130720376968384
1781591796562236200,20.206236083984376,-1.0654245615005493,-0.5146535634994507,0.19501857459545135
1781591796610749700,20.254749755859375,-0.10239620506763458,-1.3305398225784302,0.46021026372909546
1781591796659263200,20.30326318359375,0.6294198036193848,-1.0338886976242065,-0.19135339558124542
1781591796707776500,20.351776611328123,-0.0821613147854805,-0.21945317089557648,-0.2343430072069168
1781591796756290000,20.4002900390625,-0.761366605758667,0.07597630470991135,0.47502371668815613
1781591796804803300,20.44880322265625,-0.17424917221069336,0.13698641955852509,0.3738492429256439
1781591796853316900,20.49731689453125,-1.0370956659317017,-0.05238165333867073,-0.719369649887085
1781591796901830100,20.545830078125,-0.24144430458545685,-0.7528908252716064,-0.9048434495925903
1781591796950343700,20.59434375,0.7759509682655334,-0.573602020740509,-0.5512291193008423
1781591796998857000,20.64285693359375,1.445764183998108,-0.3183369040489197,-0.48273590207099915
1781591797047370500,20.69137060546875,1.042288064956665,0.5723803043365479,-1.1376593112945557
1781591797095883800,20.7398837890625,0.4066832363605499,0.5858956575393677,-1.251509189605713
1781591797144397300,20.788397216796874,0.8324559926986694,0.8156571984291077,-1.4584397077560425
1781591797192910600,20.83691064453125,0.5325213670730591,0.6340776681900024,-0.508544921875
1781591797241424100,20.885424072265625,0.25152358412742615,0.7877864837646484,0.42943793535232544
1781591797289937400,20.9339375,0.4805978536605835,-0.5802451968193054,0.13675735890865326
1781591797338451000,20.982450927734376,0.049709122627973557,0.1534034162759781,1.5604541301727295
1781591797386964200,21.030964111328124,0.14248420298099518,0.5609265565872192,2.4951536655426025
1781591797435477800,21.079477783203124,0.39599308371543884,-0.7153990268707275,2.5092034339904785
1781591797483991000,21.127990966796876,-1.0223585367202759,0.2202167510986328,0.5418370366096497
1781591797532504600,21.176504638671876,-1.5260928869247437,-0.47326749563217163,-1.2147046327590942
1781591797581017900,21.225017822265624,-0.8098539710044861,-0.23739732801914215,0.7234929800033569
1781591797629531400,21.273531494140624,-0.03061959706246853,-0.826958179473877,0.17715078592300415
1781591797678044700,21.322044677734375,0.4926624298095703,-1.0148755311965942,-0.4730384051799774
1781591797726558200,21.37055810546875,-0.13584105670452118,-0.6690496206283569,-0.3246746361255646
1781591797775071500,21.419071533203127,-0.6669116020202637,0.05887209251523018,0.7158571481704712
1781591797823585000,21.4675849609375,-0.5285507440567017,0.5899426341056824,-0.2741255760192871
1781591797872098300,21.516098388671875,-0.8452077507972717,0.2199876755475998,-0.8301652073860168
1781591797920611800,21.56461181640625,-0.24610215425491333,-0.40920305252075195,-0.7205150127410889
1781591797969125000,21.613125,0.7951932549476624,-0.5303833484649658,-0.5682569742202759
1781591798017638400,21.661638427734374,1.39445161819458,-0.1302669197320938,-0.6850084662437439
1781591798066152000,21.71015185546875,0.7754928469657898,0.585437536239624,-1.0543526411056519
1781591798114665500,21.75866552734375,0.42019861936569214,0.7784708142280579,-1.4149155616760254
1781591798163178800,21.8071787109375,0.9247729182243347,0.9828814268112183,-1.4288127422332764
1781591798211692300,21.8556923828125,0.531605064868927,0.9554688930511475,-0.2793179154396057
1781591798260205600,21.90420556640625,0.11835505068302155,0.6109411120414734,0.22884522378444672
1781591798308718800,21.95271875,0.2606101930141449,-0.6134609580039978,-0.08666644245386124
1781591798357232400,22.001232421875,-0.03191768378019333,0.24816381931304932,1.4705042839050293
1781591798405745700,22.04974560546875,0.16279546916484833,0.523052990436554,2.3490042686462402
1781591798454259200,22.09825927734375,0.5391645431518555,-0.7731257081031799,2.683758020401001
1781591798502772500,22.1467724609375,-1.0135010480880737,-0.036193739622831345,0.6545416116714478
1781591798551286000,22.1952861328125,-1.3907864093780518,-0.3161988854408264,-1.114675521850586
1781591798599799300,22.24379931640625,-0.8270345330238342,-0.3065013885498047,0.6217076182365417
1781591798648312600,22.2923125,0.03917170315980911,-0.92072594165802,0.06650790572166443
1781591798696826000,22.340826171875,0.5639809370040894,-1.1585050821304321,-0.5138136148452759
1781591798745339600,22.389339599609375,-0.04741837829351425,-0.7313578724861145,-0.34498587250709534
1781591798793853000,22.43785302734375,-0.6840158104896545,0.11988221108913422,0.4324922561645508
1781591798842366500,22.486366455078127,-0.006566796451807022,0.15699224174022675,0.03894263133406639
1781591798890879700,22.534879638671875,-1.1002438068389893,0.0527634471654892,-0.8603267073631287
1781591798987906600,22.631906494140626,0.7890845537185669,-0.45875945687294006,-0.4295142889022827
1781591799036419800,22.680419921875,1.4371356964111328,-0.517707884311676,-0.35789039731025696
1781591799084933000,22.72893310546875,1.0196096897125244,0.549091100692749,-0.9468404054641724
1781591799133446700,22.77744677734375,0.3488037884235382,0.528932511806488,-1.1867575645446777
1781591799181960000,22.8259599609375,0.630946934223175,0.9514219164848328,-1.4324779510498047
1781591799230473500,22.874473388671873,0.4156934916973114,1.0919971466064453,-0.16187916696071625
1781591799278986800,22.92298681640625,0.23357942700386047,0.6378191709518433,0.3617846667766571
1781591799327500300,22.971500244140625,0.2971857190132141,-0.29130613803863525,-0.162031888961792
1781591799424526800,23.06852685546875,0.3989710509777069,0.4277580678462982,2.364504814147949
1781591799473040400,23.117040283203124,0.4425715208053589,-0.8922443389892578,2.651153087615967
1781591799521553700,23.1655537109375,-1.1389573812484741,-0.009850194677710533,0.34261879324913025
1781591799570067000,23.21406689453125,-1.4262166023254395,-0.579787015914917,-1.1381938457489014
1781591799618580500,23.26258056640625,-0.7451022863388062,-0.3047451674938202,0.6220894455909729
1781591799667093800,23.31109375,0.11102467030286789,-0.9906699657440186,0.0988837331533432
1781591799715607300,23.359607177734375,0.5754346251487732,-0.9860884547233582,-0.3666715919971466
1781591799812633900,23.4566337890625,-0.6185005903244019,0.32016950845718384,0.45990481972694397
1781591799861147400,23.5051474609375,-0.20906847715377808,0.2658025324344635,0.05192350596189499
1781591799909660700,23.55366064453125,-1.0720677375793457,0.06727148592472076,-0.949436604976654
1781591799958174000,23.602174072265626,-0.3346775472164154,-0.5109120011329651,-0.8780417442321777
1781591800006687500,23.6506875,0.7154753804206848,-0.1882227063179016,-0.5255727767944336
1781591800055200800,23.69920068359375,1.2767837047576904,-0.170965775847435,-0.5928442478179932
1781591800103714300,23.74771435546875,0.9683734178543091,0.8548288941383362,-1.0723731517791748
1781591800152227600,23.7962275390625,0.31932955980300903,0.7347939610481262,-1.1629338264465332
1781591800200740900,23.844740966796873,0.6979893445968628,1.0444260835647583,-1.3808598518371582
1781591800249254400,23.89325439453125,0.5432115197181702,0.808937668800354,-0.7102066874504089
1781591800297767700,23.941767578125,0.1599702090024948,0.860708475112915,0.3179551064968109
1781591800346281000,23.990281005859377,0.37232208251953125,-0.24923282861709595,-0.1395062506198883
1781591800394794200,24.038794189453125,0.09949459880590439,-0.20937390625476837,0.7850375771522522
1781591800443307800,24.087307861328124,-0.10797034949064255,0.571540355682373,1.9695043563842773
1781591800491821000,24.135821044921876,0.3410152494907379,-0.5862011313438416,2.4203989505767822
1781591800540334600,24.18433447265625,-0.23335035145282745,-0.41935867071151733,1.7679190635681152
1781591800588847900,24.232847900390624,-1.3038145303726196,-0.0922405794262886,-0.9163735508918762
1781591800637361200,24.281361083984375,-1.1180353164672852,-0.26190826296806335,-0.009773836471140385
1781591800685874700,24.329874755859375,-0.24197880923748016,-0.768467903137207,0.4422661066055298
1781591800734388000,24.378387939453123,0.4577668011188507,-0.9692896604537964,-0.40897396206855774
1781591800782901200,24.4269013671875,0.38041603565216064,-0.9937242865562439,-0.3606393039226532
1781591800831414800,24.475414794921875,-0.6642391085624695,0.24602578580379486,0.4604393243789673
1781591800879928000,24.523927978515626,-0.6598103046417236,-0.013820815831422806,0.3632354736328125
1781591800928441300,24.57244140625,-0.7845031023025513,0.3937787115573883,-0.6071232557296753
1781591800976955000,24.620954833984374,-0.3462839722633362,-0.5774199366569519,-0.7334958910942078
1781591801025468200,24.66946826171875,0.26679518818855286,-0.856279730796814,-0.7405208349227905
1781591801073981400,24.7179814453125,1.345658779144287,-0.5493201613426208,-0.35277441143989563
1781591801122495000,24.766494873046874,1.1069633960723877,0.25473061203956604,-0.922176718711853
1781591801171008300,24.81500830078125,0.48181959986686707,0.5726093649864197,-1.0745874643325806
1781591801219521500,24.863521484375,0.5539016127586365,0.9078214168548584,-1.3909391164779663
1781591801268034800,24.912034912109377,0.6207149624824524,0.9950223565101624,-0.9390518665313721
1781591801316548400,24.96054833984375,0.2479347437620163,1.1597267389297485,0.3715584874153137
1781591801365061600,25.0090615234375,0.23686282336711884,-0.1865428388118744,-0.19135339558124542
1781591801413575000,25.057574951171876,0.02741255611181259,-0.3879754841327667,0.825812816619873
1781591801462088200,25.106088134765624,0.08788817375898361,0.6421716213226318,2.173915147781372
1781591801510601700,25.154601806640624,0.49457138776779175,-0.5490147471427917,2.4928627014160156
1781591801559115000,25.203114990234376,-0.44241881370544434,-0.34552037715911865,1.6031382083892822
1781591801607628500,25.251628662109376,-1.3852885961532593,-0.4067595899105072,-1.0554980039596558
1781591801656141800,25.300141845703124,-0.9885319471359253,-0.2689332067966461,-0.03909534588456154
1781591801704655000,25.348655029296875,-0.2435823380947113,-0.8162680864334106,0.6565269231796265
1781591801753168400,25.39716845703125,0.37636905908584595,-0.8365029692649841,-0.24342961609363556
1781591801801681700,25.445681640625,0.3632354736328125,-0.9430224895477295,-0.45769044756889343
1781591801850195200,25.4941953125,-0.5540543794631958,0.1729510873556137,0.46433359384536743
1781591801898708500,25.54270849609375,-0.39018988609313965,-0.0021380267571657896,0.2764926850795746
1781591801947221800,25.5912216796875,-0.7958040833473206,0.3503309488296509,-0.4837285578250885
1781591801995735300,25.6397353515625,-0.5319868922233582,-0.3430005609989166,-0.8512400984764099
1781591802044248600,25.68824853515625,0.2929860055446625,-0.5148826241493225,-0.7969494462013245
1781591802092761900,25.736761962890625,1.1092541217803955,-0.2926042377948761,-0.4606684148311615
1781591802141275400,25.785275390625,1.0608429908752441,0.5332086086273193,-1.0038799047470093
1781591802189788700,25.83378857421875,0.4448622763156891,0.43837183713912964,-0.9424116611480713
1781591802238302000,25.882302001953125,0.47326749563217163,0.6178897023200989,-1.1269692182540894
1781591802286815200,25.930815185546876,0.6487383842468262,0.499381959438324,-1.1711041927337646
1781591802335328500,25.97932861328125,0.18952079117298126,1.0076978206634521,-0.3200167715549469
1781591802383842800,26.0278427734375,0.21540619432926178,0.31123560667037964,0.15783219039440155
1781591802432355300,26.076355224609376,0.4470766484737396,-0.5101484656333923,0.04543306678533554
1781591802529382000,26.1733818359375,0.1052214577794075,0.44868019223213196,2.276998519897461
1781591802577895400,26.2218955078125,0.43111783266067505,-0.7957277297973633,2.358701705932617
1781591802626408700,26.27040869140625,-0.8784235715866089,0.09758564829826355,0.7303652167320251
1781591802674922000,26.318921875,-1.3375648260116577,-0.24465134739875793,-1.1252893209457397
1781591802723435500,26.367435546875,-0.6639336347579956,-0.5261073112487793,0.6266708970069885
1781591802771948800,26.41594873046875,0.06696604937314987,-0.8196278214454651,0.15073087811470032
1781591802820462000,26.464462158203126,0.5102248191833496,-1.0303761959075928,-0.4557051360607147
1781591802868975400,26.512975341796874,-0.05329795181751251,-0.5907825827598572,-0.3390299379825592
1781591802917488600,26.561488525390626,-0.48594292998313904,0.10881029069423676,0.6375901103019714
1781591802966002200,26.610002197265626,0.018555017188191414,-0.05283980444073677,0.29100072383880615
1781591803014515500,26.658515380859374,-1.0875684022903442,-0.16882775723934174,-0.8208495378494263
1781591803063028700,26.70702880859375,-0.39828383922576904,-0.37148213386535645,-0.8604794144630432
1781591803111542300,26.755542236328125,0.8157335519790649,0.01763872057199478,-0.5379427671432495
1781591803160055600,26.8040556640625,1.130099892616272,-0.3277289569377899,-0.6907353401184082
1781591803208568800,26.85256884765625,1.0383174419403076,0.5030471682548523,-1.229365348815918
1781591803257082000,26.90108203125,0.4747946560382843,0.35964664816856384,-1.0241148471832275
1781591803305595400,26.949595458984376,0.5923861265182495,1.0066287517547607,-1.3277909755706787
1781591803354109000,26.99810888671875,0.28214317560195923,0.9066760540008545,-0.4845684766769409
1781591803402622200,27.046622314453124,0.2008981555700302,0.6856957077980042,0.32971426844596863
1781591803451135500,27.095135498046876,0.23709189891815186,-0.45593419671058655,-0.0899498388171196
1781591803499648800,27.143648681640624,0.0031306820455938578,0.2070067971944809,1.4579051733016968
1781591803548162000,27.192162109375,0.1928805559873581,0.5584831237792969,2.454683780670166
1781591803596675600,27.240675537109375,0.5041161775588989,-0.5633700489997864,2.56471586227417
1781591803645188900,27.28918896484375,-0.8110756874084473,0.1453094631433487,0.6724094152450562
1781591803693702100,27.3377021484375,-1.4028509855270386,-0.23128867149353027,-1.2118793725967407
1781591803742215400,27.38621533203125,-0.7707586288452148,-0.4150826036930084,0.5464185476303101
1781591803790729000,27.43472900390625,-0.1014799103140831,-0.588110089302063,0.15676318109035492
1781591803839242200,27.4832421875,0.40431612730026245,-0.6366738080978394,-0.4699840843677521
1781591803887755500,27.531755615234374,-0.036804601550102234,-0.46036297082901,-0.4277580678462982
1781591803936268800,27.580268798828126,-0.7609084248542786,0.20021092891693115,0.46257734298706055
1781591803984782000,27.628781982421874,-0.27000224590301514,0.20372340083122253,0.0694858655333519
1781591804033295600,27.677295654296874,-0.6607266068458557,0.3795761168003082,-0.6882155537605286
1781591804081809000,27.725808837890625,-0.418824166059494,-0.34116798639297485,-0.883768618106842
1781591804130322200,27.774322265625,0.5734493136405945,-0.6117810606956482,-0.711122989654541
1781591804178835500,27.82283544921875,1.3209950923919678,-0.2133445292711258,-0.5949822664260864
1781591804227348700,27.8713486328125,0.9352339506149292,0.6325504779815674,-1.0655008554458618
1781591804275862300,27.9198623046875,0.3900371491909027,0.8357393741607666,-1.2286018133163452
1781591804324375600,27.96837548828125,0.5501601099967957,0.9862411618232727,-1.3949097394943237
1781591804372888800,28.016888916015624,0.49823659658432007,0.7235693335533142,-0.8106939196586609
1781591804421402000,28.065402099609376,0.1992182731628418,0.8562033176422119,0.41378453373908997
1781591804469915400,28.113915283203124,0.2185368686914444,-0.2121991515159607,-0.30283620953559875
1781591804518429000,28.162428955078123,0.053832460194826126,-0.15813761949539185,0.8608611822128296
1781591804566942200,28.210942138671875,0.1510363221168518,0.5252673625946045,2.2647812366485596
1781591804615455500,28.25945556640625,0.43088874220848083,-0.8655190467834473,2.5419609546661377
1781591804671879000,28.31587890625,-0.6674461364746094,-0.499381959438324,0.7294489145278931
1781591804722829600,28.36682958984375,-1.468289852142334,-0.14782927930355072,-0.9973130822181702
1781591804773757000,28.4177568359375,-0.822300374507904,-0.8414662480354309,0.5463421940803528
1781591804824695800,28.46869580078125,0.03504836559295654,-1.2554798126220703,0.17951788008213043
1781591804875634700,28.519634765625,0.5875755548477173,-0.9400445222854614,-0.22769984602928162
1781591804926573800,28.57057373046875,-0.07444914430379868,-0.6768381595611572,-0.32559093832969666
1781591805022967300,28.66696728515625,-0.5746710300445557,0.374765545129776,0.11636973917484283
1781591805071480800,28.715480712890624,-0.5717694163322449,0.24953825771808624,-0.7620537877082825
1781591805119994000,28.763994140625,-0.06528617441654205,-0.7099775671958923,-0.894687831401825
1781591805168507400,28.81250732421875,0.6141481995582581,-0.6862302422523499,-0.7299070358276367
1781591805217020700,28.861020751953124,1.2486839294433594,-0.04993819445371628,-0.45310893654823303
1781591805265534000,28.909533935546875,0.9060651659965515,0.3176496922969818,-0.8316923975944519
1781591805314047500,28.958047607421875,0.6284271478652954,0.46364638209342957,-1.1391100883483887
1781591805362560800,29.006560791015627,0.6485093235969543,1.000596523284912,-1.3825397491455078
1781591805411074000,29.055073974609375,0.37026041746139526,1.0499238967895508,-0.7780889868736267
1781591805459587300,29.10358740234375,0.25671592354774475,0.8560506105422974,0.42103853821754456
1781591805508100600,29.1521005859375,0.08903354406356812,-0.3416261374950409,-0.11468986421823502
1781591805556614000,29.20061376953125,-0.13759729266166687,-0.040546149015426636,1.430798053741455
1781591805605127200,29.249127197265626,0.14828743040561676,0.35323256254196167,2.530965566635132
1781591805653640400,29.297640380859374,0.2078467458486557,-0.8268818259239197,2.419482707977295
1781591805702153700,29.34615380859375,-0.6451495885848999,-0.00847574882209301,0.7378482818603516
1781591805750667300,29.394667236328125,-1.5118902921676636,0.007406735327094793,-1.050840139389038
1781591805799180500,29.4431806640625,-0.7870228886604309,-0.6046034097671509,0.5337430834770203
1781591805847693800,29.49169384765625,0.011682788841426373,-0.8956804871559143,0.12217295914888382
1781591805896207000,29.54020703125,0.4960985481739044,-0.9285144805908203,-0.43027788400650024
1781591805944720400,29.588720458984376,0.016340631991624832,-0.5019017457962036,-0.30054548382759094
1781591805993233700,29.637233642578124,-0.623845636844635,0.12034036219120026,0.6458367705345154
1781591806041747000,29.685746826171876,-0.37110036611557007,0.08231402933597565,0.08422297984361649
1781591806090260500,29.734260498046876,-0.8686497211456299,0.1259908676147461,-0.7812197208404541
1781591806138773800,29.782773681640624,-0.29825472831726074,-0.24365869164466858,-0.685390293598175
1781591806187287000,29.831287109375,0.7621301412582397,-0.4964039921760559,-0.5170970559120178
1781591806235800300,29.87980029296875,1.1297943592071533,-0.1599702090024948,-0.7617483735084534
1781591806284313600,29.928313720703127,0.9024763703346252,0.35811948776245117,-1.190346360206604
1781591806332827000,29.976826904296875,0.5148826241493225,0.639804482460022,-1.2408190965652466
1781591806381340200,30.025340087890626,0.7477748394012451,1.0482439994812012,-1.3127484321594238
1781591806429853400,30.073853515625,0.4566977918148041,0.9905936121940613,-0.5621483325958252
1781591806478367000,30.122366943359374,0.1300378441810608,0.6890554428100586,0.38522660732269287
1781591806526880300,30.17088037109375,0.27290382981300354,-0.39561131596565247,-0.27313292026519775
1781591806575393500,30.2193935546875,0.041386090219020844,-0.1513417512178421,1.1366666555404663
1781591806623906800,30.26790673828125,0.11163553595542908,0.48762279748916626,2.33884859085083
1781591806672420000,30.316420166015625,0.4036289155483246,-0.6850084662437439,2.457890748977661
1781591806720933400,30.364933349609377,-0.4350120723247528,-0.4001164436340332,1.1204787492752075
1781591806769446700,30.41344677734375,-1.4020873308181763,-0.012217295356094837,-1.112002968788147
1781591806866473200,30.51047314453125,-0.002443459117785096,-1.2611303329467773,0.20769402384757996
1781591806914986500,30.558986572265624,0.46204283833503723,-1.3094650506973267,-0.39446592330932617
1781591806963499800,30.607499755859376,-0.10430516302585602,-0.8389464020729065,-0.03321577236056328
1781591807012013300,30.656013427734376,-0.4612792730331421,-0.23747368156909943,0.6112465858459473
1781591807060526600,30.704526611328124,-0.15760311484336853,0.15386156737804413,0.33421939611434937
1781591807109039900,30.753039794921875,-1.023962140083313,-0.08674279600381851,-1.0346522331237793
1781591807157553200,30.80155322265625,-0.0884990319609642,-0.17073670029640198,-0.6444623470306396
1781591807206066400,30.85006640625,0.753043532371521,-0.021991131827235222,-0.527481734752655
1781591807254579700,30.898579833984375,0.9781472086906433,0.022067490965127945,-0.7677806615829468
1781591807303093000,30.947093017578126,0.7714458703994751,0.21059563755989075,-1.1717913150787354
1781591807351606300,30.995606201171874,0.47006043791770935,0.5002219080924988,-1.1808016300201416
1781591807400119600,31.04411962890625,0.7896190881729126,1.2454005479812622,-1.395902395248413
1781591807448632800,31.0926328125,0.9054543375968933,2.685208797454834,-2.0875539779663086
1781591807497146000,31.14114599609375,0.3850739002227783,0.9309579133987427,0.16829325258731842
1781591807545659600,31.18965966796875,0.41004297137260437,-0.3361283540725708,0.2049451321363449
1781591807594172700,31.238172607421873,-0.23449571430683136,-0.1931096315383911,2.029139995574951
1781591807642686200,31.286686279296877,0.5465712547302246,0.9958623051643372,2.809290647506714
1781591807691199500,31.335199462890625,0.8581886291503906,-1.0807725191116333,2.6019022464752197
1781591807739712800,31.383712646484376,-1.2956441640853882,-0.06742420047521591,0.19127702713012695
1781591807788226000,31.43222607421875,-1.0236566066741943,-0.5816196203231812,-0.6640099883079529
1781591807836739300,31.4807392578125,-0.7803797721862793,-1.265711784362793,0.3268890082836151
1781591807885252600,31.529252685546876,-0.24281874299049377,-1.3818525075912476,0.1467602699995041
1781591807933766000,31.577765869140624,0.5474875569343567,-0.9944115281105042,-0.15225805342197418
1781591807982279200,31.626279052734375,0.11591159552335739,-0.41813695430755615,-0.16218459606170654
1781591808030792400,31.67479248046875,-0.5837576389312744,-0.09132428467273712,0.5385536551475525
1781591808079305700,31.7233056640625,0.1406516134738922,-0.21151192486286163,0.32902705669403076
1781591808127819300,31.7718193359375,-0.4675406217575073,-0.02306014485657215,-0.7972549200057983
1781591808224845800,31.868845703125,0.5997164845466614,0.11995857208967209,-0.7972549200057983
1781591808273359000,31.917359130859374,0.8104648590087891,0.06910407543182373,-0.8463531732559204
1781591808321872400,31.965872314453126,0.9973894953727722,0.8946114778518677,-1.2438733577728271
1781591808370385700,32.0143857421875,0.40698865056037903,1.0128138065338135,-1.099327564239502
1781591808418899000,32.06289892578125,0.4857902228832245,1.777005672454834,-1.317253589630127
1781591808467412200,32.111412109375,0.3727802336215973,1.3885719776153564,-0.651105523109436
1781591808515925500,32.15992553710937,0.18257221579551697,1.0401500463485718,0.38331764936447144
1781591808564438800,32.20843872070313,0.1308777779340744,-0.012217295356094837,-0.212733656167984
1781591808612952000,32.2569521484375,-0.035964664071798325,0.13484840095043182,1.2143992185592651
1781591808661465300,32.30546533203125,-0.247629314661026,0.29397866129875183,2.0366995334625244
1781591808709978600,32.353978515625,-0.010155626572668552,-0.5926915407180786,2.4549129009246826
1781591808758492000,32.40249194335937,-0.4575377106666565,-0.7552579641342163,1.0735948085784912
1781591808807005200,32.45100512695313,-0.9710459113121033,-0.11018473654985428,-0.4944186806678772
1781591808855518500,32.4995185546875,-0.8170316219329834,-0.5222893953323364,0.4897608458995819
1781591808904031700,32.54803173828125,-0.258853942155838,-0.9398154616355896,0.106366828083992
1781591808952545300,32.59654516601562,0.6471349000930786,-0.8713222742080688,-0.3707949221134186
1781591809001058300,32.64505834960938,0.3015381395816803,-0.65935218334198,-0.28038692474365234
1781591809049571800,32.69357177734375,-0.3664425015449524,-0.24999640882015228,0.6834049820899963
1781591809098084900,32.7420849609375,0.28122687339782715,-0.7150171995162964,0.5875755548477173
1781591809146598400,32.790598388671874,-1.0041090250015259,-0.30344706773757935,-0.8190932869911194
1781591809195111700,32.83911157226562,-0.47548186779022217,-0.5584831237792969,-0.8629228472709656
1781591809243625000,32.887625,0.6239983439445496,0.2292270064353943,-0.5594757795333862
1781591809292138200,32.93613818359375,0.8519272804260254,-0.010613775812089443,-0.9191223978996277
1781591809340651500,32.984651611328125,0.8853721618652344,0.44035714864730835,-1.2777000665664673
1781591809389164800,33.03316479492187,0.5517635941505432,0.5430588126182556,-1.1860703229904175
1781591809437678000,33.08167797851563,0.7436515092849731,1.250363826751709,-1.4844777584075928
1781591809486191400,33.13019140625,0.1824958473443985,1.39139723777771,-0.6493492722511292
1781591809534704600,33.17870458984375,0.3802633285522461,0.33765551447868347,0.21166464686393738
1781591809583218000,33.227218017578124,0.5056433081626892,-0.29481860995292664,-0.056199558079242706
1781591809631731200,33.27573120117187,0.3630063831806183,-0.32933247089385986,1.6509383916854858
1781591809680244500,33.32424438476563,0.8888846039772034,-0.08918625861406326,2.4000113010406494
1781591809728757800,33.3727578125,0.22388194501399994,-0.86544269323349,2.142455577850342
1781591809777271000,33.42127099609375,-1.2937352657318115,-0.5459604263305664,0.8566614985466003
1781591809825784300,33.46978442382812,-1.2096649408340454,0.20479241013526917,-1.025718331336975
1781591809874297600,33.51829760742187,-0.6239983439445496,-1.1361321210861206,0.6966149210929871
1781591809922811100,33.56681103515625,0.017256930470466614,-1.383150577545166,0.1986074149608612
1781591809971324200,33.61532421875,0.47357290983200073,-1.1422407627105713,-0.4869355857372284
1781591810019837700,33.663837646484374,-0.0899498388171196,-0.523892879486084,-0.23167046904563904
1781591810068350700,33.71235083007812,-0.5134318470954895,-0.1000291109085083,0.6934842467308044
1781591810116864300,33.7608642578125,-0.15233440697193146,0.538706362247467,0.3362047076225281
1781591810165377500,33.80937744140625,-0.8570432662963867,0.3384190797805786,-0.9191223978996277
1781591810213890800,33.857890869140626,-0.3664425015449524,-0.39629852771759033,-0.7511346340179443
1781591810262404000,33.90640405273437,0.6195695996284485,-0.09911280870437622,-0.6982184648513794
1781591810310917400,33.95491748046875,1.0789399147033691,-0.025809036567807198,-0.7522799968719482
1781591810359430700,34.0034306640625,0.9915862679481506,0.2987128794193268,-0.9565379023551941
1781591810407944000,34.05194384765625,0.503810703754425,0.5245801210403442,-1.0963495969772339
1781591810456457200,34.100457275390625,0.6180424690246582,1.347033143043518,-1.2831214666366577
1781591810504970500,34.14897045898437,0.5107592940330505,1.2461642026901245,-0.8797979950904846
1781591810553483800,34.19748388671875,0.25938844680786133,1.3217586278915405,0.264046311378479
1781591810601997000,34.2459970703125,0.37949973344802856,0.23228132724761963,-0.10537417232990265
1781591810650510300,34.29451025390625,0.249920055270195,0.044898562133312225,0.8058833479881287
1781591810699023600,34.343023681640624,-0.1204930767416954,0.864220917224884,1.9773693084716797
1781591810747537000,34.39153686523437,0.3479638397693634,-0.12621992826461792,2.49606990814209
1781591810796050200,34.44005029296875,0.030314164236187935,0.0922405794262886,1.5893938541412354
1781591810844563500,34.4885634765625,-1.4571415185928345,0.46433359384536743,-0.9002619981765747
1781591810893076700,34.53707666015625,-0.6727911829948425,-1.2579232454299927,-0.2971857190132141
1781591810941590000,34.58559008789062,-0.5306124091148376,-1.588248372077942,0.187382772564888
1781591810990103300,34.63410327148438,0.13446660339832306,-1.4245367050170898,-0.21059563755989075
1781591811038616600,34.682616455078126,0.37033677101135254,-0.6400335431098938,0.09812015295028687
1781591811087129900,34.7311298828125,-0.7843503952026367,-0.1536324918270111,0.46395179629325867
1781591811135643100,34.77964306640625,0.043829549103975296,-0.5066359639167786,0.42042768001556396
1781591811184156400,34.82815649414062,-0.13339759409427643,0.4182896614074707,-0.2360992431640625
1781591811232669700,34.87666967773438,-0.8153517842292786,0.02588539570569992,-0.9108757376670837
1781591811281183000,34.925182861328125,0.29359689354896545,-0.28031057119369507,-0.6694314479827881
1781591811329696300,34.9736962890625,0.6268999576568604,-0.10216713696718216,-0.5529853701591492
1781591811378209500,35.02220947265625,0.931950569152832,0.1914297491312027,-0.7301361560821533
1781591811426722800,35.07072290039063,0.49403688311576843,0.4289797842502594,-0.9818887710571289
1781591811475236000,35.119236083984376,0.5739074349403381,0.7783181071281433,-1.3836851119995117
1781591811523749400,35.167749267578124,0.6207149624824524,0.781754195690155,-1.2854886054992676
1781591811572262700,35.2162626953125,0.4950295388698578,0.8664353489875793,-0.21487168967723846
1781591811620776000,35.26477587890625,0.32757624983787537,0.48930269479751587,0.14950916171073914
1781591811669289200,35.31328930664063,0.11606431007385254,-0.6054433584213257,0.28954991698265076
1781591811717802500,35.361802490234375,-0.4626537263393402,-0.2910770773887634,1.6998076438903809
1781591811766315800,35.41031567382812,-0.25786128640174866,-0.3336085379123688,2.2371394634246826
1781591811814829000,35.4588291015625,0.4675406217575073,-0.8614720702171326,2.2665374279022217
1781591811863342300,35.50734228515625,-0.9545525908470154,0.04367683082818985,-0.03886627033352852
1781591811911855600,35.555855712890626,-1.1043671369552612,0.3340666890144348,-0.22449280321598053
1781591811960369000,35.604368896484374,-0.4909825623035431,-0.5871937870979309,0.525420069694519
1781591812008882200,35.65288208007812,0.13851359486579895,-0.6191114783287048,-0.20799945294857025
1781591812057395500,35.7013955078125,0.49892380833625793,-0.809548556804657,-0.5731438994407654
1781591812105908700,35.74990869140625,-0.7499892115592957,0.48731738328933716,0.3061959743499756
1781591812154422000,35.798422119140625,-0.24656029045581818,-0.5335140228271484,0.4292088747024536
1781591812202935300,35.84693530273437,-0.4554760456085205,0.36170831322669983,-0.1222493126988411
1781591812251448600,35.89544848632813,-1.0060943365097046,-0.5446622967720032,-1.1447606086730957
1781591812299961900,35.9439619140625,0.1285870373249054,-0.013439024798572063,-0.6857720613479614
1781591812348475100,35.99247509765625,0.9390518665313721,0.04558578506112099,-0.500298261642456
1781591812396988400,36.040988525390624,1.173776626586914,0.47174033522605896,-1.0158681869506836
1781591812445501400,36.08950146484375,0.7133373618125916,0.9490547776222229,-1.2854121923446655
1781591812494015000,36.13801489257813,0.6517927050590515,1.4586687088012695,-1.539531946182251
1781591812542528000,36.186528076171875,1.00594162940979,1.075656533241272,-1.0945169925689697
1781591812591041300,36.23504125976562,0.13912445306777954,0.6599630117416382,0.164322629570961
1781591812639554600,36.28355444335938,0.16760602593421936,-0.19929464161396027,-0.2707658112049103
1781591812688067800,36.33206787109375,0.05413788929581642,-0.4347066581249237,0.6195695996284485
1781591812736581000,36.3805810546875,-0.41470083594322205,0.34727662801742554,1.9496513605117798
1781591812785094400,36.429094482421874,0.0798705667257309,-0.342542439699173,2.47003173828125
1781591812833607700,36.47760766601562,0.17455461621284485,-0.8921679854393005,2.036088705062866
1781591812882121000,36.52612084960938,-1.1834741830825806,0.03260490670800209,-0.8971312642097473
1781591812930634200,36.57463427734375,-0.9524145722389221,-0.23747368156909943,-0.08261945843696594
1781591812979147500,36.6231474609375,-0.16539163887500763,-1.032514214515686,0.5710822343826294
1781591813027660800,36.67166088867187,0.492127925157547,-0.8795689344406128,-0.35353797674179077
1781591813076174000,36.72017407226563,0.1193477064371109,-0.7035635113716125,-0.5519927144050598
1781591813124687400,36.768687255859376,-0.6087267398834229,0.09819651395082474,0.7241802215576172
1781591813173200400,36.817200439453124,0.027030766010284424,-0.4172206521034241,0.41004297137260437
1781591813221714000,36.8657138671875,-1.2790744304656982,0.10965022444725037,-0.6740128993988037
1781591813270227000,36.91422705078125,-0.4698313772678375,-0.513279139995575,-0.7677043080329895
1781591813318740200,36.962740234375,0.6765327453613281,0.14943279325962067,-0.6782126426696777
1781591813367253500,37.01125341796875,0.8169552683830261,0.36628979444503784,-0.9985348582267761
1781591813415766800,37.05976684570312,1.0113630294799805,0.37980517745018005,-1.260443091392517
1781591813464280000,37.10828002929688,0.7874047160148621,0.4872410297393799,-1.0623701810836792
1781591813512793300,37.15679345703125,0.8697187304496765,0.927521824836731,-1.41506826877594
1781591813561306600,37.205306640625,0.5096139311790466,0.7429642677307129,-0.7985529899597168
1781591813609820000,37.25381982421875,0.16149736940860748,0.6371319890022278,0.38217228651046753
1781591813658333200,37.30233325195312,0.28787001967430115,-0.3979020416736603,0.08529199659824371
1781591813706846500,37.35084643554688,-0.37171122431755066,-0.6087267398834229,1.692095398902893
1781591813755359500,37.399359375,-0.44761115312576294,-0.36827510595321655,2.0699915885925293
1781591813803873000,37.447873046875,0.12767073512077332,-0.6668352484703064,2.58296537399292
1781591813852386000,37.49638598632812,-0.6094903349876404,-0.6119337677955627,0.43340855836868286
1781591813900899300,37.5448994140625,-1.08268141746521,-0.06207913160324097,-0.6257545948028564
1781591813949412600,37.59341259765625,-0.6259836554527283,-0.6556106209754944,0.6955459117889404
1781591813997926000,37.64192578125,0.11178825795650482,-1.253341794013977,0.18341214954853058
1781591814046439200,37.69043920898437,0.48418670892715454,-1.0306816101074219,-0.5183951258659363
1781591814094952400,37.73895239257813,-0.5067123174667358,-0.1328630894422531,0.16966769099235535
1781591814143465700,37.7874658203125,-0.4335612654685974,-0.5456549525260925,0.572151243686676
1781591814191978800,37.835978759765624,-0.25091269612312317,0.2101374864578247,-0.09934188425540924
1781591814240492000,37.88449194335937,-0.4595230221748352,-0.4330267608165741,-0.9210313558578491
1781591814289005300,37.93300537109375,-0.27603453397750854,-0.3850739002227783,-0.6426297426223755
1781591814337518600,37.9815185546875,0.6701186895370483,-0.7185297012329102,-0.5514581799507141
1781591814386031900,38.030031982421875,1.5190680027008057,-0.3338375985622406,-0.5923097729682922
1781591814434545200,38.07854516601562,1.0727548599243164,0.6752346754074097,-0.7995456457138062
1781591814483058400,38.12705834960938,0.34872743487358093,1.4511092901229858,-1.48371422290802
1781591814531571500,38.175571533203126,0.8974367380142212,2.337855815887451,-1.5848886966705322
1781591814580084700,38.224084716796874,0.5872701406478882,2.3128867149353027,-0.1104138121008873
1781591814628598000,38.27259790039062,0.19738568365573883,1.3770419359207153,0.3113883137702942
1781591814677111300,38.321111328125,0.26167920231819153,-0.2945895493030548,-0.007483093533664942
1781591814725624600,38.36962451171875,-0.03145953640341759,0.14462223649024963,1.244789719581604
1781591814774137600,38.4181376953125,0.05283980444073677,0.3868301212787628,2.1648285388946533
1781591814822651100,38.46665112304687,0.47983428835868835,-1.2441024780273438,2.5213444232940674
1781591814871164200,38.5151640625,-0.8785762786865234,-0.9314160943031311,0.3364337682723999
1781591814919677400,38.563677490234376,-1.2836560010910034,-0.2612210512161255,-1.170493245124817
1781591814968190700,38.612190673828124,-0.7944296598434448,-0.7002037763595581,0.4459312856197357
1781591815016704000,38.6607041015625,0.048792824149131775,-1.5272382497787476,0.32100942730903625
1781591815065217300,38.70921728515625,0.43600472807884216,-1.062904715538025,-0.4222602844238281
1781591815113730300,38.757730224609375,-0.5264127254486084,-0.4234820008277893,0.04589121788740158
1781591815162243600,38.80624365234375,-0.3132972717285156,-0.360410213470459,0.3917934000492096
1781591815210756900,38.8547568359375,-0.42042768001556396,0.308104932308197,-0.19349141418933868
1781591815259270100,38.90327026367188,-0.9908226728439331,-0.43516480922698975,-1.1083377599716187
1781591815307783400,38.951783447265626,-0.1568395346403122,-0.6544652581214905,-0.7423534393310547
1781591815356296400,39.00029638671875,0.883768618106842,-0.3554469347000122,-0.6161335110664368
1781591815404809700,39.04880981445312,1.5322779417037964,0.07040216773748398,-0.8273400068283081
1781591815453323000,39.09732299804688,0.9728785157203674,0.9169843792915344,-1.102534532546997
1781591815501836300,39.145836181640625,0.4309650957584381,1.2881611585617065,-1.4442371129989624
1781591815550349600,39.194349609375,0.7279980778694153,1.774027705192566,-1.0784053802490234
1781591815598862600,39.24286254882813,0.001679878099821508,1.6086360216140747,0.7938187718391418
1781591815647376000,39.2913759765625,0.35873034596443176,0.10728313028812408,-0.09644027799367905
1781591815695889200,39.33988916015625,0.543440580368042,-0.727921724319458,0.2623664140701294
1781591815744402400,39.38840234375,0.0948367565870285,0.07124210149049759,1.8545855283737183
1781591815792915700,39.43691577148437,0.5708531141281128,-0.8062651753425598,2.2573745250701904
1781591815841428700,39.4854287109375,0.34895649552345276,-1.462639331817627,2.5460081100463867
1781591815889942000,39.53394189453125,-1.377805471420288,-0.1357647031545639,-0.6047561168670654
1781591815938455300,39.58245532226562,-1.2134828567504883,-0.367053359746933,-0.7082213759422302
1781591815986968300,39.63096826171875,-0.4367683231830597,-1.0777945518493652,0.9262236952781677
1781591816035481600,39.67948168945313,0.3825540542602539,-1.1552979946136475,-0.10063996911048889
1781591816083995000,39.727994873046875,0.3407098352909088,-1.0554215908050537,-0.5584831237792969
1781591816132508200,39.77650805664062,-0.42882707715034485,-0.39683303236961365,0.395764023065567
1781591816181021400,39.825021484375,-0.3249036967754364,0.17172935605049133,0.3365101218223572
1781591816229534500,39.873534423828126,-0.9436333775520325,0.6689732670783997,-0.8016836643218994
1781591816278047700,39.9220478515625,-0.542829692363739,-0.08491020649671555,-0.7699950337409973
1781591816326561000,39.97056103515625,0.25060728192329407,-0.35674503445625305,-0.7439569234848022
1781591816375074000,40.01907397460938,1.1128429174423218,-0.13599377870559692,-0.5961276888847351
1781591816423587300,40.06758740234375,1.162322998046875,0.7549524903297424,-1.0019710063934326
1781591816472100600,40.1161005859375,0.6074286699295044,1.1669044494628906,-1.2974767684936523
1781591816520614000,40.16461376953125,0.6170498132705688,1.9395719766616821,-1.4511092901229858
1781591816569127200,40.21312719726563,0.45822495222091675,1.7975460290908813,-0.6590467095375061
1781591816617640200,40.26164013671875,0.041157014667987823,1.6216169595718384,0.7833577394485474
1781591816666153500,40.310153564453124,0.46173742413520813,0.0005345066892914474,-0.3127627670764923
1781591816714666800,40.35866674804687,0.4359283745288849,-0.6733257174491882,0.6580541133880615
1781591816763179800,40.4071796875,0.2577085793018341,-0.052687086164951324,2.0276129245758057
1781591816811693000,40.455693115234375,0.42882707715034485,-1.1727076768875122,2.249662160873413
1781591816860206300,40.50420629882812,-0.0553596206009388,-1.1916444301605225,1.8861976861953735
1781591816908719400,40.55271923828125,-1.4525600671768188,0.07643445581197739,-0.8904881477355957
1781591816957232600,40.601232666015626,-1.0618356466293335,-0.4667770564556122,-0.14233149588108063
1781591817005746000,40.649745849609374,-0.2738201320171356,-1.1190279722213745,0.694247841835022
1781591817054259200,40.69825927734375,0.4378373324871063,-0.9279799461364746,-0.45822495222091675
1781591817102772200,40.74677221679688,0.275270938873291,-1.0829105377197266,-0.654617965221405
1781591817151285500,40.795285400390625,-0.8959859013557434,0.10957387089729309,0.7303652167320251
1781591817199798800,40.843798828125,-0.01107192412018776,-0.10583232343196869,-0.2560287117958069
1781591817248312000,40.89231201171875,-0.653167188167572,0.39141160249710083,-0.6646972298622131
1781591817296825000,40.9408251953125,-0.7658717036247253,-0.3488801419734955,-1.1406372785568237
1781591817345338400,40.98933837890625,0.30596688389778137,-0.590171754360199,-0.8244383931159973
1781591817393851600,41.0378515625,1.373453140258789,-0.20914483070373535,-0.3572031855583191
1781591817442364700,41.08636474609375,1.4513384103775024,1.1142936944961548,-0.9964731931686401
1781591817490878000,41.1348779296875,0.607046902179718,1.6264275312423706,-1.2402082681655884
1781591817539391200,41.18339111328125,0.4868592321872711,2.044182538986206,-1.5722131729125977
1781591817604801500,41.24880151367187,-0.02932151034474373,1.2974767684936523,1.2186752557754517
1781591817653314600,41.297314453125,0.2571740746498108,0.19181154668331146,0.008399390615522861
1781591817701827800,41.345827880859375,0.16294817626476288,-0.6772963404655457,0.13767364621162415
1781591817750341000,41.39434106445312,0.3216966688632965,-0.06742420047521591,2.0331106185913086
1781591817798854100,41.44285424804688,0.399887353181839,-0.7622065544128418,2.271347999572754
1781591817847367400,41.491367431640626,0.21464261412620544,-1.0533599853515625,2.4625487327575684
1781591817944393700,41.58839379882812,-1.208748698234558,-0.0824667438864708,-0.7149408459663391
1781591817992906800,41.63690673828125,-0.5199986696243286,-0.849483847618103,0.8733075857162476
1781591818041420000,41.685419921875,0.34658941626548767,-1.0706932544708252,-0.21296273171901703
1781591818089933300,41.73393334960937,0.34842199087142944,-0.9589049816131592,-0.5790998339653015
1781591818138446300,41.7824462890625,-0.735633909702301,-0.016875140368938446,0.5133554935455322
1781591818186959600,41.830959716796876,-0.26305365562438965,-0.3704131245613098,0.185092031955719
1781591818235472600,41.87947265625,-0.8175661563873291,0.1588248461484909,-0.5105302333831787
1781591818283985700,41.92798559570313,-0.6609556674957275,-0.9557743072509766,-0.8846849203109741
1781591818332499200,41.97649926757813,0.06123919412493706,-1.6420044898986816,-0.6994401812553406
1781591818381012500,42.025012451171875,1.4701987504959106,-1.082452416419983,-0.45914125442504883
1781591818429525500,42.073525390625,1.7866268157958984,0.3125337064266205,-0.9219476580619812
1781591818478038800,42.12203881835938,0.5942187309265137,1.1948515176773071,-1.1397209167480469
1781591818526551800,42.1705517578125,0.6375137567520142,1.6601014137268066,-1.524107575416565
1781591818575064800,42.21906494140625,0.7711403965950012,1.901392936706543,-0.7910698652267456
1781591818623578400,42.26757836914062,0.399887353181839,1.6849178075790405,0.6424006819725037
1781591818672091400,42.31609130859375,0.05925388261675835,0.037720900028944016,-0.29359689354896545
1781591818720604700,42.364604736328126,0.07070759683847427,-0.08674279600381851,1.0725258588790894
1781591818769118000,42.41311791992187,0.39049530029296875,0.024205517023801804,1.9366704225540161
1781591818817631000,42.461630859375,0.2018144577741623,-1.7676136493682861,2.72735857963562
1781591818866144000,42.51014404296875,-0.17226386070251465,-0.8171079754829407,1.2191333770751953
1781591818914657300,42.5586572265625,-1.7460042238235474,-0.30894485116004944,-0.5984947681427002
1781591818963170600,42.60717065429687,-0.849483847618103,0.07635809481143951,-0.13965895771980286
1781591819011683600,42.65568359375,-0.11056652665138245,-0.9088140726089478,0.4004982113838196
1781591819060196900,42.70419677734375,0.49189886450767517,-1.0569487810134888,-0.44180795550346375
1781591819108710100,42.752710205078124,-0.10369429737329483,-0.4312705397605896,0.10567960888147354
1781591819157223200,42.80122314453125,-0.586888313293457,-0.46143198013305664,0.7029526233673096
1781591819254249700,42.898249755859375,-0.676227331161499,-0.3386481702327728,-1.0476330518722534
1781591819302762800,42.9467626953125,-0.2652680277824402,-0.2467893660068512,-1.0124319791793823
1781591819351276000,42.99527612304688,0.6632464528083801,-0.5160280466079712,-0.8267291188240051
1781591819399789000,43.0437890625,1.5208241939544678,-0.024052800610661507,-0.7878628373146057
1781591819448302300,43.09230224609375,1.00998854637146,0.6068177819252014,-1.114675521850586
1781591819496815400,43.1408154296875,0.4404335021972656,1.3005311489105225,-1.7100396156311035
1781591819545328400,43.189328369140625,0.8043562173843384,2.101222038269043,-1.3706278800964355
1781591819593841700,43.23784155273437,0.10361793637275696,1.6656755208969116,0.8179479241371155
1781591819642355000,43.28635498046875,0.053756099194288254,0.3347539007663727,0.12018764764070511
1781591819690868200,43.3348681640625,0.12988512217998505,0.22128576040267944,-0.07536543905735016
1781591819739381200,43.38338134765625,0.546953022480011,1.4868448972702026,0.8510873317718506
1781591819787894500,43.43189453125,0.794124186038971,-1.3271801471710205,2.0080652236938477
1781591819836407600,43.48040747070313,0.22808164358139038,-1.4912736415863037,1.74508798122406
1781591819884920800,43.5289208984375,-1.8070907592773438,-1.6586506366729736,1.1192569732666016
1781591819933433900,43.577433837890624,-0.9295834898948669,-1.3147337436676025,-0.2620609998703003
1781591819981947100,43.62594702148437,-0.492127925157547,-1.9423209428787231,0.39217519760131836
1781591820030460200,43.67446020507813,0.4477638900279999,-1.7664681673049927,0.19043709337711334
1781591820078973400,43.722973388671875,0.5878809690475464,-1.2553271055221558,0.07651081681251526
1781591820127486700,43.77148681640625,-0.7564033269882202,-0.07147117704153061,0.6815723776817322
1781591820175999700,43.81999975585938,-0.0784197673201561,-0.22495095431804657,0.235793799161911
1781591820273026000,43.917026123046874,-0.6941714882850647,-0.21723878383636475,-1.303585410118103
1781591820321539300,43.96553930664062,0.3591884970664978,-0.15515965223312378,-1.0403027534484863
1781591820370052400,44.01405224609375,1.3082432746887207,0.25350889563560486,-0.25411975383758545
1781591820418565600,44.062565673828125,1.5958079099655151,1.716988205909729,-1.0401500463485718
1781591820467078700,44.11107861328125,1.161101222038269,1.4434734582901,-1.3016000986099243
1781591820515592000,44.15959204101563,0.21991132199764252,2.1607813835144043,-1.3844486474990845
1781591820564105200,44.208105224609376,0.19158247113227844,1.4962369203567505,-0.38385215401649475
1781591820612618200,44.2566181640625,0.2213621288537979,0.826958179473877,0.625067412853241
1781591820661131500,44.30513159179687,0.22189663350582123,0.13889537751674652,-0.5380191802978516
1781591820709644500,44.35364453125,-0.07803797721862793,0.06131555140018463,1.7790672779083252
1781591820806670800,44.4506708984375,0.7115047574043274,-1.3959786891937256,1.9159010648727417
1781591820855184100,44.49918408203125,-1.8853577375411987,-1.7234786748886108,1.128878116607666
1781591820903697200,44.547697265625,-1.057559609413147,-1.1143701076507568,0.5621483325958252
1781591820952210400,44.59621044921875,-0.5866592526435852,-0.8040507435798645,0.1055268943309784
1781591821000723700,44.6447236328125,0.2136499583721161,-1.4158318042755127,-0.05230529606342316
1781591821049236700,44.69323681640625,0.33315038681030273,-0.8755983114242554,-0.6021599769592285
1781591821097750000,44.74175,-0.7552579641342163,-0.34147340059280396,0.3924042582511902
1781591821146263000,44.79026293945312,-0.29420775175094604,-0.3770562708377838,-0.011759147047996521
1781591821194776300,44.8387763671875,-0.7558687925338745,0.7764091491699219,-0.41004297137260437
1781591821243289300,44.887289306640625,-0.8339831233024597,-0.11362084746360779,-1.3744457960128784
1781591821291802600,44.935802734375,-0.0951421856880188,-0.29970553517341614,-1.120326042175293
1781591821340315600,44.98431567382813,1.374903917312622,-0.48502662777900696,-0.5832231640815735
1781591821388829000,45.032828857421876,2.21171236038208,1.1097122430801392,-1.021213173866272
1781591821437342000,45.081342041015624,0.5903244614601135,1.1398736238479614,-1.1072688102722168
1781591821485855200,45.12985522460937,0.0720820426940918,1.7283655405044556,-1.2176061868667603
1781591821534368300,45.1783681640625,0.8493311405181885,1.497840404510498,-0.5429060459136963
1781591821582881500,45.226881591796875,0.20143266022205353,1.176525592803955,0.5856665968894958
1781591821631394600,45.27539453125,-0.04253146052360535,-0.11507165431976318,-0.5768854022026062
1781591821679907800,45.32390795898438,0.023976443335413933,-0.40034550428390503,1.0108284950256348
1781591821728420900,45.3724208984375,0.17424917221069336,-1.7957134246826172,0.8384882807731628
1781591821776934100,45.42093408203125,0.30031639337539673,-2.525315046310425,2.301356792449951
1781591821825447400,45.46944750976562,-0.7315869331359863,-0.6894372701644897,0.6662244200706482
1781591821873960400,45.51796044921875,-1.773111343383789,-0.8306233882904053,1.215162754058838
1781591821922473700,45.5664736328125,-0.8025236129760742,-1.7043126821517944,-0.02848157100379467
1781591821970987000,45.61498706054687,0.02871064469218254,-2.3919174671173096,0.2987128794193268
1781591822019499800,45.66349975585938,0.6577486395835876,-2.053880214691162,-0.4469239413738251
1781591822068013300,45.71201342773438,-0.10919208079576492,-1.0025818347930908,0.021380268037319183
1781591822116526300,45.7605263671875,-0.6825650334358215,-0.11400263756513596,0.8623120188713074
1781591822165039600,45.80903955078125,-0.38957902789115906,0.04802924394607544,0.12621992826461792
1781591822213552600,45.857552734375,-1.0622938871383667,-0.7832813858985901,-0.9065233469009399
1781591822262066000,45.90606591796875,0.9806670546531677,1.4208714962005615,-2.998735189437866
1781591822310579000,45.95457885742187,0.7234166264533997,-2.299905776977539,0.29565855860710144
1781591822407605200,46.051605224609375,0.6186532974243164,1.4718023538589478,-0.9185115694999695
1781591822456118500,46.10011840820312,0.8500946760177612,1.6234495639801025,-1.1711804866790771
1781591822504631600,46.14863159179688,1.179121732711792,1.8071670532226562,-1.1390337944030762
1781591822553144800,46.197144775390626,0.813671886920929,0.8886555433273315,0.16394083201885223
1781591822601658000,46.245658203125,-0.008399390615522861,1.3196970224380493,0.03520108386874199
1781591822650171100,46.29417114257812,-0.245338574051857,-0.1482110619544983,0.6472876071929932
1781591822698684400,46.34268432617188,0.24052800238132477,-0.4967857897281647,1.6721659898757935
1781591822747197400,46.391197509765625,0.4577668011188507,-1.1517091989517212,2.556469202041626
1781591822795710700,46.43971069335937,-0.21945317089557648,-0.12904518842697144,0.6641627550125122
1781591822844223700,46.4882236328125,-1.71431565284729,-0.0691804364323616,1.0509165525436401
1781591822892737000,46.536737060546876,-0.7951168417930603,-0.8148936033248901,-0.10606139898300171
1781591822941250000,46.58525,-0.06291907280683517,-2.0759475231170654,0.5661189556121826
1781591822989763000,46.63376318359375,0.5127446055412292,-1.8250348567962646,-0.14706569910049438
1781591823038276400,46.6822763671875,-0.31115925312042236,-1.1143701076507568,-0.39599308371543884
1781591823086789600,46.73078955078125,-0.5057960152626038,-0.0844520553946495,0.26732969284057617
1781591823135302700,46.779302734375,-0.10949750989675522,0.3150535225868225,0.3820195496082306
1781591823183816000,46.82781591796875,-1.2025636434555054,0.15836669504642487,-0.8560506105422974
1781591823232329000,46.876328857421875,-0.39110618829727173,-0.5227475166320801,-0.4681515097618103
1781591823280842200,46.92484228515625,0.7574723362922668,-0.4280634820461273,-0.44577857851982117
1781591823329355300,46.97335522460938,1.4970768690109253,0.6426297426223755,-0.586888313293457
1781591823377868500,47.02186865234375,1.0819942951202393,2.1205406188964844,-0.94523686170578
1781591823426381600,47.070381591796874,0.7643445730209351,2.1723878383636475,-1.8096106052398682
1781591823474894800,47.11889477539062,0.2960403561592102,1.7006475925445557,-0.6409498453140259
1781591823523408100,47.167408203125,0.01847865991294384,1.2176826000213623,0.5174024701118469
1781591823571921200,47.215921142578125,0.47181668877601624,0.4823541045188904,-0.10285435616970062
1781591823620434200,47.26443408203125,0.37369653582572937,-0.02932151034474373,0.31841325759887695
1781591823668947500,47.31294750976563,0.4909825623035431,0.7612902522087097,1.8513784408569336
1781591823717460700,47.361460693359376,1.0038034915924072,1.5237258672714233,1.2052361965179443
1781591823765974000,47.40997412109375,0.44959646463394165,-0.8055779337882996,1.42927086353302
1781591823814487000,47.45848706054687,-2.2489750385284424,-1.2820523977279663,1.4632502794265747
1781591823863000300,47.50700024414063,-1.0189224481582642,-0.5096902847290039,-0.554665207862854
1781591823911513300,47.555513427734375,-0.3044397234916687,-1.240666389465332,0.3954585790634155
1781591824008539600,47.65253955078125,0.48296496272087097,-1.388724684715271,-0.4787652790546417
1781591824057053000,47.70105297851563,-0.6220130324363708,-0.616209864616394,0.45791950821876526
1781591824105566000,47.74956591796875,-0.3148244321346283,-0.4993056058883667,0.06154462695121765
1781591824154079200,47.79807934570312,-0.3269653618335724,0.4058432877063751,-0.27809619903564453
1781591824202592300,47.84659228515625,-0.7851903438568115,-0.2692386507987976,-1.0806198120117188
1781591824251105500,47.89510546875,-0.22395829856395721,-0.23373213410377502,-0.8975894451141357
1781591824299618600,47.94361865234375,0.8737657070159912,-0.01359174121171236,-0.6141481995582581
1781591824348131800,47.9921318359375,1.650098443031311,0.8701004981994629,-0.7854194045066833
1781591824396644900,48.040644775390625,0.813060998916626,1.9624794721603394,-1.074129343032837
1781591824445158100,48.089158203125,0.42164942622184753,1.4636319875717163,-1.5105159282684326
1781591824493671200,48.13767114257813,0.5444332361221313,1.6426154375076294,-0.9735657572746277
1781591824542184400,48.186184326171876,-0.021380268037319183,1.3868157863616943,0.4062250852584839
1781591824590697500,48.234697509765624,0.1651625633239746,0.46654796600341797,-0.012675444595515728
1781591824639210800,48.28321069335937,0.5324450135231018,-0.7222712635993958,0.3846157491207123
1781591824687723800,48.33172387695313,0.8113811612129211,1.3442842960357666,1.453247308731079
1781591824736237000,48.380237060546875,0.7383828163146973,-0.42615455389022827,1.4004838466644287
1781591824784750000,48.42875,0.2648862302303314,-1.6558253765106201,1.5552617311477661
1781591824833263400,48.47726342773438,-1.9094105958938599,-1.9205588102340698,0.9120211005210876
1781591824881776400,48.5257763671875,-1.133001446723938,-0.43944084644317627,0.16264274716377258
1781591824930289700,48.57428955078125,-0.47991064190864563,-1.2550981044769287,0.2758817970752716
1781591824978802700,48.622802734375,0.24510949850082397,-1.2026400566101074,-0.22640176117420197
1781591825027316000,48.67131591796875,0.2124282270669937,-1.364824652671814,-0.4359283745288849
1781591825075829000,48.7198291015625,-0.743880569934845,-0.41439539194107056,0.3889681398868561
1781591825124342300,48.76834228515625,-0.1357647031545639,0.08162680268287659,-0.015729768201708794
1781591825172855300,48.81685522460938,-1.0417535305023193,0.753654420375824,-0.42623090744018555
1781591825221368600,48.86536865234375,-0.35941755771636963,-0.12255474925041199,-1.0973422527313232
1781591825269881900,48.9138818359375,0.3430769443511963,-0.5964331030845642,-0.9478330612182617
1781591825318395000,48.96239477539063,1.5664863586425781,-0.06108647957444191,-0.6055960655212402
1781591825366908200,49.010908203125,1.2605957984924316,1.3447424173355103,-1.19866943359375
1781591825415421200,49.059421142578124,0.22663083672523499,1.1100940704345703,-1.2351685762405396
1781591825512447500,49.15644750976563,0.3329212963581085,1.2791508436203003,-0.00954476185142994
1781591825560960800,49.204960693359375,0.05971203371882439,0.8317687511444092,0.4783071279525757
1781591825609473800,49.25347387695312,0.33719736337661743,-0.18402300775051117,-0.29184064269065857
1781591825657987000,49.30198706054688,0.7087558507919312,0.9166789650917053,1.0625228881835938
1781591825706500000,49.3505,0.5293906927108765,-0.16569706797599792,1.740964651107788
1781591825755013400,49.399013427734374,0.8984293937683105,-1.986532211303711,2.0906083583831787
1781591825803526400,49.4475263671875,-1.448513150215149,-1.5403718948364258,1.119104266166687
1781591825852039400,49.496039306640625,-1.512882947921753,-1.3516147136688232,-0.18348850309848785
1781591825900552700,49.544552734375,-0.7910698652267456,-1.3854413032531738,0.1441640853881836
1781591825949066000,49.59306591796875,0.07246383279561996,-2.160475969314575,0.24778202176094055
1781591825997579000,49.6415791015625,0.6096430420875549,-1.3513855934143066,-0.5251910090446472
1781591826046092300,49.69009228515625,-0.3092502951622009,-0.4062250852584839,0.1706603467464447
1781591826094605300,49.73860522460937,-0.2709949016571045,-0.2758817970752716,0.3422369956970215
1781591826143118300,49.78711840820313,-0.5426006317138672,0.7383828163146973,-0.07254019379615784
1781591826191631600,49.835631591796876,-0.8055779337882996,-0.10690133273601532,-1.0471749305725098
1781591826240144600,49.88414453125,0.028099779039621353,-0.5027416944503784,-0.939357340335846
1781591826288658000,49.93265795898437,1.1121556758880615,-0.1738673895597458,-0.6597339510917664
1781591826337171000,49.9811708984375,1.7637193202972412,1.0062470436096191,-0.81810063123703
1781591826385684200,50.029684326171875,0.5303833484649658,1.2221877574920654,-1.0593922138214111
1781591826434197200,50.078197265625,0.5233584046363831,1.8782564401626587,-1.398269534111023
1781591826482710500,50.12671044921875,0.57008957862854,1.3752857446670532,-0.9143118858337402
1781591826531223600,50.1752236328125,-0.1562286615371704,1.3755147457122803,0.6508000493049622
1781591826579736600,50.22373657226562,0.5067886710166931,0.5231293439865112,-0.10934479534626007
1781591826628249900,50.27224975585938,0.6008618474006653,-0.3869064748287201,0.7576250433921814
1781591826676763000,50.320762939453125,0.7170025110244751,1.535485029220581,1.5910736322402954
1781591826725276200,50.36927612304687,1.0022764205932617,-0.2378554791212082,1.6922481060028076
1781591826773789200,50.4177890625,-0.04459312930703163,-1.4994440078735352,1.4995203018188477
1781591826822302500,50.466302490234376,-2.339154005050659,-2.1054980754852295,1.0961204767227173
1781591826870815500,50.5148154296875,-1.0350340604782104,-0.25068363547325134,-0.4365392327308655
1781591826919328800,50.56332885742187,-0.24579671025276184,-1.7114139795303345,0.5199986696243286
1781591826967841800,50.611841796875,0.6239219903945923,-1.419497013092041,-0.18226677179336548
1781591827016355000,50.66035498046875,0.12644900381565094,-1.0582468509674072,-0.26710063219070435
1781591827113381400,50.75738134765625,0.16714787483215332,-0.10300707072019577,0.039477135986089706
1781591827161894400,50.805894287109375,-0.8431460857391357,0.3052796721458435,-0.8562033176422119
1781591827210407700,50.85440771484375,-0.7845031023025513,-0.2585485279560089,-1.0264818668365479
1781591827258920700,50.90292065429688,0.4493674039840698,-0.10079269111156464,-0.6359102129936218
1781591827307434000,50.95143408203125,1.5015056133270264,-0.03993528336286545,-0.4304305911064148
1781591827355947000,50.999947021484374,1.425147533416748,1.8615339994430542,-1.0160208940505981
1781591827404460300,51.04846020507812,0.3116937577724457,1.4023164510726929,-1.5139520168304443
1781591827452973300,51.09697338867188,0.35391977429389954,2.1192426681518555,-1.3294708728790283
1781591827501486300,51.145486328125,0.42042768001556396,1.3393974304199219,-0.11911863088607788
1781591827549999600,51.19399951171875,0.164322629570961,1.0225876569747925,0.6055960655212402
1781591827598512600,51.2425126953125,0.2383899837732315,-0.053756099194288254,-0.40523242950439453
1781591827647025700,51.291025634765624,0.6101012229919434,1.5202133655548096,1.4406481981277466
1781591827695539000,51.3395390625,0.7220421433448792,-0.5219075679779053,1.3942224979400635
1781591827744051700,51.3880517578125,0.627968966960907,-1.3895646333694458,1.971489667892456
1781591827792565200,51.436565185546876,-1.9007821083068848,-0.9132428169250488,0.8983530402183533
1781591827889591300,51.53359130859375,-0.5403862595558167,-1.4320961236953735,0.17058399319648743
1781591827938104300,51.582104248046875,0.29764387011528015,-1.399720311164856,0.33460119366645813
1781591827986617600,51.63061767578125,0.5242747068405151,-1.2612067461013794,-0.2315177470445633
1781591828035130600,51.67913061523438,-0.4972439408302307,-0.4033234715461731,0.23357942700386047
1781591828083644000,51.727643798828126,-0.18791727721691132,-0.19043709337711334,0.12728895246982574
1781591828132157000,51.776156982421874,-0.87254399061203,0.6253728270530701,-0.5391645431518555
1781591828180670000,51.824669921875,-0.7391464114189148,0.09728021919727325,-1.1236094236373901
1781591828229183200,51.87318334960938,0.0899498388171196,-0.4943423271179199,-0.7205913662910461
1781591828277696300,51.9216962890625,1.4648537635803223,-0.45066550374031067,-0.3986656367778778
1781591828326209500,51.97020947265625,1.6995785236358643,1.0916153192520142,-0.8910226225852966
1781591828374722300,52.018722412109376,0.28787001967430115,1.2831978797912598,-1.112002968788147
1781591828423235600,52.067235595703124,0.22647811472415924,1.94728422164917,-1.3779581785202026
1781591828471748900,52.11574877929687,0.5471821427345276,1.3738348484039307,-0.7554870247840881
1781591828520262000,52.16426196289063,0.060093823820352554,1.2176826000213623,0.5600103139877319
1781591828568775000,52.21277490234375,0.16554436087608337,0.5275580883026123,-0.5456549525260925
1781591828617288200,52.2612880859375,0.40110909938812256,0.722882091999054,0.6192641854286194
1781591828714314200,52.358314208984375,0.7175370454788208,-1.7342450618743896,1.4492002725601196
1781591828762827500,52.40682763671875,-0.7154753804206848,-1.121776819229126,1.218446135520935
1781591828811340500,52.45534057617188,-1.7872376441955566,-1.5819107294082642,0.6957749724388123
1781591828859853600,52.503853515625,-0.9926552772521973,-1.0722204446792603,-0.13049599528312683
1781591828908366800,52.552366943359374,-0.10247256606817245,-1.921017050743103,0.6172025203704834
1781591828956880000,52.6008798828125,0.6846266984939575,-1.4770710468292236,-0.35468336939811707
1781591829005393000,52.649392822265625,0.09941824525594711,-0.6288089156150818,-0.33169957995414734
1781591829053906200,52.69790625,-0.49052441120147705,-0.05696314200758934,0.5831468105316162
1781591829102419500,52.74641943359375,-0.18974986672401428,0.23655737936496735,0.1303432732820511
1781591829150932500,52.794932373046876,-0.8617774844169617,0.22502730786800385,-0.9144645929336548
1781591829199445500,52.843445556640624,-0.3565923273563385,-0.4056142270565033,-0.817184329032898
1781591829247958800,52.89195874023437,0.560315728187561,-0.42623090744018555,-0.6511818766593933
1781591829296471800,52.94047192382813,1.6867504119873047,0.09063705801963806,-0.6151408553123474
1781591829344984800,52.98898486328125,1.2438733577728271,1.620853304862976,-1.1861467361450195
1781591829393498000,53.037498046875,0.18959715962409973,1.3090832233428955,-1.4335469007492065
1781591829442011100,53.08601123046875,0.708145022392273,1.877798318862915,-1.0470222234725952
1781591829490524200,53.134524169921875,-0.01206457894295454,1.2038617134094238,0.4292088747024536
1781591829539037400,53.18303735351562,0.30260714888572693,0.5481747984886169,0.09918916970491409
1781591829587550500,53.23155053710938,0.2343430072069168,-0.21097742021083832,-0.18493930995464325
1781591829636063200,53.280063232421874,0.42012226581573486,1.187368392944336,1.387273907661438
1781591829684576500,53.32857641601562,0.6595048904418945,-0.2383899837732315,1.546709656715393
1781591829733089800,53.37708984375,0.93729567527771,-1.4992913007736206,1.489288330078125
1781591829781602800,53.425602783203125,-1.9323179721832275,-0.9209550023078918,0.9359975457191467
1781591829830115800,53.47411572265625,-1.3880374431610107,-1.2538763284683228,0.31848961114883423
1781591829878629000,53.52262915039063,-0.5697077512741089,-1.26021409034729,0.07254019379615784
1781591829927142000,53.571141845703124,0.337808221578598,-1.6605595350265503,0.2747364342212677
1781591829975655200,53.6196552734375,0.5367974042892456,-1.4383574724197388,-0.3223838806152344
1781591830024168200,53.66816821289063,-0.451200008392334,-0.35758498311042786,0.09980003535747528
1781591830072681500,53.716681396484375,-0.3165806829929352,-0.37461283802986145,0.15592323243618011
1781591830121194500,53.76519458007812,-0.2427423894405365,0.5096139311790466,-0.20685409009456635
1781591830169707500,53.81370751953125,-0.9775363802909851,-0.3502545952796936,-1.3247365951538086
1781591830218220800,53.862220703125,-0.33574655652046204,-0.4176788032054901,-0.9175189137458801
1781591830315246800,53.95924682617188,1.9704207181930542,0.9018654823303223,-0.6745474338531494
1781591830363759900,54.007759765625,1.032208800315857,1.7163772583007812,-0.9482148289680481
1781591830412273200,54.056273193359374,-0.21113014221191406,1.4085015058517456,-1.0999383926391602
1781591830460786200,54.1047861328125,0.8135191798210144,1.4974586963653564,-1.1162790060043335
1781591830509299200,54.15329931640625,0.0016035200096666813,1.2103521823883057,0.397825688123703
1781591830557812200,54.20181225585937,0.1510363221168518,0.6020836234092712,-0.07108938694000244
1781591830606325200,54.2503251953125,0.45104727149009705,0.10155627131462097,0.10178534686565399
1781591830654838500,54.298838623046876,0.5575668215751648,1.218522548675537,1.6825506687164307
1781591830703351600,54.3473515625,0.6068177819252014,-0.8587231636047363,2.033339738845825
1781591830751864600,54.39586450195313,0.5898662805557251,-1.1866811513900757,1.0731366872787476
1781591830800377600,54.444377685546876,-1.9834779500961304,-1.099556565284729,1.141324520111084
1781591830848891000,54.49289086914062,-1.1541526317596436,-0.8938478827476501,-0.14454588294029236
1781591830897404000,54.54140380859375,-0.471129447221756,-1.223791241645813,0.4176788032054901
1781591830945917000,54.5899169921875,0.3672824501991272,-1.4530946016311646,-0.05352702736854553
1781591830994430000,54.63842993164062,0.5563451051712036,-1.282357931137085,-0.3402516841888428
1781591831042943200,54.68694311523438,-0.41004297137260437,-0.0009926552884280682,0.09850194305181503
1781591831091456300,54.735456298828126,-0.33399030566215515,-0.2067013680934906,0.164322629570961
1781591831139969300,54.78396923828125,-0.5064069032669067,0.5676460862159729,-0.46776971220970154
1781591831188482300,54.832482421875,-0.7778599262237549,-0.2848156988620758,-0.9592103958129883
1781591831236995600,54.88099560546875,-0.07231111824512482,-0.44325876235961914,-0.6707295179367065
1781591831285508600,54.92950854492187,1.1325433254241943,-0.513279139995575,-0.566500723361969
1781591831334022000,54.97802197265625,1.6759839057922363,0.7776308655738831,-0.7896190881729126
1781591831382535000,55.026534912109376,0.4247037470340729,1.303356409072876,-1.1429280042648315
1781591831431048000,55.0750478515625,0.494647741317749,1.9142974615097046,-1.3614648580551147
1781591831479560700,55.12356079101563,0.7841976881027222,1.1744638681411743,-0.689513623714447
1781591831528074000,55.172073974609376,-0.07024945318698883,1.1641556024551392,0.5829941034317017
1781591831576587000,55.2205869140625,0.36025750637054443,0.38446301221847534,-0.37461283802986145
1781591831625100300,55.26910034179687,0.17104214429855347,0.5155698657035828,0.6636282205581665
1781591831673613300,55.31761328125,0.3791179656982422,0.7518218159675598,1.8102214336395264
1781591831722126300,55.36612622070312,0.8265000581741333,-1.2036327123641968,1.606956124305725
1781591831819152400,55.46315234375,-1.9275074005126953,-1.3577996492385864,0.9082031846046448
1781591831867665400,55.51166552734375,-0.9116393327713013,-0.7375428676605225,-0.23739732801914215
1781591831916178700,55.5601787109375,-0.13301581144332886,-1.6865977048873901,0.42737627029418945
1781591831964691700,55.608691650390625,0.5612320303916931,-1.4714205265045166,-0.2205221801996231
1781591832013204700,55.65720483398437,0.16019928455352783,-0.9308052062988281,-0.13942988216876984
1781591832061717800,55.7057177734375,-0.697760283946991,0.05108356848359108,0.3557523787021637
1781591832110230800,55.754230712890624,0.15928299725055695,-0.08857539296150208,-0.03581194952130318
1781591832158743800,55.80274389648437,-0.8051197528839111,0.37407833337783813,-0.8020654320716858
1781591832207257000,55.85125708007813,-0.7248674035072327,-0.3634645342826843,-1.0174716711044312
1781591832255770000,55.89977001953125,0.24350596964359283,-0.3418551981449127,-0.7786235213279724
1781591832304283100,55.948283203125,1.6076433658599854,-0.2099084109067917,-0.5061778426170349
1781591832352796200,55.99679614257813,1.7540218830108643,1.7915136814117432,-0.9624938368797302
1781591832401309200,56.04530908203125,0.5068650245666504,1.6009238958358765,-1.0248019695281982
1781591832449822200,56.093822265625,0.5310705900192261,1.9258276224136353,-0.9611193537712097
1781591832498335200,56.142335205078126,0.47059494256973267,1.151098370552063,-0.2960403561592102
1781591832546848300,56.19084814453125,-0.07414371520280838,0.8764382600784302,0.5365683436393738
1781591832595361500,56.23936157226562,0.31009024381637573,-0.05230529606342316,-0.4180605709552765
1781591832643874600,56.28787451171875,0.2075413018465042,0.6359102129936218,1.194240689277649
1781591832692387600,56.3363876953125,0.5821541547775269,-0.0057268571108579636,1.6552144289016724
1781591832740900600,56.38490063476563,1.0828341245651245,-1.9364413022994995,1.1529308557510376
1781591832789413600,56.43341357421875,-1.5261693000793457,-0.829936146736145,1.2093595266342163
1781591832837926700,56.4819267578125,-1.7519601583480835,-1.243567943572998,0.3098611533641815
1781591832886439700,56.53043969726563,-0.7470875978469849,-1.0293071269989014,-0.16210824251174927
1781591832934952700,56.57895263671875,0.19837833940982819,-1.6097813844680786,0.4399753510951996
1781591832983465700,56.6274658203125,0.5771145224571228,-1.2486076354980469,-0.15966477990150452
1781591833031979000,56.67597900390625,-0.28267768025398254,-0.7059305906295776,0.0077121676877141
1781591833080492000,56.724491943359375,-0.6444623470306396,-0.013286309316754341,0.20891575515270233
1781591833129005000,56.77300512695312,-0.09185878932476044,0.358348548412323,-0.20257803797721863
1781591833177518000,56.82151806640625,-0.8454368710517883,0.17081306874752045,-1.1082614660263062
1781591833226031000,56.870031005859374,-0.5384009480476379,-0.20563235878944397,-0.9469931125640869
1781591833274544000,56.91854418945312,1.113759160041809,0.08613193035125732,-0.8629992008209229
1781591833323057200,56.96705712890625,2.2456915378570557,-0.37751442193984985,-0.6482802629470825
1781591833420083500,57.06408349609375,-0.0054977829568088055,1.9551490545272827,-1.1997383832931519
1781591833468596500,57.11259643554688,0.8260418772697449,1.997527837753296,-1.089553713798523
1781591833517109500,57.161109619140625,0.18730641901493073,1.3807071447372437,0.16332997381687164
1781591833565622500,57.20962255859375,0.1842520833015442,0.7396045327186584,0.16004657745361328
1781591833614135600,57.258135498046876,0.19349141418933868,0.010766491293907166,-0.12805253267288208
1781591833662648600,57.306648681640624,0.4433351159095764,0.6994401812553406,1.8228205442428589
1781591833711161600,57.35516162109375,0.62857985496521,-1.1527018547058105,1.3442842960357666
1781591833759674600,57.403674560546875,0.3451386094093323,-1.580078125,1.522656798362732
1781591833808187600,57.45218774414062,-1.9385030269622803,-0.7004328370094299,1.2581523656845093
1781591833856700700,57.50070068359375,-1.4359140396118164,-0.5529853701591492,-0.0922405794262886
1781591833905213700,57.549213623046874,-0.45020735263824463,-1.569082498550415,0.37003132700920105
1781591833953726700,57.59772680664062,0.5286270976066589,-1.8303035497665405,0.024816380813717842
1781591834002240000,57.64623999023438,0.32154396176338196,-1.2301290035247803,-0.3716348707675934
1781591834050752800,57.694752685546874,-0.585437536239624,-0.25213444232940674,0.45280352234840393
1781591834099265800,57.74326586914062,-0.042913250625133514,-0.23686282336711884,0.25060728192329407
1781591834147779000,57.79177905273438,-0.8139009475708008,0.4569268524646759,-0.5939896106719971
1781591834196292000,57.8402919921875,-0.7230347990989685,-0.23564109206199646,-1.0211368799209595
1781591834244805000,57.88880517578125,0.3926333487033844,-0.07162389904260635,-0.6571378111839294
1781591834293318100,57.937318115234376,2.3322818279266357,0.453719824552536,-0.9680679440498352
1781591834341831000,57.98583081054687,1.3755147457122803,0.6553052067756653,-0.6185769438743591
1781591834390344200,58.03434423828125,-0.13209950923919678,0.9050725102424622,-1.180648922920227
1781591834438857200,58.082857177734375,0.24656029045581818,2.0478477478027344,-1.4786745309829712
1781591834487370200,58.13137036132812,0.7741947770118713,1.2605957984924316,-0.6053670048713684
1781591834535883300,58.17988330078125,0.09468404203653336,1.3630683422088623,0.5991056561470032
1781591834584396300,58.228396240234375,0.33948808908462524,0.49541133642196655,-0.31230461597442627
1781591834632909300,58.27690942382812,0.349643737077713,0.2274707704782486,1.239444613456726
1781591834681422000,58.325422119140626,0.6772199869155884,1.5251766443252563,1.0896300077438354
1781591834729935400,58.373935302734374,0.7507528066635132,-1.9061272144317627,1.9778274297714233
1781591834778448400,58.42244848632812,-1.4240784645080566,-1.500512957572937,1.3581050634384155
1781591834826961400,58.47096142578125,-1.7263038158416748,-1.2292890548706055,0.2801578640937805
1781591834875474400,58.51947436523437,-0.9686788320541382,-0.8519272804260254,-0.11545344442129135
1781591834923987500,58.56798754882813,-0.030085090547800064,-1.7670791149139404,0.2759581506252289
1781591835021013200,58.66501318359375,-0.0977383628487587,-0.5880337357521057,-0.26129740476608276
1781591835069526300,58.7135263671875,-0.5491674542427063,-0.26282456517219543,0.4730384051799774
1781591835118039300,58.762039306640624,-0.2857320010662079,0.4554760456085205,0.02542724646627903
1781591835166552300,58.81055224609375,-1.1310925483703613,0.0844520553946495,-0.8996511101722717
1781591835215065300,58.8590654296875,-0.2228129357099533,-0.6620246767997742,-0.6682860851287842
1781591835263578400,58.90757836914062,0.7035635113716125,-0.7668643593788147,-0.7102066874504089
1781591835312091400,58.95609130859375,1.7320307493209839,-0.0642935186624527,-0.8049670457839966
1781591835360604400,59.0046044921875,0.8885791897773743,1.282586932182312,-1.1180353164672852
1781591835409117400,59.05311743164062,0.35017824172973633,1.7182098627090454,-1.3779581785202026
1781591835457630500,59.10163037109375,0.8242856860160828,1.7777692079544067,-0.94523686170578
1781591835506143500,59.1501435546875,0.050930850207805634,1.2160027027130127,0.5361102223396301
1781591835554656500,59.19865649414062,0.46685341000556946,0.42592546343803406,-0.06215549260377884
1781591835603169500,59.24716943359375,0.2883281707763672,-0.4469239413738251,0.5554288029670715
1781591835651682600,59.2956826171875,0.3520108163356781,1.2179116010665894,1.1739293336868286
1781591835700195600,59.34419555664063,0.6428588032722473,-1.6829324960708618,1.9289582967758179
1781591835748708600,59.39270849609375,-0.05887209251523018,-1.3098467588424683,1.7374521493911743
1781591835845734700,59.48973461914063,-1.0543526411056519,-0.5613847374916077,-0.7428115606307983
1781591835894247700,59.53824755859375,-0.20601414144039154,-1.8700097799301147,0.6062069535255432
1781591835942760700,59.5867607421875,0.6175842881202698,-1.3617702722549438,-0.18959715962409973
1781591835991273700,59.635273681640626,0.34193155169487,-1.2641083002090454,-0.40927940607070923
1781591836039786800,59.683786865234374,-0.6406444311141968,-0.35735589265823364,0.6251437664031982
1781591836088299800,59.7322998046875,-0.6450732350349426,0.551152765750885,0.19753839075565338
1781591836136812500,59.7808125,-0.6813433170318604,0.7961859107017517,-0.7619010806083679
1781591836185325600,59.82932568359375,-0.30894485116004944,-0.30520331859588623,-0.9087377190589905
1781591836233838600,59.87783862304688,0.4009563624858856,-0.2796233594417572,-1.0557270050048828
1781591836282351900,59.926351806640625,1.6103923320770264,0.2586248815059662,-0.4355465769767761
1781591836330865000,59.97486499023437,0.9335541129112244,1.1771364212036133,-0.9624938368797302
1781591836379378000,60.0233779296875,0.44325876235961914,1.4184280633926392,-1.3732240200042725
1781591836427890700,60.071890625,0.7914516925811768,2.052123785018921,-1.4033855199813843
1781591836476403700,60.12040380859375,0.39912378787994385,1.61085045337677,-0.291229784488678
1781591836573429800,60.2174296875,0.40317076444625854,0.02649625949561596,-0.3750709891319275
1781591836621942800,60.26594287109375,0.44409868121147156,0.35537058115005493,1.2988512516021729
1781591836670455800,60.314455810546875,0.6727148294448853,1.2482258081436157,1.4311034679412842
1781591836718968800,60.36296875,1.1060470342636108,-1.6157373189926147,1.6758311986923218
1781591836767481900,60.41148193359375,-1.4379756450653076,-0.8849903345108032,1.592524528503418
1781591836815995000,60.459994873046874,-1.7356195449829102,-1.1689660549163818,0.330706924200058
1781591836864508000,60.5085078125,-0.7601448893547058,-0.8042798638343811,-0.337350070476532
1781591836913020700,60.557020751953125,0.08613193035125732,-1.4591268301010132,0.2084576040506363
1781591836961533700,60.60553369140625,0.7456368207931519,-1.2424989938735962,-0.358348548412323
1781591837010046700,60.654046630859376,-0.11667517572641373,-0.8132901191711426,-0.002901607658714056
1781591837058559700,60.702559814453124,-0.7163153290748596,-0.34865108132362366,0.4497492015361786
1781591837107072800,60.75107275390625,-0.02367101050913334,0.24411684274673462,-0.05329795181751251
1781591837155585800,60.799585693359376,-0.6937133073806763,-0.3361283540725708,-1.0808488130569458
1781591837204098800,60.848098876953124,-0.44791659712791443,-0.328645259141922,-0.8660535216331482
1781591837252611600,60.89661157226563,0.8575014472007751,0.053374309092760086,-0.7303652167320251
1781591837301124600,60.94512451171875,1.826027512550354,0.9121738076210022,-0.6690496206283569
1781591837349637600,60.9936376953125,1.5566362142562866,1.9920300245285034,-1.2251657247543335
1781591837398150700,61.042150634765626,0.12721258401870728,1.4004838466644287,-1.3167953491210938
1781591837446663700,61.09066357421875,0.44814568758010864,2.1400883197784424,-0.7858011722564697
1781591837495176700,61.1391767578125,-0.33429574966430664,1.378950834274292,0.7922916412353516
1781591837543689500,61.187689453125,0.3223838806152344,0.5084685683250427,-0.15294526517391205
1781591837592202500,61.23620239257812,0.3375791609287262,-0.4760163724422455,0.6267472505569458
1781591837640715500,61.28471557617188,0.8000801205635071,1.4571415185928345,1.6875903606414795
1781591837689228500,61.333228515625,1.3232858180999756,-0.8523854613304138,1.5108213424682617
1781591837737741600,61.38174145507813,-0.7088322043418884,-0.4864010810852051,1.8070907592773438
1781591837786254300,61.43025439453125,-2.3111305236816406,-2.4654502868652344,0.9767727851867676
1781591837834767400,61.47876733398437,-0.8484911918640137,-0.586888313293457,-0.4436405599117279
1781591837883280400,61.5272802734375,-0.41699156165122986,-0.7203623056411743,0.8134428262710571
1781591837931793400,61.57579345703125,0.4408152997493744,-1.0109812021255493,-0.5137372612953186
1781591837980306400,61.62430639648438,0.41928231716156006,-0.9474512934684753,-0.7908408045768738
1781591838028819500,61.6728193359375,-0.5835285782814026,-0.26366451382637024,0.006948587018996477
1781591838077332500,61.72133251953125,-0.21945317089557648,-0.3663661479949951,0.4541015923023224
1781591838174358300,61.818358154296874,-0.8265000581741333,-0.15416699647903442,-1.0060943365097046
