time,seconds_elapsed,z,y,x
1781591776522513400,0.166513427734375,6.3978095054626465,5.316253662109375,-2.4269204139709473
1781591776580728600,0.224728515625,6.288936138153076,5.717649936676025,-2.0542383193969727
1781591776638943500,0.282943603515625,6.583851337432861,6.251847267150879,-2.571686029434204
1781591776697158400,0.341158447265625,6.093921184539795,7.666005611419678,-2.0063817501068115
1781591776755373600,0.39937353515625,6.626922130584717,8.58484935760498,-0.7872386574745178
1781591776852398800,0.49639892578125,6.036493301391602,9.053244590759277,-0.8321040868759155
1781591776968829000,0.612828857421875,6.126822471618652,6.448058605194092,2.0572292804718018
1781591777027043800,0.6710439453125,7.074978351593018,5.889933109283447,1.5038890838623047
1781591777104664000,0.7486640625,6.068796634674072,5.680561065673828,-0.8644071817398071
1781591777182284000,0.826283935546875,6.937989234924316,5.4526448249816895,-0.9415757060050964
1781591777259904300,0.903904296875,7.676175117492676,5.607579708099365,-1.174277663230896
1781591777318119200,0.962119140625,8.117650985717773,5.7032928466796875,-0.898504912853241
1781591777415144400,1.05914453125,9.258428573608398,6.51745080947876,-2.0476579666137695
1781591777492764400,1.136764404296875,10.48953628540039,4.969892501831055,-1.073180913925171
1781591777570384600,1.214384521484375,8.964710235595703,4.347758769989014,-1.4117653369903564
1781591777648004900,1.2920048828125,7.654041290283203,3.366701364517212,-0.23629122972488403
1781591777706219800,1.3502197265625,6.771090030670166,4.0420756340026855,-1.3094722032546997
1781591777764435000,1.40843505859375,7.409375190734863,4.528416633605957,-1.5433706045150757
1781591777861460000,1.5054599609375,7.937591075897217,5.507679462432861,-0.6789634227752686
1781591777919675100,1.563675048828125,10.248459815979004,5.531607627868652,-0.7932206988334656
1781591777977890300,1.621890380859375,8.73619556427002,5.354538917541504,-0.5988038778305054
1781591778074915600,1.71891552734375,11.344371795654297,3.7256247997283936,0.4953143000602722
1781591778133130800,1.777130859375,8.606385231018066,3.6939198970794678,0.8129615187644958
1781591778210750700,1.854750732421875,7.9591264724731445,4.005585193634033,0.20937198400497437
1781591778307776000,1.95177587890625,6.8033928871154785,4.591228485107422,-0.8129615187644958
1781591778404801300,2.04880126953125,8.10688304901123,4.931607246398926,-0.9493523836135864
1781591778501826600,2.14582666015625,9.364909172058105,5.537590026855469,-0.28235307335853577
1781591778560041700,2.204041748046875,10.25503921508789,5.358726501464844,-0.22073788940906525
1781591778618257000,2.2622568359375,9.708279609680176,4.554139614105225,-0.914058268070221
1781591778695876900,2.339876953125,8.861220359802246,3.776472330093384,-1.0707881450653076
1781591778773497300,2.417497314453125,8.57767105102539,3.284149169921875,-0.380458801984787
1781591778851117600,2.49511767578125,7.16949462890625,3.9876389503479004,-0.8267202377319336
1781591778928737800,2.57273779296875,7.609774112701416,4.803591251373291,-0.914058268070221
1781591779006358000,2.65035791015625,10.323833465576172,4.23649263381958,-2.994617462158203
1781591779083978000,2.72797802734375,11.158329963684082,4.686941146850586,-3.954139471054077
1781591779142193400,2.786193359375,8.4562349319458,3.9493536949157715,-3.2709884643554688
1781591779239218700,2.88321875,8.658429145812988,3.373281717300415,-5.306084156036377
1781591779297433900,2.941433837890625,6.940980434417725,2.4011974334716797,-3.4917263984680176
1781591779355649000,2.99964892578125,7.966903209686279,2.939582586288452,-1.674975872039795
1781591779413864200,3.0578642578125,5.288137912750244,3.631706476211548,-2.304288148880005
1781591779510889500,3.154889404296875,3.796213150024414,1.2484551668167114,2.9377880096435547
1781591779569104600,3.213104736328125,1.2586246728897095,-1.306481122970581,3.111267566680908
1781591779646724900,3.290724853515625,-0.5814558863639832,-6.8380889892578125,4.948955535888672
1781591779724345300,3.368345458984375,8.787042617797852,-12.215359687805176,8.15234661102295
1781591779801965600,3.445965576171875,14.635101318359375,-16.50210189819336,14.614164352416992
1781591779898990800,3.542990966796875,6.003592014312744,-12.32243824005127,11.466405868530273
1781591779996016000,3.64001611328125,-1.8550357818603516,-4.353142738342285,8.512466430664062
1781591780054231600,3.6982314453125,-0.22133609652519226,-11.412567138671875,1.7569299936294556
1781591780131851800,3.775851806640625,-0.9756734371185303,-12.856038093566895,1.5104693174362183
1781591780209472300,3.85347216796875,3.7561333179473877,-14.436497688293457,2.5393829345703125
1781591780287092500,3.931092529296875,1.184447169303894,-11.733803749084473,-0.6011967062950134
1781591780364712700,4.008712646484375,-3.7639100551605225,-9.256634712219238,-4.17427921295166
1781591780442333000,4.0863330078125,-1.7150555849075317,-5.057230472564697,-5.172684192657471
1781591780539358200,4.183358154296875,-1.3836497068405151,-2.7942185401916504,1.7216359376907349
1781591780597573600,4.24157373046875,1.2765709161758423,-8.313861846923828,-3.6634113788604736
1781591780694599000,4.338598876953125,5.352744102478027,-7.495516777038574,-4.329214572906494
1781591780752814000,4.39681396484375,0.3768695592880249,-17.027923583984375,-0.09571290761232376
1781591780811029200,4.455029296875,1.9423737525939941,-15.687943458557129,-6.057430744171143
1781591780927459800,4.5714599609375,-3.0963125228881836,-5.752943992614746,0.2667997181415558
1781591780985675300,4.62967529296875,2.7840490341186523,-1.5798611640930176,-11.433505058288574
1781591781082700500,4.726700439453125,-2.713460922241211,-8.811569213867188,-2.097907304763794
1781591781160321000,4.804321044921875,-1.578664779663086,-14.972489356994629,0.8841479420661926
1781591781218536200,4.8625361328125,-1.6426727771759033,-9.835697174072266,-2.894717216491699
1781591781276751600,4.920751708984375,-1.2005987167358398,0.6705885529518127,-3.2895328998565674
1781591781334966800,4.978966796875,1.0444670915603638,-2.032104730606079,-4.875974178314209
1781591781451397400,5.0953974609375,-0.4013960063457489,-15.958332061767578,0.8081758618354797
1781591781509612500,5.153612548828125,-1.2185449600219727,-11.623734474182129,0.061016976833343506
1781591781587233000,5.23123291015625,1.2987045049667358,3.4570305347442627,-2.65423846244812
1781591781664853200,5.308853271484375,2.0213370323181152,-5.105685234069824,-2.956930637359619
1781591781723068700,5.367068603515625,1.423729419708252,-18.799808502197266,-6.273981094360352
1781591781781283800,5.425283935546875,-2.421536445617676,-15.53779411315918,-4.222733974456787
1781591781839499300,5.483499267578125,0.7052844762802124,-11.697911262512207,1.9812572002410889
1781591781936524800,5.58052490234375,-4.532604217529297,-13.915459632873535,-3.1585259437561035
1781591782014145300,5.658145263671875,-0.9924231767654419,-9.793225288391113,3.305086374282837
1781591782072360400,5.7163603515625,-0.6478567123413086,-1.4003994464874268,-1.3668999671936035
1781591782130576000,5.774575927734375,2.239083766937256,-14.981462478637695,9.724431037902832
1781591782188791000,5.832791015625,0.03529413416981697,-10.883753776550293,7.1228346824646
1781591782285816600,5.929816650390625,-1.846660852432251,-12.441481590270996,3.304488182067871
1781591782344032000,5.988031982421875,-0.32183465361595154,-4.749154567718506,1.511067509651184
1781591782460462600,6.104462646484375,-1.5469598770141602,-9.120841979980469,3.11246395111084
1781591782518678000,6.162677978515625,-0.7734799385070801,-8.675178527832031,3.617349624633789
1781591782576893400,6.2208935546875,-1.059422254562378,-8.846863746643066,3.985246181488037
1781591782635108900,6.27910888671875,-0.8123632669448853,-9.174081802368164,5.100301265716553
1781591782693324000,6.337323974609375,-1.358525037765503,-8.675178527832031,3.601198196411133
1781591782790349600,6.434349609375,-1.654038667678833,-9.42891788482666,2.492722988128662
1781591782848565000,6.49256494140625,-1.3824533224105835,-9.025128364562988,2.9838497638702393
1781591782926185500,6.570185546875,-1.2867404222488403,-9.480961799621582,2.902493953704834
1781591782984401000,6.62840087890625,-1.2789636850357056,-9.19561767578125,3.1345977783203125
1781591783042616000,6.686615966796875,-1.4464613199234009,-9.378069877624512,2.9072794914245605
1781591783139641900,6.783641845703125,-1.1288141012191772,-9.574281692504883,3.257229804992676
1781591783197857300,6.841857177734375,-1.3226326704025269,-9.175278663635254,3.1645078659057617
1781591783256072400,6.900072509765625,-1.4524433612823486,-9.118449211120605,3.139981508255005
1781591783353098000,6.997097900390625,-1.545763373374939,-9.825528144836426,2.4610180854797363
1781591783411313400,7.0553134765625,-1.272383451461792,-9.271589279174805,3.2709884643554688
1781591783469528800,7.11352880859375,-1.8687944412231445,-9.311071395874023,3.2033913135528564
1781591783585959700,7.229959716796875,-1.6061822175979614,-9.512067794799805,2.8342983722686768
1781591783644175000,7.288175048828125,-1.5493526458740234,-9.431310653686523,2.7314071655273438
1781591783702390500,7.346390625,-1.5798611640930176,-9.216554641723633,3.0370900630950928
1781591783760605700,7.404605712890625,-1.7114664316177368,-9.45763111114502,3.157329559326172
1781591783857631500,7.501631591796875,-1.628315806388855,-9.407382011413574,3.1932218074798584
1781591783935252000,7.579251953125,-1.5002998113632202,-9.149555206298828,3.2141590118408203
1781591783993467400,7.63746728515625,-1.5343974828720093,-9.227322578430176,3.2213375568389893
1781591784051682800,7.695682861328125,-1.607378602027893,-9.306285858154297,3.187239646911621
1781591784109898000,7.75389794921875,-1.6606189012527466,-9.282357215881348,3.1830523014068604
1781591784206923800,7.850923828125,-1.633101463317871,-9.119645118713379,3.3176486492156982
1781591784284544300,7.928544189453125,-1.6510475873947144,-9.232108116149902,3.3655049800872803
1781591784362165000,8.0061650390625,-1.667797327041626,-9.264410972595215,3.342773199081421
1781591784459190500,8.1031904296875,-1.664208173751831,-9.278169631958008,3.202194929122925
1781591784556216300,8.20021630859375,-1.5326029062271118,-9.037691116333008,3.2141590118408203
1781591784614431700,8.258431640625,-1.6546368598937988,-9.378668785095215,3.3613176345825195
1781591784711457300,8.355457275390625,-1.3962119817733765,-9.06281566619873,3.236292600631714
1781591784769672700,8.413672607421875,-1.5343974828720093,-9.199206352233887,3.3643085956573486
1781591784847293400,8.49129345703125,-1.571486234664917,-9.232706069946289,3.3882367610931396
1781591784924914000,8.568913818359375,-1.4195420742034912,-9.300901412963867,3.4205398559570312
1781591784983129300,8.62712939453125,-1.5152549743652344,-9.297910690307617,3.046063184738159
1781591785041344800,8.6853447265625,-1.5487544536590576,-9.377471923828125,3.1926236152648926
1781591785099560200,8.743560302734375,-1.5667005777359009,-9.429515838623047,3.1375887393951416
1781591785215991000,8.859990966796875,-1.6193426847457886,-9.43190860748291,2.837289333343506
1781591785274206500,8.91820654296875,-1.5050854682922363,-9.253045082092285,2.9419753551483154
1781591785332422100,8.976422119140626,-1.2747762203216553,-9.583852767944336,2.8624141216278076
1781591785390637600,9.034637451171875,-1.1180464029312134,-9.699904441833496,3.180659532546997
1781591785448853000,9.09285302734375,-0.9176474809646606,-9.56471061706543,2.8941190242767334
1781591785507068400,9.151068359375,-0.8859425783157349,-9.316454887390137,3.0275187492370605
1781591785565283800,9.209283935546875,-0.9391828775405884,-9.44626522064209,3.3613176345825195
1781591785662309600,9.3063095703125,-0.9810572862625122,-9.252447128295898,3.009572744369507
1781591785739930400,9.383930419921874,-0.9194421172142029,-9.853643417358398,4.218546390533447
1781591785798145800,9.442145751953126,-1.2664014101028442,-9.032905578613281,2.830709218978882
1781591785895171600,9.539171630859375,-1.9262222051620483,-8.798408508300781,2.9186453819274902
1781591785972792000,9.6167919921875,-0.729810893535614,-9.252447128295898,4.054637908935547
1781591786031007700,9.6750078125,-0.49292147159576416,-9.7005033493042,4.613960266113281
1781591786128033500,9.772033447265626,-0.13160525262355804,-9.207581520080566,3.8727834224700928
1781591786205654300,9.849654296875,0.40677985548973083,-7.598408222198486,5.315057277679443
1781591786263869700,9.90786962890625,0.3523431420326233,-7.290332317352295,4.767699241638184
1781591786360895500,10.0048955078125,0.1740778535604477,-7.939385414123535,6.555736064910889
1781591786477326600,10.12132666015625,1.4452649354934692,-8.737990379333496,8.164310455322266
1781591786574352400,10.218352294921875,-0.3487538993358612,-10.323833465576172,2.4436700344085693
1781591786690783700,10.33478369140625,-0.5467599630355835,-8.769096374511719,1.6689938306808472
1781591786748999200,10.392999267578125,-1.423729419708252,-9.21715259552002,3.8835511207580566
1781591786884835300,10.52883544921875,-1.6474584341049194,-8.931808471679688,3.2440693378448486
1781591786943051000,10.587051025390625,-0.9768698215484619,-10.584053039550781,4.942375183105469
1781591787040077000,10.6840771484375,3.0939197540283203,-5.867799282073975,6.001199245452881
1781591787175913200,10.819913330078125,-0.844068169593811,-5.115854740142822,-4.132404804229736
1781591787272939300,10.916939208984376,-6.341578006744385,-16.255640029907227,11.47238826751709
1781591787389370600,11.03337060546875,0.44745782017707825,-6.969694137573242,0.6873382925987244
1781591787486396700,11.130396728515626,1.8819550275802612,-8.22114086151123,5.230710506439209
1781591787564017400,11.208017333984374,2.5286152362823486,-14.426925659179688,2.461616277694702
1781591787641638100,11.28563818359375,-1.5858432054519653,-0.5730810165405273,3.893122434616089
1781591787738664400,11.38266455078125,-0.698704183101654,-13.048660278320312,0.8309076428413391
1781591787835690500,11.4796904296875,-0.39900317788124084,-6.4354963302612305,2.107478618621826
1781591787913311200,11.557311279296876,-1.7910277843475342,-9.555737495422363,2.719442844390869
1781591787971527200,11.615527099609375,-1.0785647630691528,-9.947562217712402,2.504088878631592
1781591788049148000,11.69314794921875,2.7762725353240967,-5.653641700744629,6.393621921539307
1781591788146174000,11.790174072265625,-5.212764263153076,-6.530611038208008,0.06759724020957947
1781591788243200300,11.8872001953125,-4.7988057136535645,-28.09652328491211,6.154339790344238
1781591788379037000,12.023036865234374,2.191227436065674,-7.418946743011475,0.03170489892363548
1781591788437252600,12.081252685546875,0.05802594870328903,-6.093921184539795,4.103092670440674
1781591788495468500,12.139468505859375,-0.900897741317749,-5.227120876312256,7.270591735839844
1781591788553684200,12.197684326171874,2.3742783069610596,-13.607383728027344,2.2648067474365234
1781591788631305200,12.27530517578125,-2.950948476791382,-14.562718391418457,5.796612739562988
1781591788689521000,12.33352099609375,-0.7890332937240601,-11.560324668884277,1.4871392250061035
1781591788747736600,12.391736572265625,-1.3830515146255493,-7.99083137512207,1.3860424757003784
1781591788864168200,12.508168212890626,-1.0145567655563354,-5.697908878326416,0.44327038526535034
1781591788941789200,12.5857890625,-2.5076780319213867,-10.199406623840332,3.744767427444458
1781591789000005000,12.644005126953125,-1.4350954294204712,-6.820741176605225,2.2582263946533203
1781591789058220800,12.702220703125,1.0193424224853516,-5.979663848876953,2.695514678955078
1781591789174652400,12.81865234375,-3.6711881160736084,-6.14417028427124,-0.7567301392555237
1781591789291084000,12.935083984375,-6.244070529937744,-19.334007263183594,10.458429336547852
1781591789349300000,12.993300048828125,1.1030912399291992,-2.8737800121307373,4.046263217926025
1781591789407516000,13.051515869140625,0.771087110042572,-7.136593341827393,2.228316068649292
1781591789504542200,13.148542236328124,0.672383189201355,-7.3298139572143555,3.3056845664978027
1781591789562758100,13.206758056640625,-0.28594231605529785,-10.715060234069824,5.079962253570557
1781591789659784400,13.303784423828125,-1.6420745849609375,-13.144372940063477,6.97268533706665
1781591789718000400,13.36200048828125,-0.2877369225025177,-10.209575653076172,0.3367897868156433
1781591789815027000,13.45902685546875,0.8183453679084778,-11.243873596191406,1.7443677186965942
1781591789912053200,13.55605322265625,-0.33858439326286316,-7.080362319946289,2.0398812294006348
1781591790009079800,13.653079833984375,-1.9214365482330322,-9.5264253616333,1.3956137895584106
1781591790125511400,13.769511474609375,0.8512466549873352,-8.109275817871094,6.391229152679443
1781591790183727400,13.827727294921875,-2.376072883605957,-12.080164909362793,5.571687698364258
1781591790280754200,13.924754150390624,-0.014955141581594944,-13.094721794128418,-3.951148271560669
1781591790358375400,14.00237548828125,-3.6358940601348877,-13.439887046813965,11.510673522949219
1781591790416591400,14.06059130859375,2.3886351585388184,-5.6153564453125,1.7575281858444214
1781591790474807300,14.118807373046875,0.5246263742446899,-5.24626350402832,-1.0205388069152832
1781591790571833900,14.215833740234375,0.8901300430297852,-8.394619941711426,3.865006685256958
1781591790668860400,14.3128603515625,5.56151819229126,-10.89571762084961,1.290927767753601
1781591790765887000,14.409886962890624,-1.3986048698425293,-7.252645492553711,2.204986095428467
1781591790824103000,14.46810302734375,-1.604387640953064,-10.028918266296387,-2.2438695430755615
1781591790921129500,14.56512939453125,-2.15653133392334,-5.623133182525635,-1.3489537239074707
1781591790979345400,14.623345458984375,0.23330020904541016,-8.95513916015625,0.6137589812278748
1781591791076372000,14.7203720703125,-1.2508480548858643,-8.565108299255371,3.66520619392395
1781591791134588200,14.778588134765625,2.475973129272461,-7.761120319366455,4.329214572906494
1781591791212209400,14.85620947265625,-3.548556089401245,-8.742775917053223,2.8283164501190186
1781591791289830700,14.93383056640625,-0.7645068168640137,-15.855441093444824,-1.5194423198699951
1781591791348046800,14.992046875,-5.42871618270874,-17.65604019165039,9.186644554138184
1781591791425668000,15.069668212890624,1.41834557056427,-4.718646049499512,0.4342973232269287
1781591791483884000,15.127884033203125,-0.048454657196998596,-5.1218366622924805,0.9248259663581848
1781591791580910600,15.22491064453125,0.6454638838768005,-8.520243644714355,3.9798622131347656
1781591791639126800,15.283126708984375,2.190030813217163,-11.79601764678955,-0.3128615617752075
1781591791774964200,15.418964111328124,-3.3176486492156982,-11.84028434753418,2.840280532836914
1781591791833180200,15.47718017578125,1.1694921255111694,-10.9573335647583,1.3465609550476074
1781591791891396400,15.535396240234375,-1.9674984216690063,-6.483951091766357,2.200200319290161
1781591791988423000,15.6324228515625,-1.4656038284301758,-8.406583786010742,1.9100706577301025
1781591792046638800,15.690638916015626,-2.0135602951049805,-10.801201820373535,2.586641311645508
1781591792143665700,15.787665771484376,0.6939185857772827,-8.057829856872559,5.663811206817627
1781591792201881900,15.8458818359375,-3.2656047344207764,-10.497312545776367,4.84187650680542
1781591792279503000,15.923503173828125,0.2267199456691742,-12.489935874938965,-3.032902717590332
1781591792357124600,16.00112451171875,-4.7605204582214355,-13.408780097961426,8.292924880981445
1781591792454151400,16.0981513671875,1.155733346939087,-7.268796920776367,-1.2526426315307617
1781591792551178000,16.195177978515623,0.4899304509162903,-9.160921096801758,4.570291042327881
1781591792609394200,16.253394287109376,1.7922241687774658,-8.485547065734863,4.235894203186035
1781591792667610000,16.311610107421874,2.225325107574463,-11.92762279510498,3.016152858734131
1781591792803447800,16.44744775390625,-0.32961133122444153,-11.24207878112793,-3.6634113788604736
1781591792861663700,16.505663818359373,1.5170495510101318,-8.003393173217773,4.240081787109375
1781591792958690600,16.602690673828125,-0.09451649338006973,-7.654041290283203,1.8729819059371948
1781591793055717400,16.69971728515625,-2.270190477371216,-11.892328262329102,2.3407788276672363
1781591793113933300,16.757933349609374,0.8662018179893494,-6.950551509857178,3.0245277881622314
1781591793172149500,16.8161494140625,1.3752747774124146,-7.933403491973877,4.83888578414917
1781591793249771000,16.89377099609375,-2.794816732406616,-8.82114028930664,-0.8721838593482971
1781591793327392300,16.971392333984376,-1.810170292854309,-18.11426544189453,2.1332013607025146
1781591793405013800,17.049013671875,-0.44745782017707825,-4.0420756340026855,3.352942705154419
1781591793463230000,17.10722998046875,0.9146564602851868,-7.782057285308838,-1.6259230375289917
1781591793521446100,17.165446044921875,-0.07896314561367035,-5.898307800292969,2.7278177738189697
1781591793618472700,17.26247265625,0.5676971673965454,-8.0081787109375,5.770890235900879
1781591793754310400,17.398310302734377,-1.6648063659667969,-19.122840881347656,1.2011969089508057
1781591793812526300,17.4565263671875,-2.6943182945251465,-10.208379745483398,0.4301098585128784
1781591793870742500,17.514742431640624,-0.3044866919517517,-10.17428207397461,-1.0546365976333618
1781591793967769300,17.611769287109375,-1.1168500185012817,-6.207580089569092,0.20757736265659332
1781591794064796200,17.708796142578127,-1.4691931009292603,-10.797612190246582,2.2821545600891113
1781591794161823000,17.805822998046875,3.105883836746216,-4.265206336975098,2.6051857471466064
1781591794220039200,17.8640390625,0.13160525262355804,-11.828320503234863,6.115456581115723
1781591794297660700,17.94166064453125,-4.107280254364014,-5.3802618980407715,-0.6167500615119934
1781591794375282200,18.0192822265625,-1.23589289188385,-21.159730911254883,-3.2656047344207764
1781591794472309000,18.11630908203125,2.093719720840454,-0.5515456199645996,3.2727832794189453
1781591794530525000,18.17452490234375,1.9112670421600342,-8.138587951660156,-1.6319050788879395
1781591794627551700,18.2715517578125,1.1982059478759766,-7.7455668449401855,4.513461589813232
1781591794724578800,18.368578857421873,4.215555191040039,-11.463415145874023,0.5784648656845093
1781591794782794800,18.426794677734375,-1.7276179790496826,-23.12543487548828,2.4293131828308105
1781591794860416300,18.504416259765627,-1.2819547653198242,-11.82174015045166,2.1403799057006836
1781591794938037800,18.582037841796875,0.26919254660606384,-8.534002304077148,2.211566209793091
1781591795035064600,18.679064697265623,0.4007977843284607,-7.323233604431152,0.12502498924732208
1781591795132091400,18.77609130859375,-1.5427724123001099,-11.10030460357666,2.609971284866333
1781591795190307600,18.8343076171875,2.799004316329956,-6.045466423034668,2.5256242752075195
1781591795306739700,18.95073974609375,-3.4235310554504395,-9.698110580444336,-0.9254241585731506
1781591795384361200,19.028361328125,-0.39122650027275085,-14.650056838989258,-3.789632797241211
1781591795481388000,19.125387939453127,1.0492527484893799,-0.0687936544418335,4.89990234375
1781591795539604200,19.183604248046876,1.6941183805465698,-7.412964344024658,-1.2921242713928223
1781591795656036400,19.300036376953123,1.2717852592468262,-8.401798248291016,4.202992916107178
1781591795733657900,19.377657958984376,2.551945447921753,-11.873784065246582,1.1174482107162476
1781591795791874000,19.4358740234375,-2.103889226913452,-18.088542938232422,4.082753658294678
1781591795869495600,19.51349560546875,-1.8592232465744019,-11.319846153259277,1.7958134412765503
1781591795947117000,19.591116943359374,0.7507480978965759,-9.533005714416504,2.8181469440460205
1781591796044143900,19.688143798828126,0.6065805554389954,-6.381059646606445,-0.3475574851036072
1781591796102359800,19.74635986328125,-1.4416756629943848,-9.825528144836426,1.4434702396392822
1781591796199387000,19.843386962890627,2.6668007373809814,-5.958726406097412,2.9383862018585205
1781591796257602800,19.901602783203124,-0.6161518096923828,-10.056435585021973,6.3493547439575195
1781591796335224300,19.979224365234376,-3.5958142280578613,-7.130611419677734,-2.2474586963653564
1781591796393440500,20.0374404296875,-0.1010967567563057,-11.745768547058105,-5.881557941436768
1781591796451656400,20.095656494140623,-7.807182312011719,-24.08734893798828,8.913862228393555
1781591796529278000,20.17327783203125,2.122433662414551,-3.94815731048584,2.1433708667755127
1781591796587494100,20.231494140625,0.6550351977348328,-5.828317642211914,-0.8769695162773132
1781591796645710000,20.2897099609375,0.3080759048461914,-6.265007972717285,2.2683959007263184
1781591796703926300,20.34792626953125,-0.12681959569454193,-11.590234756469727,5.182853698730469
1781591796800953000,20.444953125,-0.8452646136283875,-16.387245178222656,4.1730828285217285
1781591796897980000,20.54197998046875,-2.255235433578491,-9.870991706848145,1.3914263248443604
1781591796956196000,20.600196044921876,0.44027936458587646,-9.89850902557373,-0.20817556977272034
1781591797014412300,20.658412353515626,-2.4406790733337402,-7.280162811279297,0.34636107087135315
1781591797111438800,20.75543896484375,-1.3698909282684326,-9.635298728942871,1.430907964706421
1781591797208466000,20.8524658203125,2.599203586578369,-5.856433391571045,2.740380048751831
1781591797324897800,20.968897705078124,-4.955535888671875,-13.334004402160645,0.534795880317688
1781591797383114000,21.027114013671873,-1.6295121908187866,-5.6344990730285645,-6.8997039794921875
1781591797518951400,21.162951416015623,2.65423846244812,1.597209095954895,3.696312665939331
1781591797615978500,21.259978515625,-0.12622138857841492,-5.3970112800598145,1.475175142288208
1781591797713005300,21.35700537109375,0.550349235534668,-9.45464038848877,6.214160442352295
1781591797771221200,21.41522119140625,4.651647090911865,-12.702299118041992,-1.9363917112350464
1781591797907059000,21.551058837890626,-0.9391828775405884,-11.531610488891602,2.0279171466827393
1781591797965275000,21.60927490234375,0.5641079545021057,-9.232108116149902,0.8835497498512268
1781591798023491000,21.667490966796876,-1.9142581224441528,-7.432705402374268,0.4456632137298584
1781591798120518000,21.764517822265624,-1.4578272104263306,-9.580862045288086,1.4673985242843628
1781591798217544400,21.86154443359375,2.6356940269470215,-5.319244861602783,1.9932212829589844
1781591798275760600,21.9197607421875,0.4307080805301666,-8.324031829833984,6.318846225738525
1781591798333976800,21.977976806640626,-3.005983352661133,-12.919447898864746,1.0121639966964722
1781591798411603700,22.055603759765624,-0.7878368496894836,-8.330612182617188,-6.978068828582764
1781591798489219600,22.133219482421875,-5.806782245635986,-18.848264694213867,10.700104713439941
1781591798586246400,22.230246337890627,2.221137523651123,-8.211568832397461,-1.9669002294540405
1781591798683273200,22.327273193359375,1.114457130432129,-7.058826923370361,3.294916868209839
1781591798780300000,22.424300048828126,1.659422516822815,-12.741780281066895,-0.607776939868927
1781591798877326800,22.521326904296874,-5.488536834716797,-15.6765775680542,2.0991036891937256
1781591798935542800,22.579542724609375,-1.196411371231079,-8.337790489196777,1.581655740737915
1781591799032569600,22.676569580078127,-0.916451096534729,-10.097711563110352,3.352942705154419
1781591799090785800,22.734785888671876,-0.1453639715909958,-6.617351055145264,-1.0444670915603638
1781591799187812600,22.8318125,-2.334198474884033,-11.394621849060059,1.4817553758621216
1781591799284839200,22.928839111328124,1.649253010749817,-5.5998029708862305,5.444868087768555
1781591799362460700,23.006460693359376,-2.7696921825408936,-9.981060981750488,-0.4205385744571686
1781591799440082200,23.084082275390625,-0.727418065071106,-14.421542167663574,-6.591628074645996
1781591799575919400,23.21991943359375,1.7252250909805298,-4.586442947387695,-0.012562318705022335
1781591799653540900,23.297540771484375,-0.024526432156562805,-4.751547336578369,0.4372883439064026
1781591799750567700,23.394567626953126,0.9852447509765625,-9.927223205566406,5.343770980834961
1781591799886405000,23.530405029296876,-4.877170562744141,-18.396020889282227,2.633301258087158
1781591799944621000,23.58862109375,-1.4015958309173584,-8.82532787322998,0.859621524810791
1781591800041647900,23.68564794921875,-0.23210379481315613,-9.514460563659668,3.119642496109009
1781591800099864000,23.743864013671875,-0.5964110493659973,-6.61794900894165,-1.2699905633926392
1781591800158080000,23.802080078125,-0.7435696125030518,-9.270991325378418,1.561316728591919
1781591800255106800,23.89910693359375,1.4021940231323242,-7.896913051605225,2.1577277183532715
1781591800390944300,24.0349443359375,-3.3373894691467285,-10.846665382385254,1.1718848943710327
1781591800468565500,24.1125654296875,-0.1256231814622879,-9.744770050048828,-6.121438503265381
1781591800526781400,24.170781494140623,-7.801199913024902,-25.324438095092773,7.680362701416016
1781591800604403000,24.24840283203125,2.3718855381011963,-2.5663022994995117,1.8095721006393433
1781591800701429800,24.3454296875,-0.20757736265659332,-5.377270698547363,2.184048891067505
1781591800817861600,24.461861572265626,0.3481557071208954,-10.789835929870605,3.4672000408172607
1781591800914888400,24.558888427734374,-0.542572557926178,-11.176874160766602,0.6550351977348328
1781591800992510000,24.636510009765626,-0.40737804770469666,-12.781262397766113,0.4055834412574768
1781591801050726000,24.694725830078124,1.1312068700790405,-7.729415416717529,0.9038887619972229
1781591801108942000,24.752942138671877,-1.911865234375,-7.35613489151001,0.12023933976888657
1781591801167158000,24.811157958984374,-0.0526420995593071,-8.452047348022461,-0.8374879360198975
1781591801264184600,24.9081845703125,-0.544965386390686,-10.338190078735352,1.5852450132369995
1781591801361211400,25.00521142578125,0.0771685317158699,-11.145768165588379,5.744568824768066
1781591801419427300,25.06342724609375,-4.322634220123291,-11.980862617492676,-0.03349951654672623
1781591801497048800,25.141048828125,0.3768695592880249,-12.698111534118652,-6.198009014129639
1781591801574670000,25.218670166015624,-3.3966116905212402,-12.306884765625,7.418946743011475
1781591801652291600,25.29629150390625,2.342573404312134,-7.4949188232421875,-1.3818551301956177
1781591801710507500,25.354507568359374,0.08434699475765228,-5.411368370056152,0.3768695592880249
1781591801807534300,25.451534423828125,0.9864411354064941,-10.032506942749023,5.173282623291016
1781591801865750300,25.509750244140626,3.9433717727661133,-12.084352493286133,-0.24945175647735596
1781591801923966200,25.56796630859375,-0.6035895347595215,-22.383060455322266,1.4817553758621216
1781591802001587700,25.645587646484376,-2.0883359909057617,-12.52463150024414,2.4059832096099854
1781591802079209000,25.723208984375,0.7932206988334656,-7.9860453605651855,2.0919251441955566
1781591802137425000,25.7814248046875,-2.063211441040039,-7.642077445983887,0.005982056725770235
1781591802215046400,25.85904638671875,-0.5479564070701599,-8.423932075500488,2.053041934967041
1781591802273262300,25.917262451171876,-1.5254244804382324,-10.048060417175293,1.7258232831954956
1781591802370289200,26.0142890625,3.0029923915863037,-5.989234924316406,3.1345977783203125
1781591802447910400,26.091910400390624,-2.557927370071411,-13.73061466217041,2.8079774379730225
1781591802525531600,26.16953173828125,-1.4087743759155273,-4.892126083374023,-6.885347366333008
1781591802603153200,26.247153076171877,-7.475776195526123,-25.185056686401367,10.282557487487793
1781591802680774400,26.3247744140625,2.5160529613494873,-5.356333255767822,1.093519926071167
1781591802777801200,26.42180126953125,-0.1746760457754135,-5.530411243438721,2.5423741340637207
1781591802874827800,26.518827880859376,0.04546362906694412,-10.375279426574707,3.9290146827697754
1781591802933043700,26.577043701171874,6.506682872772217,-9.394820213317871,-0.13698910176753998
1781591802991260000,26.635260009765624,-6.08195686340332,-22.478775024414062,2.6979074478149414
1781591803049475800,26.693475830078125,-1.550549030303955,-8.154141426086426,-0.8386843204498291
1781591803127097300,26.771097412109373,0.8542376756668091,-12.682558059692383,4.226921081542969
1781591803185313300,26.829313232421875,-2.066202402114868,-5.647061347961426,-0.34576287865638733
1781591803243529200,26.887529296875,0.5611169338226318,-8.285746574401855,-0.5485545992851257
1781591803340556000,26.98455615234375,0.381655216217041,-10.17009449005127,2.5250260829925537
1781591803398772000,27.04277197265625,2.733799934387207,-3.9948174953460693,4.286741733551025
1781591803495798500,27.139798583984376,-3.6921253204345703,-11.174481391906738,-0.6951149702072144
1781591803592825300,27.236825439453124,-2.678765058517456,-23.432912826538086,-1.6259230375289917
1781591803651041300,27.295041259765625,-1.2059825658798218,-8.456833839416504,8.665008544921875
1781591803728662500,27.37266259765625,2.172683000564575,-7.641479015350342,-2.586043119430542
1781591803786878700,27.430878662109375,-0.8279166221618652,-6.318846225738525,2.184048891067505
1781591803845094700,27.4890947265625,1.9166508913040161,-9.010771751403809,3.4474592208862305
1781591803942121200,27.586121337890624,4.036093711853027,-10.53918743133545,0.7884350419044495
1781591804000337200,27.644337158203125,-0.13519448041915894,-17.51067543029785,-1.2640085220336914
1781591804077958700,27.721958740234374,-1.602592945098877,-12.655040740966797,2.454437732696533
1781591804155580000,27.799579833984374,0.3128615617752075,-8.322834968566895,1.5726827383041382
1781591804213795800,27.8577958984375,-1.5409778356552124,-7.2681989669799805,-0.9421738982200623
1781591804349633300,27.99363330078125,-1.1754741668701172,-10.837692260742188,3.0424740314483643
1781591804407849200,28.05184912109375,2.9312076568603516,-5.4765729904174805,2.0709879398345947
1781591804524281300,28.16828125,-3.810570001602173,-10.40219783782959,0.5940182209014893
1781591804601902600,28.245902587890626,0.129810631275177,-13.011570930480957,-6.5318074226379395
1781591804656814300,28.300814453125,-8.64795970916748,-25.645675659179688,7.1234331130981445
1781591804739297300,28.38329736328125,2.8501508235931396,-6.945765972137451,1.7303098440170288
1781591804801142300,28.445142333984375,-0.23419751226902008,-5.727519989013672,0.1785643845796585
1781591804904233200,28.548233154296874,1.7303098440170288,-9.932906150817871,3.2350962162017822
1781591804999711700,28.643711669921874,2.296511650085449,-14.806188583374023,0.8997012972831726
1781591805057927700,28.701927734375,-1.3310075998306274,-4.8813581466674805,1.6139588356018066
1781591805135549200,28.779549072265624,-0.5826523303985596,-10.594222068786621,-3.1824541091918945
1781591805193765000,28.83776513671875,0.06939185410737991,-7.115057945251465,0.9134600162506104
1781591805251981000,28.89598095703125,-1.0600204467773438,-7.226922512054443,-0.2829512655735016
1781591805310197200,28.954197265625,-0.6400800347328186,-9.850054740905762,-0.40737804770469666
1781591805407223800,29.051223876953124,1.0827522277832031,-8.725427627563477,1.810768485069275
1781591805484845000,29.128844970703124,0.1495514214038849,-9.21834945678711,5.125426292419434
1781591805543061000,29.18706103515625,-4.614558696746826,-13.240684509277344,0.7369893789291382
1781591805659493000,29.3034931640625,-5.234897613525391,-23.744577407836914,0.9696913957595825
1781591805756519700,29.400519775390624,2.8600213527679443,-5.537590026855469,1.3507484197616577
1781591805814735600,29.458735595703125,0.20937198400497437,-6.7316083908081055,-0.28235307335853577
1781591805872951600,29.51695166015625,0.7585247755050659,-7.082156658172607,2.726621389389038
1781591805969978000,29.61397802734375,0.7040880918502808,-11.815757751464844,3.1441688537597656
1781591806028194000,29.672194091796875,-1.1054840087890625,-15.198013305664062,2.30069899559021
1781591806144626200,29.788626220703126,-1.2526426315307617,-9.896116256713867,-0.9559326171875
1781591806222247400,29.866247314453126,-0.2512463629245758,-8.922237396240234,2.465803623199463
1781591806280463400,29.92446337890625,-0.7507480978965759,-7.206583499908447,-1.44945228099823
1781591806377490000,30.021489990234375,-1.561316728591919,-10.832906723022461,1.2765709161758423
1781591806435706000,30.0797060546875,2.9048867225646973,-7.804789066314697,1.7623138427734375
1781591806571543300,30.215543212890626,-3.775874137878418,-10.345967292785645,-0.4893322288990021
1781591806629759200,30.27375927734375,-0.7507480978965759,-5.317450046539307,-6.74656343460083
1781591806687975200,30.33197509765625,-4.90408992767334,-27.548566818237305,1.9214365482330322
1781591806765596400,30.409596435546874,2.093719720840454,1.303490161895752,3.94815731048584
1781591806843218000,30.487218017578126,-0.20039889216423035,-7.093522548675537,0.3242274820804596
1781591806940244500,30.584244384765626,1.965105652809143,-8.10389232635498,3.57906436920166
1781591807037271000,30.68127099609375,2.7690939903259277,-9.770493507385254,2.0213370323181152
1781591807095487000,30.739487060546875,-2.4939193725585938,-13.652249336242676,-0.4342973232269287
1781591807173108200,30.817108154296875,-1.51166570186615,-8.868398666381836,-3.8883368968963623
1781591807231324200,30.87532421875,1.1312068700790405,-11.24746322631836,4.7371907234191895
1781591807347756000,30.991756103515623,-0.5084748268127441,-9.78126049041748,-0.7513462901115417
1781591807425377300,31.069377197265624,-2.237887382507324,-9.17707347869873,3.1004998683929443
1781591807483593200,31.12759326171875,0.5335994362831116,-4.662415027618408,1.2095718383789062
1781591807561214700,31.205214599609373,-3.4552359580993652,-13.322039604187012,2.717050075531006
1781591807638836000,31.2828359375,0.6442674994468689,-8.762516975402832,-5.5621161460876465
1781591807697052000,31.341052001953123,-7.810771465301514,-23.206192016601562,2.1750757694244385
1781591807755267800,31.399267822265625,1.280758261680603,-2.046461582183838,9.399605751037598
1781591807813483800,31.45748388671875,1.5212370157241821,-8.151150703430176,-1.073180913925171
1781591807891105000,31.53510498046875,1.194616675376892,-4.512863636016846,0.7615157961845398
1781591807968726300,31.612726318359375,0.14117653667926788,-11.281560897827148,2.108675003051758
1781591808026942200,31.670942138671876,2.8564319610595703,-11.789437294006348,0.2871387302875519
1781591808123969000,31.767968994140624,-4.163511276245117,-16.590635299682617,-1.810768485069275
1781591808201590300,31.84559033203125,-1.3286148309707642,-7.182655334472656,-2.4436700344085693
1781591808279211500,31.92321142578125,0.10588239878416061,-9.09811019897461,2.3306093215942383
1781591808376238000,32.02023803710937,-0.5796613097190857,-8.230711936950684,-1.5954145193099976
1781591808473264600,32.1172646484375,0.13938191533088684,-10.207182884216309,2.730808734893799
1781591808531480600,32.17548046875,0.7860422134399414,-5.328815937042236,4.392025947570801
1781591808609101800,32.25310180664062,-0.7495517134666443,-9.854242324829102,1.176072359085083
1781591808667317800,32.31131787109375,-3.5018959045410156,-5.44426965713501,-3.414557933807373
1781591808725533700,32.36953369140625,-4.8502516746521,-30.253652572631836,0.7172485589981079
1781591808783749600,32.42774951171875,-0.908674418926239,-2.4400808811187744,6.629913330078125
1781591808880776400,32.5247763671875,0.4103690981864929,-6.20638370513916,0.06161518394947052
1781591808977803000,32.621802978515625,1.5595221519470215,-8.775078773498535,4.174877166748047
1781591809074829600,32.71882958984375,6.430112838745117,-8.799007415771484,1.3489537239074707
1781591809133045500,32.77704541015625,-7.799405574798584,-23.547168731689453,2.6434707641601562
1781591809191261400,32.835261474609375,-0.3840480446815491,-6.186643123626709,-3.104687452316284
1781591809268882700,32.91288256835937,0.5629115104675293,-14.1194486618042,4.496711730957031
1781591809327098600,32.9710986328125,-2.2325034141540527,-4.641477584838867,-1.397408366203308
1781591809385314600,33.029314453125,-0.3074777126312256,-9.742975234985352,-0.33858439326286316
1781591809482341000,33.12634106445312,2.0273189544677734,-7.724629878997803,0.8949156403541565
1781591809579367700,33.22336767578125,-0.3607180118560791,-15.967904090881348,4.180859565734863
1781591809637583600,33.28158349609375,-4.3896331787109375,-5.886343479156494,-0.6777670383453369
1781591809734610200,33.37861010742188,-8.02373218536377,-25.18086814880371,-0.9804590940475464
1781591809831636700,33.47563671875,2.33180570602417,-4.965705394744873,0.8691928386688232
1781591809928663300,33.57266333007812,0.6203392744064331,-6.345765590667725,1.3381860256195068
1781591809986879500,33.63087939453125,1.719243049621582,-9.06580638885498,1.5625132322311401
1781591810083906000,33.727906005859374,5.2731828689575195,-10.074979782104492,-0.8045865893363953
1781591810219743200,33.8637431640625,-0.8997012972831726,-9.780662536621094,-1.3256237506866455
1781591810277959200,33.921959228515625,0.3756731450557709,-10.482955932617188,2.7218358516693115
1781591810336175000,33.98017504882812,-1.4416756629943848,-5.600401401519775,-0.7716853022575378
1781591810433201700,34.07720166015625,-1.5702898502349854,-8.951549530029297,-0.47617170214653015
1781591810530228200,34.174228271484374,2.648256540298462,-7.183851718902588,1.0821540355682373
1781591810685470700,34.329470703125,-3.122035264968872,-5.400600910186768,-5.07517671585083
1781591810782497300,34.42649731445312,-7.975277900695801,-27.503103256225586,4.1970109939575195
1781591810879523800,34.52352392578125,2.6428725719451904,-7.785646915435791,2.5088746547698975
1781591810937739800,34.58173974609375,0.844068169593811,-5.944967746734619,0.4061816334724426
1781591811034766300,34.67876635742188,1.827518343925476,-10.103693962097168,-0.8315058946609497
1781591811131793000,34.77579296875,5.350949764251709,-9.693324089050293,3.735196113586426
1781591811248224800,34.89222485351563,-1.2245270013809204,-9.969695091247559,3.4618160724639893
1781591811325846000,34.969845947265625,0.4331009089946747,-10.197611808776855,-0.3314059376716614
1781591811384062000,35.02806201171875,-1.9022940397262573,-5.31266450881958,0.3439682424068451
1781591811481088500,35.12508862304688,-1.0654042959213257,-9.67777156829834,0.3086741268634796
1781591811578115000,35.222114990234374,2.743969440460205,-6.919445037841797,0.23629122972488403
1781591811636331000,35.2803310546875,-1.2203395366668701,-10.551151275634766,4.958526611328125
1781591811694547000,35.338546875,-2.999403238296509,-12.099905967712402,1.2149556875228882
1781591811772168200,35.416168212890625,-1.1318050622940063,-12.802199363708496,-7.746763229370117
1781591811888600000,35.53260009765625,1.4207384586334229,-0.973878800868988,3.3098719120025635
1781591811985626600,35.629626708984375,0.015553346835076809,-5.435296535491943,1.342971682548523
1781591812082653200,35.72665307617188,-1.8305093050003052,-12.530613899230957,4.454239368438721
1781591812140869000,35.784869140625,8.173283576965332,-9.959526062011719,-1.5188441276550293
1781591812257301000,35.90130102539062,0.7393822073936462,-6.576074600219727,-1.866999864578247
1781591812334922200,35.97892211914063,-0.4749752879142761,-13.336397171020508,0.02512463741004467
1781591812393138200,36.03713818359375,-2.1020946502685547,-6.230311870574951,-1.5200406312942505
1781591812490164700,36.13416479492187,-1.4745769500732422,-9.958329200744629,0.5437689423561096
1781591812587191000,36.23119091796875,3.497110366821289,-4.730610370635986,4.509274482727051
1781591812703623000,36.34762280273438,-3.6604204177856445,-7.581658363342285,-2.1876380443573
1781591812781244200,36.425244140625,0.16271193325519562,-15.840485572814941,-7.252645492553711
1781591812839460000,36.483460205078124,-7.720442295074463,-20.44308090209961,9.633503913879395
1781591812936486700,36.58048657226563,2.2031915187835693,-7.368099212646484,-2.7762725353240967
1781591813033513200,36.67751318359375,0.9499505758285522,-8.639883995056152,2.7930221557617188
1781591813091729200,36.73572924804687,-0.1579262912273407,-11.216954231262207,4.2586259841918945
1781591813188755700,36.832755615234376,-6.100501537322998,-19.640287399291992,0.768694281578064
1781591813285782300,36.9297822265625,-0.8171489238739014,-9.128618240356445,-3.3445677757263184
1781591813382808600,37.02680859375,-1.9537396430969238,-6.030511379241943,0.4378865361213684
1781591813441024500,37.0850244140625,0.4091726839542389,-8.82114028930664,-0.49710890650749207
1781591813538051000,37.18205102539063,0.3858426511287689,-10.546963691711426,1.195214867591858
1781591813635077600,37.27907763671875,0.3930211067199707,-8.393424034118652,3.1417760848999023
1781591813712699000,37.35669897460937,-3.9942193031311035,-8.346165657043457,-1.1730812788009644
1781591813790319900,37.43431982421875,-3.266801118850708,-22.2149658203125,-4.056432723999023
1781591813887346400,37.53134643554687,2.100898265838623,0.5288137793540955,3.954737663269043
1781591813984373000,37.628373046875,-0.8913264274597168,-5.946762561798096,0.8668000102043152
1781591814042589000,37.6865888671875,0.5156532526016235,-8.113463401794434,2.6249263286590576
1781591814139615500,37.78361547851563,4.386044025421143,-12.441481590270996,0.0023928226437419653
1781591814256047000,37.90004711914062,-2.300100803375244,-9.358329772949219,0.08075776696205139
1781591814333668400,37.97766845703125,0.052043892443180084,-10.89272689819336,1.8376877307891846
1781591814391884300,38.03588427734375,-1.9411773681640625,-6.08195686340332,-1.72941255569458
1781591814488910800,38.13291088867187,-0.26440688967704773,-10.25204849243164,-1.698904037475586
1781591814585937200,38.229937255859376,4.126422882080078,-5.333003520965576,1.2885349988937378
1781591814644153000,38.288153076171874,0.5162515044212341,-9.926624298095703,7.392027378082275
1781591814702369000,38.346369140625,-2.507079839706421,-12.190235137939453,2.981456995010376
1781591814779990300,38.423990234375,-0.03469592705368996,-7.9758758544921875,-6.953542709350586
1781591814838206200,38.482206298828125,-7.363313674926758,-30.727432250976562,5.150550842285156
1781591814935232500,38.579232421875,2.187039852142334,-6.634698867797852,-1.0666006803512573
1781591814993448400,38.637448486328125,0.31465616822242737,-4.391427993774414,-1.0019944906234741
1781591815090475000,38.73447509765625,0.9505487680435181,-11.799606323242188,5.571687698364258
1781591815187501300,38.831501220703124,-0.3445664644241333,-13.192827224731445,2.6907291412353516
1781591815245717200,38.88971728515625,-1.8065811395645142,-10.527223587036133,1.8269200325012207
1781591815303933200,38.94793310546875,-1.2532408237457275,-9.070592880249023,-2.1918256282806396
1781591815381554400,39.025554443359376,-1.1682956218719482,-7.438089370727539,2.675773859024048
1781591815439770000,39.08377001953125,-0.19202402234077454,-5.111069202423096,-1.7096717357635498
1781591815497986000,39.14198608398438,-1.057029366493225,-10.907083511352539,-0.6065805554389954
1781591815595012600,39.2390126953125,4.837090969085693,-5.123033046722412,1.5463616847991943
1781591815730849500,39.374849609375,-3.5467612743377686,-5.849853038787842,-2.2911276817321777
1781591815808470800,39.452470703125,-0.6281159520149231,-25.70130729675293,-8.091927528381348
1781591815886091800,39.530091796875,-1.1234302520751953,-2.4562325477600098,7.576872825622559
1781591815963713000,39.607713134765625,1.470389485359192,-6.317649841308594,-4.13060998916626
1781591816021929000,39.66592895507812,-0.08614161610603333,-6.1226348876953125,1.7766708135604858
1781591816118955300,39.762955322265626,1.2059825658798218,-10.942378044128418,4.490131855010986
1781591816215981800,39.85998193359375,-1.521835207939148,-18.427724838256836,-1.1048858165740967
1781591816313008000,39.957008056640625,-0.5880361795425415,-13.671990394592285,-4.137788772583008
1781591816371224000,40.01522412109375,0.36251261830329895,-6.810571670532227,1.6402798891067505
1781591816468250400,40.11225048828125,0.14895321428775787,-8.564510345458984,-1.537388563156128
1781591816565277000,40.20927685546875,-0.9577272534370422,-9.351150512695312,0.7627122402191162
1781591816623492600,40.26749267578125,5.983851432800293,-5.979065418243408,4.350151538848877
1781591816701113900,40.34511376953125,-1.6857435703277588,-14.602798461914062,3.7357943058013916
1781591816798140400,40.44214038085938,-1.3004990816116333,-12.17527961730957,-8.193622589111328
1781591816856356000,40.500356201171876,-8.333602905273438,-24.900310516357422,7.629515171051025
1781591816953382400,40.59738232421875,3.3278181552886963,-7.22871732711792,-2.4526431560516357
1781591817050409000,40.694408935546875,0.9439685344696045,-7.320242881774902,2.5806591510772705
1781591817108625000,40.752625,0.4534398913383484,-10.50508975982666,4.652843475341797
1781591817186246000,40.830245849609376,4.996213912963867,-10.137791633605957,1.2370892763137817
1781591817244461800,40.8884619140625,-4.106083869934082,-14.070993423461914,-1.246660590171814
1781591817302677500,40.94667749023437,-1.1676974296569824,-10.834700584411621,1.1318050622940063
1781591817399704000,41.0437041015625,-0.3194418251514435,-7.855038642883301,-0.5682953596115112
1781591817535541000,41.179541015625,-1.8735800981521606,-11.402996063232422,-0.2476571500301361
1781591817592643600,41.2366435546875,4.49252462387085,-6.415157318115234,2.7864420413970947
1781591817650859500,41.294859619140624,-0.49651068449020386,-9.20279598236084,8.421539306640625
1781591817709075200,41.3530751953125,-3.671786308288574,-12.656835556030273,-0.4019941985607147
1781591817806101800,41.450101806640625,-0.45583271980285645,-19.698911666870117,-7.165307521820068
1781591817864317400,41.5083173828125,-8.009973526000977,-17.94736671447754,8.00638484954834
1781591817922532900,41.566532958984375,2.906083106994629,0.35892340540885925,1.7180466651916504
1781591817980748800,41.62474877929687,0.6747759580612183,-5.876772403717041,-1.9489539861679077
1781591818038964700,41.68296484375,0.25722843408584595,-7.371089935302734,2.8869404792785645
1781591818135991300,41.7799912109375,1.368694543838501,-12.053844451904297,1.714457392692566
1781591818233017600,41.877017578125,-3.2410783767700195,-17.22951889038086,-0.605384111404419
1781591818291233000,41.93523291015625,-1.2801600694656372,-11.307283401489258,2.258824586868286
1781591818388259800,42.032259765625,-0.6005984544754028,-7.0995049476623535,-0.519242525100708
1781591818485286100,42.1292861328125,-0.7226324677467346,-9.07119083404541,-2.4981069564819336
1781591818582312200,42.226312255859376,3.2207393646240234,-7.579265594482422,1.6534404754638672
1781591818640528400,42.2845283203125,1.073180913925171,-5.289334297180176,8.791230201721191
1781591818737554700,42.3815546875,-4.2245283126831055,-6.16391134262085,-2.7314071655273438
1781591818834581000,42.4785810546875,-6.413960933685303,-33.00898742675781,-2.4131617546081543
1781591818892796700,42.53679663085938,-0.5467599630355835,-5.1876397132873535,4.945964336395264
1781591818989823200,42.6338232421875,0.43549370765686035,-4.925625324249268,-0.5730810165405273
1781591819086849500,42.730849609375,0.04666004329919815,-10.126425743103027,5.20678186416626
1781591819183875800,42.82787573242187,-0.9954141974449158,-15.511472702026367,2.038684844970703
1781591819242091500,42.88609155273438,-2.431107759475708,-6.780063152313232,2.3976082801818848
1781591819339118000,42.9831181640625,-0.008374879136681557,-8.657232284545898,0.41874396800994873
1781591819436144400,43.08014428710938,-0.4977070987224579,-7.22034215927124,-2.5148565769195557
1781591819533170400,43.17717041015625,-2.0817556381225586,-11.898310661315918,-2.616551637649536
1781591819591386400,43.23538647460938,3.126222848892212,-5.02133846282959,2.1990039348602295
1781591819688413000,43.332412841796874,-3.4193434715270996,-13.482358932495117,2.4885356426239014
1781591819785439200,43.42943920898438,-4.00319242477417,-15.547365188598633,-5.8097734451293945
1781591819843655000,43.487655029296874,-6.9690961837768555,-14.011173248291016,6.970292568206787
1781591819940681200,43.58468115234375,2.682354211807251,-6.977470874786377,-1.3758729696273804
1781591820037707500,43.68170751953125,1.4368900060653687,-4.722235679626465,0.42352959513664246
1781591820134734000,43.77873413085938,2.0003998279571533,-14.20020580291748,-2.266003131866455
1781591820192949800,43.83694970703125,-1.9310078620910645,-17.91386604309082,2.1930220127105713
1781591820289976000,43.93397607421875,-0.9224331378936768,-10.473384857177734,-2.5591237545013428
1781591820387002400,44.03100244140625,-1.332802176475525,-7.18086051940918,-2.3700907230377197
1781591820484028700,44.128028564453125,0.04666004329919815,-10.541580200195312,-0.9858429431915283
1781591820542244600,44.18624462890625,-1.5158531665802002,-9.93380355834961,2.63449764251709
1781591820639271000,44.28327099609375,-2.059023857116699,-12.348161697387695,5.039284706115723
1781591820736297200,44.38029711914062,0.4666004180908203,-11.10748291015625,-4.861019134521484
1781591820794513000,44.438512939453126,-7.142575740814209,-27.067609786987305,0.6424728631973267
1781591820891539500,44.53553955078125,-0.27038896083831787,-0.6173482537269592,1.8269200325012207
1781591820988565800,44.632565673828125,0.064606212079525,-6.114858150482178,0.8554341197013855
1781591821085592000,44.72959204101563,0.3397808074951172,-11.556137084960938,3.759124279022217
1781591821143807700,44.787807861328126,3.52103853225708,-10.754541397094727,-0.26560330390930176
1781591821240834300,44.88483422851562,-1.8604196310043335,-11.321640014648438,1.3914263248443604
1781591821337860600,44.981860595703125,0.6867401003837585,-7.106683254241943,0.8614161610603333
1781591821434886700,45.07888671875,-0.9391828775405884,-6.775277137756348,-1.6007983684539795
1781591821493102600,45.1371025390625,-1.7228323221206665,-10.728219985961914,0.7728816866874695
1781591821590129000,45.23412890625,3.988835334777832,-6.246463298797607,7.138986587524414
1781591821687155200,45.3311552734375,-0.8003991842269897,-12.30389404296875,-3.8117663860321045
1781591821745371000,45.38937084960938,-4.185046672821045,-9.579665184020996,-6.089733600616455
1781591821842397400,45.4863974609375,2.2121646404266357,-6.215356826782227,4.9399824142456055
1781591821939423700,45.583423828125,0.31106695532798767,-5.085944652557373,-0.24526432156562805
1781591822036449800,45.68044970703125,1.6378871202468872,-9.19561767578125,1.552941918373108
1781591822094666000,45.738666015625,-0.22492532432079315,-12.136396408081055,-1.275374412536621
1781591822191692300,45.8356923828125,-1.7647067308425903,-8.58185863494873,2.1655044555664062
1781591822288718600,45.93271850585938,6.400800704956055,-14.4263277053833,-2.9180471897125244
1781591822385744600,46.02974462890625,-1.277767300605774,-3.9254255294799805,-3.401397466659546
1781591822443960600,46.08796069335938,-2.462214469909668,-10.007980346679688,-2.23848557472229
1781591822540987000,46.18498681640625,2.7349963188171387,-4.301098823547363,5.900700569152832
1781591822638013400,46.28201342773438,-2.8905298709869385,-12.929616928100586,2.3198416233062744
1781591822696228900,46.34022875976562,-1.4835500717163086,-6.632904529571533,-5.748756408691406
1781591822793255400,46.43725537109375,-5.60399055480957,-11.413763999938965,3.404986619949341
1781591822890281700,46.53428173828125,1.5936198234558105,-3.9326040744781494,0.8458628058433533
1781591822987307800,46.631307861328125,1.7922241687774658,-9.734002113342285,0.98703932762146
1781591823045524000,46.68952392578125,-1.1724830865859985,-12.701102256774902,0.6664010882377625
1781591823142550300,46.78655029296875,-5.942574977874756,-22.158733367919922,-4.993820667266846
1781591823239576600,46.88357666015625,-0.1459621787071228,-9.505488395690918,-1.9525432586669922
1781591823336602600,46.9806025390625,-1.9070796966552734,-5.014159679412842,-4.639683246612549
1781591823394818600,47.03881860351562,1.333998680114746,-9.360722541809082,-0.576670229434967
1781591823491844900,47.135844970703126,0.24287149310112,-6.594619274139404,3.510270833969116
1781591823588871400,47.23287133789062,0.08135596662759781,-16.149160385131836,3.2793633937835693
1781591823647086800,47.2910869140625,-4.025924205780029,-8.35573673248291,-1.3806586265563965
1781591823744113400,47.38811352539062,-7.2095746994018555,-27.081966400146484,-0.37806597352027893
1781591823841139700,47.4851396484375,0.6149554252624512,-1.750349760055542,3.5880374908447266
1781591823938166000,47.582166015625,-0.24167509377002716,-4.035495281219482,0.5204389095306396
1781591823996381700,47.640381591796874,2.520838737487793,-9.462417602539062,2.2923240661621094
1781591824093408300,47.737408203125,5.588437080383301,-10.289137840270996,-1.069591760635376
1781591824190434600,47.8344345703125,-1.415354609489441,-10.85025405883789,-1.2047861814498901
1781591824287460600,47.93146069335938,0.2476571500301361,-10.677970886230469,-0.6843472719192505
1781591824345676500,47.989676513671874,-1.7563318014144897,-5.989234924316406,-3.291327476501465
1781591824442702800,48.08670288085938,-0.8374879360198975,-11.053644180297852,0.9284151792526245
1781591824539729200,48.18372924804687,4.061816215515137,-4.462614059448242,2.7397818565368652
1781591824597944800,48.24194482421875,-1.231107234954834,-11.187642097473145,6.8279194831848145
1781591824694971400,48.338971435546874,-1.231107234954834,-5.472385406494141,-5.5381879806518555
1781591824791997400,48.43599755859375,-6.1603217124938965,-18.576679229736328,5.864808082580566
1781591824889023700,48.53302368164063,3.008974552154541,-7.1270222663879395,-2.407179594039917
1781591824947239700,48.59123974609375,0.0849452018737793,-5.416153907775879,1.211964726448059
1781591825044266000,48.68826586914062,0.4486542344093323,-13.222738265991211,4.453042984008789
1781591825141292300,48.785292236328125,-0.18903298676013947,-22.46381950378418,-3.294916868209839
1781591825199508000,48.84350805664062,-2.1607189178466797,-12.220145225524902,4.30588436126709
1781591825296534300,48.9405341796875,0.33379876613616943,-7.499105930328369,0.4295116662979126
1781591825393560600,49.037560546875,0.29790642857551575,-6.921239376068115,-2.0027925968170166
1781591825490587000,49.1345869140625,-0.7286145091056824,-10.30469036102295,0.22372891008853912
1781591825548802800,49.192802734375,3.81655216217041,-3.4097721576690674,5.02133846282959
1781591825645829000,49.2898291015625,-5.505885124206543,-11.569297790527344,-1.6582261323928833
1781591825742855400,49.38685546875,-6.787241458892822,-23.14577293395996,-6.153143405914307
1781591825839881500,49.48388159179687,-0.22492532432079315,-0.5754738450050354,6.119643688201904
1781591825898097400,49.54209741210938,0.9188438653945923,-4.201796531677246,-2.4849462509155273
1781591825995123700,49.639123779296874,1.810170292854309,-8.685946464538574,0.5539384484291077
1781591826092150000,49.73614990234375,5.395814895629883,-9.600004196166992,-2.581855535507202
1781591826150365700,49.79436572265625,-4.1491546630859375,-16.700706481933594,-0.05742774158716202
1781591826247392000,49.89139208984375,-0.9403793215751648,-10.41476058959961,-5.781059741973877
1781591826344418300,49.98841821289062,-1.022931694984436,-5.544169902801514,-3.5126636028289795
1781591826441444600,50.085444580078125,-1.7766708135604858,-10.63250732421875,1.6785650253295898
1781591826499660500,50.14366064453125,0.49172505736351013,-7.993224143981934,1.7048860788345337
1781591826596686600,50.2406865234375,-0.06699903309345245,-15.649060249328613,3.2614171504974365
1781591826693713000,50.337712890625,-0.6460621356964111,-7.944170951843262,-8.041080474853516
1781591826790739200,50.4347392578125,-1.074377417564392,-11.564512252807617,6.288337707519531
1781591826848955100,50.492955078125,1.588834285736084,-4.339384078979492,1.4321043491363525
1781591826945981400,50.5899814453125,0.5682953596115112,-5.339583873748779,0.836291491985321
1781591827043007700,50.6870078125,0.017946170642971992,-14.46341609954834,1.0157532691955566
1781591827101223400,50.745223388671874,3.7232320308685303,-8.684749603271484,3.466003656387329
1781591827198249700,50.84224975585938,-1.5397813320159912,-5.9306111335754395,-0.745364248752594
1781591827295276000,50.939276123046874,0.48454657196998596,-9.982855796813965,1.750349760055542
1781591827392302300,51.03630224609375,-0.24047867953777313,-9.846465110778809,-2.541177749633789
1781591827450518000,51.09451806640625,-0.5527420043945312,-10.236495018005371,1.0600204467773438
1781591827547544300,51.19154443359375,3.4707891941070557,-7.188039302825928,3.5030922889709473
1781591827644570400,51.2885703125,-2.9216363430023193,-8.565108299255371,-3.617947816848755
1781591827741596700,51.3855966796875,-8.376075744628906,-29.598020553588867,3.19441819190979
1781591827799812600,51.4438125,1.1234302520751953,-4.164707660675049,4.423132419586182
1781591827896838700,51.540838623046874,0.6508477330207825,-3.757927894592285,-0.9655039310455322
1781591827993865000,51.63786499023438,1.23589289188385,-12.496516227722168,4.565505504608154
1781591828052080600,51.69608056640625,3.4983067512512207,-12.473784446716309,-2.974278450012207
1781591828149107000,51.79310693359375,-2.449054002761841,-6.67717170715332,1.6546368598937988
1781591828246133200,51.89013330078125,0.5838487148284912,-8.914461135864258,-2.234896421432495
1781591828343159600,51.98715966796875,-0.05742774158716202,-6.733402729034424,-4.292723655700684
1781591828401375200,52.04537524414062,-0.6005984544754028,-9.876375198364258,-0.9822536706924438
1781591828498401500,52.142401611328125,2.857030153274536,-5.711667537689209,1.9812572002410889
1781591828595427800,52.239427734375,-0.8410771489143372,-13.86640739440918,1.9417755603790283
1781591828692454000,52.33645385742187,-0.550349235534668,-13.357932090759277,-5.856433391571045
1781591828750669800,52.394669921875,-9.248259544372559,-19.380666732788086,5.434100151062012
1781591828847696000,52.49169580078125,3.3176486492156982,-6.965506553649902,-0.8315058946609497
1781591828944722200,52.58872216796875,1.4249259233474731,-7.518248558044434,-0.04785645380616188
1781591829002937600,52.6469375,0.12083754688501358,-12.892528533935547,3.445664644241333
1781591829099964200,52.743964111328125,-3.6993038654327393,-19.889141082763672,-0.040677983313798904
1781591829196990200,52.840990234375,-0.9774680733680725,-9.408578872680664,-0.3433700501918793
1781591829294016500,52.9380166015625,-1.29810631275177,-6.748956203460693,-0.7549355626106262
1781591829352232200,52.99623217773438,0.32303106784820557,-8.237292289733887,-3.376272678375244
1781591829449258500,53.09325854492187,-1.2167502641677856,-10.578668594360352,0.8937192559242249
1781591829546284800,53.19028491210938,-0.5000999569892883,-12.250055313110352,4.4650068283081055
1781591829643310600,53.287310546875,-2.871387243270874,-3.4576287269592285,-4.838287353515625
1781591829701526500,53.345526611328125,-1.7288143634796143,-19.555343627929688,-6.096911907196045
1781591829798552800,53.442552734375,2.076970100402832,-4.4721856117248535,3.9254255294799805
1781591829895579100,53.5395791015625,0.04307080805301666,-3.463610887527466,-0.7022934556007385
1781591829953794600,53.59779467773438,1.3423734903335571,-7.598408222198486,1.007378339767456
1781591830050820900,53.69482080078125,3.7567315101623535,-11.716456413269043,-4.274777889251709
1781591830147847200,53.79184716796875,-2.4430718421936035,-15.798611640930176,-3.221935749053955
1781591830244873500,53.88887353515625,-1.0600204467773438,-8.892925262451172,-5.065605640411377
1781591830303089000,53.9470888671875,-0.22372891008853912,-7.892725467681885,-1.9657038450241089
1781591830400115200,54.044115234375,-0.7812566161155701,-11.02014446258545,-1.397408366203308
1781591830497141500,54.1411416015625,2.11405873298645,-6.052644729614258,1.506281852722168
1781591830594167300,54.238167236328124,-0.5718846321105957,-15.268601417541504,2.2432711124420166
1781591830652383200,54.29638330078125,-3.923032760620117,-4.716253280639648,-2.92283296585083
1781591830749409500,54.393409423828125,-8.139185905456543,-27.16571617126465,4.463810443878174
1781591830846435300,54.490435302734376,2.9204399585723877,-6.51326322555542,-0.2907279431819916
1781591830904651500,54.548651611328125,-0.32183465361595154,-4.36091947555542,-1.1724830865859985
1781591831001677600,54.64567749023438,1.046859860420227,-10.681560516357422,2.623729944229126
1781591831098704000,54.74270385742187,3.014956474304199,-10.963912963867188,2.4909284114837646
1781591831195729700,54.839729736328124,-0.8662018179893494,-7.651050567626953,0.39601215720176697
1781591831253945600,54.89794555664062,-0.8327022790908813,-12.022737503051758,-3.951746702194214
1781591831350972000,54.994971923828125,-0.2476571500301361,-5.986842155456543,-3.7674992084503174
1781591831447998000,55.091998046875,-1.9142581224441528,-10.453045845031738,0.6029912829399109
1781591831506213400,55.15021337890625,2.255235433578491,-7.308876991271973,2.964707374572754
1781591831603239700,55.24723974609375,-2.060220241546631,-14.800804138183594,1.0432707071304321
1781591831700266000,55.34426586914063,0.6640082597732544,-10.670792579650879,-6.300302028656006
1781591831797291800,55.44129174804687,0.8542376756668091,-7.893921852111816,4.706682205200195
1781591831855507700,55.4995078125,2.6464617252349854,-6.97268533706665,-0.5072783827781677
1781591831952534000,55.59653393554687,1.124626636505127,-5.972485542297363,0.13280165195465088
1781591832049560000,55.69356005859375,0.39601215720176697,-14.528022766113281,-1.7048860788345337
1781591832146585900,55.7905859375,-5.686542987823486,-20.212173461914062,-3.510270833969116
1781591832204801800,55.8488017578125,-0.6640082597732544,-8.724231719970703,0.16271193325519562
1781591832301828000,55.945828125,-0.397208571434021,-8.316255569458008,-0.2787638306617737
1781591832398854100,56.04285424804687,-0.10049854964017868,-9.986445426940918,-0.6843472719192505
1781591832457069600,56.101069580078125,-0.8195417523384094,-10.77129077911377,1.7922241687774658
1781591832554095900,56.19809594726563,2.4610180854797363,-7.46919584274292,4.516452789306641
1781591832651122000,56.29512182617187,-2.723032236099243,-6.772884368896484,-3.7986059188842773
1781591832748148000,56.39214794921875,-11.686545372009277,-25.02533531188965,2.1332013607025146
1781591832806363600,56.45036376953125,2.0027925968170166,-6.92482852935791,4.541577339172363
1781591832903389700,56.5473896484375,0.19740787148475647,-2.9563324451446533,-1.1174482107162476
1781591833000415700,56.644415771484375,0.7465606927871704,-12.198610305786133,4.021138668060303
1781591833097442000,56.74144213867187,5.521438121795654,-9.33320426940918,2.341377019882202
1781591833155657700,56.79965771484375,-4.9292144775390625,-14.849857330322266,-3.3930225372314453
1781591833252683800,56.89668383789063,-0.6795616149902344,-9.321240425109863,-3.387040376663208
1781591833349709800,56.99370971679687,-2.152343988418579,-5.489135265350342,-6.4701924324035645
1781591833407925500,57.051925537109376,0.5970092415809631,-8.368897438049316,-2.227717876434326
1781591833504951600,57.14895166015625,1.2430713176727295,-7.668996810913086,4.01754903793335
1781591833601977600,57.2459775390625,-0.97148597240448,-15.43490219116211,1.9250258207321167
1781591833699003600,57.343003662109375,0.031106693670153618,-12.905689239501953,-5.685346603393555
1781591833757219300,57.40121923828125,-10.795219421386719,-20.53759765625,2.2337000370025635
1781591833854245400,57.498245361328124,1.8400806188583374,-5.507081508636475,0.8075776696205139
1781591833951271700,57.59527172851563,1.0767701864242554,-7.008577346801758,0.3326023519039154
1781591834048297500,57.69229736328125,1.5385849475860596,-12.876975059509277,-1.6187444925308228
1781591834106513400,57.750513427734376,-0.7980063557624817,-12.928421020507812,2.688336133956909
1781591834203539500,57.84753955078125,-0.06580262631177902,-9.78544807434082,-1.074377417564392
1781591834300565500,57.9445654296875,1.1054840087890625,-7.403393268585205,2.1571295261383057
1781591834358781200,58.00278125,-0.8087740540504456,-6.345765590667725,-2.7517459392547607
1781591834455807200,58.09980712890625,-1.246660590171814,-11.155339241027832,-0.05623133108019829
1781591834552833300,58.19683325195312,1.4093725681304932,-7.564908981323242,2.4777679443359375
1781591834649859300,58.293859375,-3.896711587905884,-4.849055290222168,-3.8775691986083984
1781591834708074800,58.35207470703125,-2.575873613357544,-16.35374641418457,-6.903293132781982
1781591834805101000,58.44910107421875,1.5122638940811157,-5.095515727996826,5.01296329498291
1781591834902127000,58.546127197265626,0.18424734473228455,-3.913461446762085,-1.0013962984085083
1781591834999153000,58.64315283203125,1.191625714302063,-10.900503158569336,2.8390841484069824
1781591835057368600,58.70136865234375,4.037888050079346,-11.842079162597656,-4.253242015838623
1781591835154394600,58.79839453125,-1.5433706045150757,-6.689135551452637,1.734796404838562
1781591835251420700,58.89542065429688,0.4785645306110382,-12.208181381225586,-3.4121651649475098
1781591835309636000,58.95363598632812,-1.6869399547576904,-5.148158073425293,-2.809173822402954
1781591835406662400,59.05066235351563,-0.9918249845504761,-10.669595718383789,-1.2035897970199585
1781591835503688400,59.1476884765625,3.8368911743164062,-3.968496322631836,4.35254430770874
1781591835639524600,59.28352465820313,-4.1623148918151855,-7.130611419677734,-4.634897232055664
1781591835697740500,59.341740478515625,-4.626522541046143,-15.938591957092285,-8.34736156463623
1781591835755956200,59.39995629882812,-5.509474277496338,-16.271194458007812,4.821537494659424
1781591835852982300,59.496982177734374,2.469393014907837,-6.192625045776367,-1.9465612173080444
1781591835950008000,59.594008056640625,1.576870083808899,-7.576872825622559,0.5874379873275757
1781591836008223700,59.6522236328125,0.0849452018737793,-13.64028549194336,3.6526436805725098
1781591836105249800,59.749249755859374,1.1988041400909424,-12.798011779785156,-1.5254244804382324
1781591836202275800,59.84627587890625,0.3840480446815491,-12.742977142333984,-6.183053493499756
1781591836260491300,59.9044912109375,0.5563312768936157,-6.307480335235596,2.1020946502685547
1781591836357517600,60.001517578125,-0.6185446381568909,-7.99083137512207,-2.4502503871917725
1781591836454543400,60.09854345703125,-1.9525432586669922,-10.043872833251953,0.45942193269729614
1781591836551569200,60.19556909179688,0.47258245944976807,-11.861222267150879,5.295316696166992
1781591836609785000,60.25378515625,-4.512863636016846,-10.090533256530762,-1.3878371715545654
1781591836706811000,60.350810791015626,-4.436293125152588,-19.546968460083008,-7.7491559982299805
1781591836803837000,60.4478369140625,1.495514154434204,-1.2143574953079224,5.216353416442871
1781591836900863000,60.54486303710937,-0.010767702013254166,-3.7088751792907715,-0.3433700501918793
1781591836959078400,60.603078369140626,1.0839486122131348,-7.691728591918945,1.0061819553375244
1781591837056104400,60.7001044921875,6.26440954208374,-9.896714210510254,-2.744567632675171
1781591837153130500,60.79713061523437,-2.0027925968170166,-9.103493690490723,-1.797009825706482
1781591837250156500,60.894156494140624,-0.02392822690308094,-11.050054550170898,-1.9286150932312012
1781591837308372000,60.9523720703125,-0.6029912829399109,-4.161118507385254,-1.6223337650299072
1781591837405398000,61.04939794921875,-1.7084753513336182,-10.875378608703613,-3.032902717590332
1781591837502424000,61.146424072265624,4.327419757843018,-3.680161237716675,5.838487148284912
1781591837560639500,61.20463940429688,-0.3936193287372589,-16.853845596313477,2.885744094848633
1781591837657665500,61.30166552734375,4.132404804229736,-9.522237777709961,-9.056833267211914
1781591837754691600,61.398691650390624,0.18065811693668365,-13.2358980178833,5.170889854431152
1781591837812907000,61.45690698242188,0.6376872062683105,-5.123033046722412,-1.4931213855743408
1781591837909933000,61.55393310546875,-0.16151553392410278,-7.572087287902832,0.8662018179893494
1781591838006959000,61.650958984375,0.4582255482673645,-10.861021995544434,4.602594375610352
1781591838103985200,61.747985107421876,-1.7336000204086304,-21.030517578125,-0.46899324655532837
1781591838162200600,61.80620068359375,-1.6079767942428589,-10.828719139099121,-0.1782652884721756
1781591838259226600,61.9032265625,0.7716853022575378,-10.600204467773438,2.620140790939331
1781591838356252700,62.000252685546876,0.29790642857551575,-7.204789161682129,-1.4273186922073364
1781591838453278200,62.0972783203125,-2.0243279933929443,-9.881160736083984,-0.5276173949241638
1781591838511494100,62.155494140625,4.638486862182617,-5.473581790924072,1.4225330352783203
1781591838608520200,62.252520263671876,-2.6285157203674316,-12.642477989196777,0.8111668825149536
1781591838705546000,62.3495458984375,-2.9587252140045166,-12.4271240234375,-7.208378314971924
1781591838763761400,62.40776147460937,-6.437889099121094,-19.070796966552734,6.386443614959717
1781591838860787500,62.504787353515624,2.5328028202056885,-7.085147857666016,-1.9956140518188477
1781591838957813500,62.6018134765625,1.7539390325546265,-6.226124286651611,0.3409772217273712
1781591839054839600,62.69883959960937,2.1308085918426514,-13.823336601257324,-3.214757204055786
1781591839113055000,62.757054931640624,-0.37926238775253296,-22.791635513305664,-1.384247899055481
1781591839210081000,62.8540810546875,0.09092725813388824,-10.663614273071289,-0.7980063557624817
1781591839307106800,62.95110693359375,-1.963310956954956,-7.014559745788574,-1.557727575302124
1781591839404132600,63.04813256835938,-0.5754738450050354,-9.588040351867676,-0.22372891008853912
1781591839462348300,63.106348388671876,-1.9764715433120728,-9.787840843200684,-0.9547362327575684
1781591839559374300,63.20337426757813,0.9332008361816406,-11.96052360534668,6.145965099334717
1781591839656400400,63.300400390625,-4.735395908355713,-5.029713153839111,-7.328019142150879
1781591839714615800,63.35861572265625,-7.062416076660156,-21.611974716186523,-5.901896953582764
1781591839811641900,63.45564184570313,0.34217363595962524,-0.363709032535553,5.712863922119141
1781591839908667400,63.55266748046875,0.8578268885612488,-3.7363924980163574,0.6305087804794312
1781591840005693400,63.649693359375,0.9762716293334961,-14.102100372314453,1.8556339740753174
1781591840063909000,63.7079091796875,6.351747512817383,-9.080761909484863,1.8376877307891846
1781591840160935000,63.80493481445313,-1.1748759746551514,-5.276174068450928,-1.908276081085205
1781591840257961000,63.9019609375,-0.3314059376716614,-9.006584167480469,1.0875378847122192
1781591840354986800,63.99898681640625,0.06340979784727097,-8.423932075500488,-2.8462624549865723
1781591840413202400,64.05720239257812,-0.24885354936122894,-12.291930198669434,-2.5016961097717285
1781591840510228200,64.15422827148437,4.059423446655273,-5.148158073425293,5.410171985626221
1781591840607254300,64.25125415039062,-6.172286033630371,-10.691131591796875,-0.641276478767395
1781591840665469700,64.3094697265625,2.6189444065093994,-8.221738815307617,-8.031509399414062
1781591840762495700,64.40649584960937,-2.906083106994629,-15.059228897094727,5.209175109863281
1781591840859521500,64.503521484375,1.511067509651184,-6.240481376647949,-2.946761131286621
1781591840956547300,64.60054736328125,1.3603196144104004,-7.362715244293213,2.8905298709869385
1781591841014763000,64.65876293945313,-0.2715853750705719,-14.049458503723145,3.955335855484009
1781591841111789000,64.7557890625,-1.5589239597320557,-16.82034683227539,-2.2755744457244873
1781591841208814800,64.85281494140625,-0.13160525262355804,-12.344572067260742,-5.200799942016602
1781591841305840400,64.94984033203124,-1.8592232465744019,-5.615954875946045,-3.600001573562622
1781591841364056300,65.00805639648438,-0.07657032459974289,-8.551948547363281,-2.557927370071411
1781591841461082000,65.10508203125,-0.5120640397071838,-8.775676727294922,2.7972097396850586
1781591841558108200,65.20210815429688,-0.5946164131164551,-13.383056640625,3.1250264644622803
1781591841616323300,65.2603232421875,-3.8021950721740723,-9.276973724365234,-3.332005500793457
1781591841713349400,65.35734936523437,-8.263612747192383,-26.7062931060791,-2.7361927032470703
1781591841810375400,65.45437548828124,1.0839486122131348,-1.6941183805465698,4.460221290588379
1781591841907401200,65.55140112304687,0.397208571434021,-4.291527271270752,-0.7082754969596863
1781591841965617000,65.60961694335937,1.3387842178344727,-9.504291534423828,2.825923442840576
1781591842062642700,65.706642578125,4.00319242477417,-10.50090217590332,0.2356930375099182
1781591842159668500,65.80366845703125,-1.428515076637268,-12.2799654006958,3.2338998317718506
1781591842256694300,65.9006943359375,0.6340979933738708,-8.48734188079834,0.836291491985321
1781591842314910000,65.95890991210938,-1.1174482107162476,-6.780063152313232,-1.726421594619751
1781591842411936000,66.05593603515625,-1.6223337650299072,-9.982855796813965,-0.3361915946006775
1781591842508961800,66.1529619140625,3.678964853286743,-6.159125328063965,2.11405873298645
1781591842567177200,66.21117724609375,-0.08374879509210587,-14.742179870605469,4.3417768478393555
1781591842664203300,66.30820336914063,-2.273181438446045,-10.023533821105957,-7.546962738037109
1781591842761228800,66.40522875976562,-1.8340985774993896,-13.435699462890625,4.505684852600098
1781591842858254800,66.5022548828125,0.8901300430297852,-4.566701889038086,-3.0975089073181152
1781591842916470300,66.56047021484375,0.2991028428077698,-4.95074987411499,1.0683952569961548
1781591843013496300,66.65749633789062,-0.486939400434494,-13.554143905639648,2.122433662414551
1781591843110522000,66.75452221679687,-1.911865234375,-22.19821548461914,0.35892340540885925
1781591843168737500,66.81273754882812,-1.7443677186965942,-9.737591743469238,0.7824530005455017
1781591843265763600,66.909763671875,0.04426721855998039,-8.737391471862793,1.164108157157898
1781591843362789400,67.00678930664063,0.13639089465141296,-7.657032489776611,-1.3986048698425293
1781591843459815000,67.10381494140626,-0.8638089895248413,-9.422935485839844,0.9523434042930603
1781591843518030600,67.16203051757813,3.0233314037323,-4.783252239227295,3.631108283996582
1781591843615056600,67.259056640625,-3.8799619674682617,-7.594819068908691,-3.6287155151367188
1781591843712082400,67.35608251953126,-9.533005714416504,-25.805395126342773,-2.1379871368408203
1781591843809108000,67.45310791015625,0.7381857633590698,-3.0855448246002197,5.303691387176514
1781591843867324000,67.51132397460937,-0.12801600992679596,-3.617947816848755,-2.2707886695861816
1781591843964349700,67.608349609375,1.9872392416000366,-9.66939640045166,2.0781664848327637
1781591844061375500,67.70537548828125,5.434100151062012,-9.315258979797363,-1.7730815410614014
1781591844158401000,67.80240112304688,-0.5359922647476196,-5.944967746734619,-0.849452018737793
1781591844216617000,67.86061694335937,-1.2741780281066895,-11.856435775756836,-4.120440483093262
1781591844313642800,67.95764282226563,-1.0097711086273193,-6.6006011962890625,-3.6873397827148438
1781591844410668500,68.05466845703126,-0.6161518096923828,-9.67777156829834,-0.5180460810661316
1781591844468884000,68.11288403320313,0.5754738450050354,-7.229913711547852,2.5663022994995117
1781591844565909800,68.20990966796874,-0.916451096534729,-13.786247253417969,3.6741790771484375
1781591844662935800,68.30693579101562,0.7525427341461182,-13.301701545715332,-7.110272407531738
1781591844759961300,68.40396142578125,-1.1593226194381714,-11.36949634552002,3.0340991020202637
1781591844818177000,68.46217700195312,0.7130611538887024,-4.828716278076172,1.4620146751403809
1781591844915202800,68.55920288085937,0.3756731450557709,-6.212964057922363,-0.6173482537269592
1781591845012228600,68.656228515625,-0.5359922647476196,-11.12183952331543,2.830709218978882
1781591845109254400,68.75325439453125,-1.828116536140442,-26.981468200683594,-1.8161523342132568
1781591845167470000,68.81146997070313,-2.531606435775757,-9.504291534423828,2.2815563678741455
1781591845264495900,68.90849584960938,0.5335994362831116,-8.97667407989502,2.3401806354522705
1781591845361521700,69.00552172851563,-0.04546362906694412,-8.079365730285645,-0.9978070259094238
1781591845458547500,69.10254736328125,-1.659422516822815,-9.535398483276367,-0.6640082597732544
1781591845516763000,69.16076293945312,3.8356947898864746,-4.7988057136535645,1.5194423198699951
1781591845613788700,69.25778857421875,-4.047459602355957,-13.205987930297852,-2.434697151184082
1781591845710814500,69.354814453125,-4.832305431365967,-17.182859420776367,-4.981856822967529
1781591845769030000,69.41302978515625,-2.940778970718384,-14.568700790405273,5.587240695953369
1781591845866056000,69.51005590820313,1.397408366203308,-6.222535133361816,-3.1238300800323486
1781591845963081700,69.60708178710938,1.7575281858444214,-8.537590980529785,1.6773686408996582
1781591846060107300,69.70410717773437,3.733999729156494,-10.965109825134277,-2.638087034225464
1781591846118323000,69.76232299804687,-2.6488547325134277,-15.986448287963867,2.788834810256958
1781591846215348700,69.8593486328125,-0.9547362327575684,-8.855836868286133,-3.3643085956573486
1781591846312374800,69.95637475585937,-0.6807580590248108,-9.495916366577148,-0.6065805554389954
1781591846370590000,70.01458984375,-0.1423729509115219,-7.301698207855225,-1.9716858863830566
1781591846467616000,70.11161596679688,-1.301695466041565,-8.908478736877441,0.7968099117279053
1781591846564641800,70.20864184570313,0.7190431952476501,-10.295119285583496,5.006981372833252
1781591846661667600,70.30566748046876,-3.5365917682647705,-5.796612739562988,-3.8428730964660645
1781591846719883000,70.36388305664063,-2.2959132194519043,-12.089735984802246,-7.16650390625
1781591846816908800,70.46090869140625,1.4380863904953003,-5.161318302154541,5.545366287231445
1781591846913934600,70.5579345703125,-0.22971096634864807,-4.821537494659424,-1.3232308626174927
1781591847010960400,70.65496044921875,2.335394859313965,-10.887343406677246,1.6977076530456543
1781591847069176000,70.71317602539062,0.9834501147270203,-10.620543479919434,-3.129812002182007
1781591847166201900,70.81020190429687,-6.025127410888672,-25.202404022216797,-1.963310956954956
1781591847263227600,70.9072275390625,-1.5278172492980957,-11.111071586608887,-6.208178520202637
1781591847321443000,70.96544311523438,1.0193424224853516,-8.120043754577637,1.908276081085205
1781591847418468900,71.06246875,-0.019142581149935722,-9.735198974609375,-2.0063817501068115
1781591847515495000,71.15949487304688,2.093719720840454,-7.082755088806152,4.0079779624938965
1781591847612520700,71.25652075195312,0.19381862878799438,-15.02573013305664,1.7850457429885864
1781591847670736100,71.31473608398437,-4.783252239227295,-2.173879384994507,-3.568894863128662
1781591847767762000,71.41176196289062,-10.101301193237305,-27.791439056396484,6.6245293617248535
1781591847864787700,71.50878759765625,1.9800606966018677,-6.259624004364014,-0.010767702013254166
1781591847923003100,71.56700317382813,-0.6903293132781982,-4.370490550994873,-0.4211367964744568
1781591848020029000,71.66402880859376,2.045863389968872,-8.878568649291992,2.0243279933929443
1781591848117055000,71.76105493164063,0.9834501147270203,-12.309876441955566,-0.1986042857170105
1781591848252891000,71.89689086914062,-1.153340458869934,-9.68494987487793,-3.78544545173645
1781591848311106600,71.9551064453125,1.1258230209350586,-7.1988067626953125,4.614558696746826
1781591848369322000,72.01332202148437,-1.7240287065505981,-5.776273727416992,-4.852644443511963
1781591848466347800,72.11034765625,-1.8867406845092773,-10.50808048248291,0.007178467698395252
1781591848563373600,72.20737353515625,2.0578274726867676,-7.060023307800293,7.0959153175354
1781591848621589200,72.26558935546875,-4.29033088684082,-14.47179126739502,-1.1820544004440308
1781591848718615000,72.36261499023438,-0.7070791125297546,-15.644274711608887,-6.029912948608398
1781591848815640800,72.45964086914063,1.7455641031265259,-4.1730828285217285,5.19242525100708
1781591848873856300,72.51785620117188,2.414358139038086,-6.4594244956970215,-0.9655039310455322
1781591848970882300,72.61488232421875,2.0650060176849365,-6.957131862640381,-0.16031911969184875
1781591849067908000,72.711908203125,0.9176474809646606,-12.332608222961426,-2.396411895751953
1781591849164934000,72.80893383789062,-2.2432711124420166,-14.877374649047852,-3.889533281326294
1781591849223149300,72.8671494140625,-1.4871392250061035,-9.90269660949707,1.7383856773376465
1781591849320175000,72.96417504882812,0.39481574296951294,-7.623532772064209,2.761317253112793
1781591849417201200,73.061201171875,0.003589233849197626,-9.275776863098145,-3.8799619674682617
1781591849514226700,73.15822680664063,2.1272194385528564,-6.702296257019043,2.0817556381225586
1781591849572442400,73.2164423828125,-0.44027936458587646,-9.45164966583252,1.7515461444854736
1781591849669468200,73.31346826171875,2.575873613357544,-14.268401145935059,-4.579862594604492
1781591849766494200,73.410494140625,-3.7770705223083496,-18.736997604370117,1.4632110595703125
1781591849824709600,73.46870971679688,-0.6221339106559753,-3.2614171504974365,5.3802618980407715
1781591849921735400,73.5657353515625,1.200000524520874,-3.9361932277679443,-0.16510476171970367
1781591850018761200,73.66276123046875,-1.2885349988937378,-15.131013870239258,1.210768222808838
1781591850115787300,73.75978735351562,-3.104687452316284,-20.538793563842773,0.576670229434967
1781591850174002700,73.81800268554687,-1.6235301494598389,-9.340383529663086,1.2586246728897095
1781591850271028500,73.91502856445312,0.1902294009923935,-9.291330337524414,-0.0011964113218709826
1781591850406864600,74.05086474609375,-0.14356936514377594,-10.201799392700195,-0.3194418251514435
1781591850465080000,74.109080078125,-1.5960127115249634,-10.171889305114746,0.7286145091056824
1781591850523295500,74.16729541015626,4.526023864746094,-4.143172264099121,3.7567315101623535
1781591850620321500,74.26432153320313,-5.133800983428955,-12.573086738586426,-1.3962119817733765
1781591850717347300,74.36134741210938,-6.4079790115356445,-16.459030151367188,-7.4261250495910645
1781591850775562800,74.41956274414062,-4.858626365661621,-15.783058166503906,5.921039581298828
1781591850872588500,74.51658862304687,1.9920248985290527,-6.020341873168945,-3.166900873184204
1781591850969614600,74.61361450195312,1.4679967164993286,-8.285148620605469,2.985046148300171
1781591851066640100,74.71064013671875,3.845266103744507,-11.912667274475098,-3.5641093254089355
1781591851124855800,74.76885571289063,-3.9254255294799805,-19.91426658630371,-1.3363914489746094
1781591851221881900,74.8658818359375,-1.01814603805542,-8.796015739440918,-2.276770830154419
1781591851318907600,74.96290771484375,-1.7120646238327026,-6.509674072265625,-1.7359927892684937
1781591851415933200,75.05993310546874,-0.9224331378936768,-10.64088249206543,-0.10049854964017868
1781591851474149000,75.11814916992188,-1.592423439025879,-8.208578109741211,0.31824541091918945
1781591851571175000,75.2151748046875,-0.35533416271209717,-12.136396408081055,6.556334018707275
1781591851668200700,75.31220068359374,-2.757728099822998,-4.727021217346191,-6.6006011962890625
1781591851726416100,75.370416015625,-6.338587284088135,-18.859031677246094,-2.152343988418579
1781591851823442200,75.46744213867187,0.8171489238739014,-1.0923235416412354,3.896711587905884
1781591851920468000,75.56446801757812,0.6364908218383789,-5.651846885681152,0.4893322288990021
1781591852017494000,75.66149389648437,0.1256231814622879,-13.104292869567871,3.6681971549987793
1781591852075709400,75.71970947265625,4.041477680206299,-10.553544044494629,-4.64805793762207
1781591852172735500,75.81673559570312,-3.566502094268799,-10.606185913085938,6.364908218383789
1781591852269761300,75.91376123046875,0.4630111753940582,-6.110072612762451,1.1868400573730469
1781591852366787000,76.010787109375,0.275174617767334,-9.693324089050293,-2.2061824798583984
1781591852425002800,76.06900268554688,-1.1234302520751953,-10.813165664672852,0.6879364848136902
1781591852522028800,76.16602880859375,2.662015199661255,-3.5030922889709473,3.9433717727661133
1781591852619054600,76.2630546875,-5.9676995277404785,-13.118650436401367,-0.39481574296951294
1781591852677270000,76.32127001953126,-1.3304094076156616,-3.0544381141662598,-7.9657063484191895
1781591852774296300,76.41829638671875,-4.451846599578857,-14.983855247497559,6.38165807723999
1781591852871322000,76.51532202148438,1.9872392416000366,-6.106483459472656,-3.253042459487915
1781591852968348200,76.61234814453125,1.5900306701660156,-8.184649467468262,1.7922241687774658
1781591853026563300,76.67056323242187,-0.13998012244701385,-14.062618255615234,2.871387243270874
1781591853123589400,76.76758935546874,-2.228914260864258,-20.104496002197266,-2.691925525665283
1781591853220615400,76.86461547851563,-0.137587308883667,-11.833703994750977,-3.229114055633545
1781591853317641500,76.96164135742187,-1.5876377820968628,-5.5728840827941895,-3.181257724761963
1781591853375857000,77.01985693359374,-0.12083754688501358,-9.756733894348145,-2.740978240966797
1781591853472883000,77.11688305664063,-0.8841479420661926,-7.442874908447266,2.097309112548828
1781591853569909000,77.21390893554687,0.7752745151519775,-13.62473201751709,4.797609329223633
1781591853628124400,77.27212451171874,-5.450850009918213,-9.31047248840332,-1.7359927892684937
1781591853725150500,77.369150390625,-8.225327491760254,-19.89751625061035,-4.797609329223633
1781591853822176500,77.46617651367187,1.1425727605819702,-0.4366901218891144,4.4135613441467285
1781591853919202300,77.56320239257812,0.18783657252788544,-5.091926574707031,0.2584248483181
1781591853977418000,77.62141796875,1.545763373374939,-7.936992645263672,2.6452653408050537
1781591854074444000,77.71844409179687,5.627918720245361,-9.66819953918457,-2.6081767082214355
1781591854171470000,77.81546997070312,-0.8961120843887329,-7.013363361358643,-0.2847459018230438
1781591854229685800,77.87368579101563,-0.7202396392822266,-9.265008926391602,-2.726621389389038
1781591854326711800,77.9707119140625,-1.7467604875564575,-4.088137626647949,-3.8799619674682617
1781591854423737900,78.06773779296876,-1.207179069519043,-11.503495216369629,-3.7196428775787354
1781591854520763600,78.164763671875,4.231706619262695,-4.741377830505371,4.82751989364624
1781591854578979300,78.22297924804687,0.7597211599349976,-16.066608428955078,4.076173305511475
1781591854676005400,78.32000537109376,-0.6795616149902344,-9.565308570861816,-6.354140758514404
1781591854773031400,78.41703149414063,-2.56510591506958,-15.317654609680176,5.974878311157227
1781591854870057200,78.51405712890624,1.0049854516983032,-5.771488189697266,-2.9048867225646973
1781591854928273200,78.57227319335938,0.5168496966362,-4.735395908355713,-0.30149564146995544
1781591855025299200,78.66929931640625,-0.12681959569454193,-12.081361770629883,3.5581271648406982
1781591855122325200,78.7663251953125,-3.4480574131011963,-22.50688934326172,-1.9956140518188477
1781591855219351000,78.86335107421876,-0.6580262184143066,-7.922635555267334,-3.693321704864502
1781591855277567000,78.92156689453125,0.6604190468788147,-10.711470603942871,3.174079179763794
1781591855374593000,79.01859301757813,-0.12921242415905,-8.12961483001709,-2.053041934967041
1781591855471619000,79.115619140625,-0.8817551732063293,-8.015955924987793,1.8867406845092773
1781591855529834500,79.17383447265625,4.131208419799805,-4.7234320640563965,3.7842490673065186
1781591855626860800,79.27086083984375,-4.985445976257324,-9.1657075881958,-2.379662036895752
1781591855723886800,79.36788696289062,-8.94676399230957,-25.0229434967041,-1.950150489807129
1781591855820913000,79.46491284179687,1.0169496536254883,-2.496910333633423,4.046263217926025
1781591855879128300,79.52312841796875,0.09690931439399719,-4.674378871917725,-2.392822742462158
1781591855976154600,79.62015454101562,2.152343988418579,-8.295916557312012,1.5948163270950317
1781591856073180700,79.7171806640625,4.864608287811279,-10.796415328979492,-4.417150497436523
1781591856170206500,79.81420654296875,-2.6811578273773193,-9.985248565673828,2.806781053543091
1781591856228422400,79.87242236328125,-0.20937198400497437,-11.261819839477539,-4.612165451049805
1781591856325448400,79.96944848632812,-1.1748759746551514,-5.822933673858643,-2.7397818565368652
1781591856422474500,80.066474609375,-0.9750752449035645,-10.549955368041992,-0.8662018179893494
1781591856480690000,80.12468994140625,0.30508488416671753,-9.153742790222168,0.7525427341461182
1781591856577716200,80.22171630859376,-1.4225330352783203,-14.885749816894531,4.219742774963379
1781591856713553000,80.35755297851563,-4.639683246612549,-13.539787292480469,-7.16650390625
1781591856771768600,80.4157685546875,-5.629115104675293,-18.247665405273438,5.746363639831543
1781591856829984000,80.47398388671876,0.3696911036968231,-1.5744773149490356,5.003392219543457
1781591856927010000,80.57101000976563,0.745364248752594,-5.836094379425049,-0.364905446767807
1781591857024036000,80.6680361328125,-0.27756741642951965,-10.520044326782227,2.5770699977874756
1781591857121062100,80.76506225585938,-2.4370899200439453,-19.80539321899414,1.4344971179962158
1781591857179277800,80.82327783203125,-2.8187451362609863,-7.441678524017334,1.8592232465744019
1781591857276304100,80.92030419921875,0.8135597109794617,-10.559526443481445,-0.016749758273363113
1781591857373330200,81.017330078125,0.3936193287372589,-8.050651550292969,-3.0939197540283203
1781591857431545900,81.0755458984375,-0.6376872062683105,-11.039287567138672,-0.2907279431819916
1781591857528572000,81.17257202148437,4.454239368438721,-5.831308841705322,2.4909284114837646
1781591857625598000,81.26959790039062,-3.923032760620117,-12.78604793548584,0.08853443711996078
1781591857722624300,81.36662426757813,-4.457828521728516,-8.287541389465332,-7.310073375701904
1781591857780840000,81.42483984375,-6.32662296295166,-26.70270347595215,5.212764263153076
1781591857877866000,81.52186596679688,2.8414769172668457,-6.754938125610352,-1.7431713342666626
1781591857974892000,81.61889208984375,0.5407779216766357,-8.161917686462402,2.118844509124756
1781591858071918000,81.71591796875,2.520838737487793,-12.40439224243164,0.10049854964017868
1781591858130133800,81.7741337890625,-1.140179991722107,-17.090736389160156,-0.05503492057323456
1781591858227160000,81.87116015625,-1.703689694404602,-7.523034572601318,-0.20338992774486542
1781591858324186000,81.96818603515625,-1.420140266418457,-5.793023586273193,-0.2835494875907898
1781591858382401800,82.02640185546875,1.8544375896453857,-8.707481384277344,-2.183450698852539
1781591858479427800,82.123427734375,0.007178467698395252,-9.399007797241211,1.466800332069397
1781591858576454100,82.2204541015625,2.2157537937164307,-5.855237007141113,3.803391695022583
1781591858673480200,82.31748022460937,-4.689932346343994,-10.944770812988281,-0.9846464991569519
1781591858731695900,82.37569580078124,-0.8291130661964417,-9.754341125488281,-8.462217330932617
1781591858828722000,82.47272192382812,0.005982056725770235,-6.175875186920166,4.8777689933776855
1781591858925748000,82.569748046875,0.23210379481315613,-7.272984504699707,-0.9798609018325806
1781591859022774000,82.66677392578126,2.4287149906158447,-7.849654674530029,1.2765709161758423
1781591859080990000,82.72498999023438,-0.3565305769443512,-11.380264282226562,2.4717857837677
1781591859178016000,82.82201611328125,0.8111668825149536,-20.633310317993164,0.5994020700454712
1781591859275042000,82.9190419921875,-1.978864312171936,-13.233505249023438,0.7884350419044495
1781591859333257700,82.9772578125,0.21655045449733734,-7.788637638092041,-2.9144580364227295
1781591859430284000,83.07428393554687,-0.010767702013254166,-8.321041107177734,-2.709871530532837
1781591859527310000,83.17131005859375,-1.0492527484893799,-11.401800155639648,1.089930772781372
1781591859624336400,83.26833642578126,2.2743778228759766,-5.322834014892578,2.7361927032470703
1781591859682551800,83.3265517578125,-0.1256231814622879,-16.334604263305664,3.3846476078033447
1781591859779578000,83.423578125,-0.5970092415809631,-6.9583282470703125,-6.0370917320251465
1781591859876604200,83.52060424804688,1.0767701864242554,-11.316854476928711,5.8337016105651855
1781591859973630500,83.61763037109375,0.21655045449733734,-5.56450891494751,-1.397408366203308
1781591860031846000,83.67584594726563,1.5469598770141602,-5.973681926727295,1.0767701864242554
1781591860128872200,83.7728720703125,-1.2382856607437134,-13.156935691833496,-0.3924229145050049
1781591860225898200,83.86989819335938,-6.357729911804199,-24.435504913330078,-0.4941178858280182
1781591860322924300,83.96692431640625,-0.5994020700454712,-9.199206352233887,-4.260420799255371
1781591860381140200,84.02514013671875,0.8554341197013855,-10.575079917907715,3.207578659057617
1781591860478166300,84.12216625976562,0.11006984114646912,-9.200403213500977,-0.42352959513664246
1781591860575192300,84.2191923828125,-1.4967105388641357,-7.6474609375,-0.4534398913383484
1781591860633407700,84.27740771484375,3.466003656387329,-6.750152587890625,3.469592809677124
1781591860730434300,84.37443432617188,-4.246063709259033,-9.767501831054688,-4.449453830718994
1781591860827460400,84.47146044921875,-11.027322769165039,-22.680370330810547,2.4741785526275635
1781591860924486100,84.56848608398437,1.2646067142486572,-5.1768717765808105,0.914058268070221
1781591860982702000,84.6267021484375,-0.017946170642971992,-4.577469825744629,-0.6687939167022705
1781591861079728400,84.72372827148438,1.5290136337280273,-10.50808048248291,4.016352653503418
1781591861176754400,84.82075439453125,2.1894326210021973,-9.766305923461914,1.9597218036651611
1781591861273780200,84.9177802734375,-1.2275179624557495,-9.774680137634277,1.4991034269332886
1781591861331996200,84.97599609375,-0.8662018179893494,-12.259626388549805,-4.7712883949279785
1781591861429022500,85.0730224609375,-0.6197410821914673,-6.150750637054443,-4.380061626434326
1781591861526048300,85.17004833984375,-0.8327022790908813,-10.308279991149902,-0.7489534616470337
1781591861584264200,85.22826416015624,1.9286150932312012,-5.391029357910156,3.290131092071533
1781591861681290200,85.32529028320313,-5.312066078186035,-15.144174575805664,2.1200408935546875
1781591861778316300,85.42231640625,-3.9732820987701416,-6.832705020904541,-6.071787357330322
1781591861836532000,85.48053198242188,-6.7417778968811035,-23.9401912689209,3.6813576221466064
1781591861933558000,85.57755810546875,1.7563318014144897,-6.39601469039917,-0.15194423496723175
1781591862030584000,85.674583984375,1.6187444925308228,-6.104090690612793,1.6390835046768188
1781591862127610000,85.77161010742188,0.7106683254241943,-15.169299125671387,-2.7361927032470703
1781591862185825800,85.82982568359375,-2.2791635990142822,-21.183658599853516,-2.0889341831207275
1781591862282852000,85.92685205078125,-0.6508477330207825,-14.195420265197754,0.4127618968486786
1781591862379878100,86.02387817382812,-1.1162517070770264,-7.395018577575684,-1.2035897970199585
1781591862438093800,86.08209375,0.14715859293937683,-7.846065521240234,-2.713460922241211
1781591862535120000,86.17911987304687,-2.0853450298309326,-10.834700584411621,0.27756741642951965
1781591862632146000,86.27614599609375,2.988635540008545,-5.724828243255615,4.784449100494385
1781591862729172200,86.37317211914062,-4.589433670043945,-7.456035137176514,-2.2815563678741455
1781591862787388000,86.43138793945313,-2.2360928058624268,-7.645068168640137,-6.401997089385986
1781591862884414000,86.5284140625,0.1818545162677765,-8.660821914672852,6.457031726837158
1781591862981440000,86.62543994140626,-0.007178467698395252,-4.8191447257995605,-0.9798609018325806
1781591863078466000,86.72246606445313,2.5746772289276123,-8.928817749023438,3.077169895172119
1781591863136681700,86.780681640625,1.3639088869094849,-14.616557121276855,-1.9992033243179321
1781591863233707800,86.87770776367188,-5.699703693389893,-19.4069881439209,-5.099104881286621
1781591863330734000,86.97473413085937,-1.3698909282684326,-11.365907669067383,-4.4650068283081055
1781591863388949800,87.03294970703125,1.2538390159606934,-6.772884368896484,1.5337992906570435
1781591863485975800,87.12997583007812,-1.3603196144104004,-9.452845573425293,-1.765903115272522
1781591863583001900,87.227001953125,2.4394826889038086,-5.68175745010376,3.7734813690185547
1781591863718838000,87.36283813476562,-4.406383037567139,-4.839483737945557,-1.841277003288269
1781591863777054000,87.42105395507812,2.4466612339019775,-16.50210189819336,-9.294919967651367
1781591863835269600,87.47926953125,-11.453245162963867,-21.383459091186523,6.551548480987549
1781591863932295700,87.57629565429687,3.28773832321167,-7.3675007820129395,-1.306481122970581
1781591864029321700,87.67332177734374,0.4953143000602722,-6.059823513031006,0.45583271980285645
1781591864087537400,87.73153735351562,0.0323031060397625,-15.211174011230469,2.396411895751953
1781591864184563700,87.82856372070313,-0.4259224236011505,-14.872589111328125,1.293320655822754
1781591864281589800,87.92558984375,-2.0279171466827393,-9.657432556152344,0.1052841991186142
1781591864339805200,87.98380517578126,0.19740787148475647,-11.871989250183105,-0.8255237936973572
1781591864436831500,88.08083154296875,-1.1700903177261353,-6.118447303771973,-4.214957237243652
1781591864533857500,88.177857421875,-1.8221344947814941,-11.3778715133667,-0.40677985548973083
1781591864630883000,88.27488305664062,3.181257724761963,-7.0923261642456055,3.8763725757598877
1781591864689099300,88.33309936523438,-1.679761528968811,-15.88714599609375,0.8530412912368774
1781591864747315000,88.39131494140625,-6.022734642028809,-3.1920254230499268,-3.5748770236968994
1781591864844341000,88.48834106445312,-10.424331665039062,-25.176082611083984,2.0159530639648438
1781591864941367000,88.58536694335938,2.59621262550354,-6.486942291259766,0.5539384484291077
1781591865038393000,88.68239306640625,1.0253244638442993,-5.720042705535889,1.428515076637268
1781591865135419100,88.77941918945312,-0.4247260093688965,-14.502898216247559,1.4093725681304932
1781591865232445000,88.87644482421875,-1.828116536140442,-5.559723377227783,2.1367905139923096
1781591865290660900,88.93466088867187,-0.7812566161155701,-11.388639450073242,-0.10648060590028763
1781591865387687000,89.03168701171874,-0.6759724020957947,-7.252645492553711,-0.349352091550827
1781591865484713000,89.128712890625,-0.7716853022575378,-7.682157039642334,-0.6843472719192505
1781591865581738800,89.22573876953125,-0.5383850932121277,-8.391629219055176,-1.2346965074539185
1781591865639954700,89.28395458984374,3.4241292476654053,-7.1509504318237305,4.319045066833496
1781591865736980700,89.38098071289062,-4.058227062225342,-10.163514137268066,-2.7876384258270264
1781591865834006800,89.4780068359375,-5.74397087097168,-26.77688217163086,-3.7016966342926025
1781591865892222200,89.53622216796875,0.1136590763926506,-5.769095420837402,5.44845724105835
1781591865989248500,89.63324853515626,0.5252245664596558,-4.473381996154785,-0.49292147159576416
1781591866086274600,89.73027465820313,2.100898265838623,-10.801201820373535,4.028316974639893
1781591866183300400,89.82730029296874,-1.805384635925293,-11.979666709899902,-0.09930214285850525
1781591866241516300,89.88551635742188,-2.788834810256958,-9.345169067382812,2.7637102603912354
1781591866338542000,89.9825419921875,-0.4139583110809326,-9.150154113769531,-3.5617165565490723
1781591866435568000,90.07956811523438,-0.865005373954773,-6.504888534545898,-4.412364959716797
1781591866493783600,90.13778344726562,-0.062213387340307236,-10.50808048248291,-1.4691931009292603
1781591866590809600,90.2348095703125,3.64546537399292,-4.454239368438721,4.744967460632324
1781591866687835600,90.33183569335938,-2.6464617252349854,-14.601003646850586,1.290927767753601
1781591866784861700,90.42886181640625,-1.8269200325012207,-8.147561073303223,-7.957331657409668
1781591866843077400,90.48707739257813,-9.168100357055664,-26.493331909179688,6.03110933303833
1781591866940103400,90.584103515625,2.3545374870300293,-6.5288166999816895,-0.5539384484291077
1781591867037129500,90.68112939453125,1.0037890672683716,-5.583651542663574,0.7166503667831421
1781591867134155300,90.7781552734375,1.5254244804382324,-13.653446197509766,-2.6775684356689453
1781591867192371000,90.83637084960938,-3.7471601963043213,-15.952948570251465,1.3639088869094849
1781591867289397000,90.93339697265625,-0.3924229145050049,-11.23190975189209,-0.7884350419044495
1781591867386423000,91.03042309570313,-0.41874396800994873,-6.563512325286865,-0.7956135272979736
1781591867444638700,91.088638671875,-0.4749752879142761,-7.086344242095947,-4.1383867263793945
1781591867541664800,91.18566479492188,-1.0671988725662231,-9.741181373596191,1.5804593563079834
1781591867638690800,91.28269091796875,0.9499505758285522,-10.8969144821167,4.9435715675354
1781591867735716600,91.37971655273438,-1.5948163270950317,-8.076972961425781,-4.9639105796813965
1781591867793932000,91.43793212890625,-7.22871732711792,-20.965911865234375,-8.556734085083008
1781591867890958300,91.53495825195313,1.3555340766906738,-2.252842426300049,6.99541711807251
1781591867987984400,91.631984375,0.35054850578308105,-3.4396824836730957,-0.12203395366668701
1781591868085010200,91.72901025390625,0.29431718587875366,-13.635499954223633,3.1453654766082764
1781591868143225900,91.78722583007813,4.871787071228027,-9.597611427307129,-4.443471431732178
1781591868240252000,91.884251953125,-1.8747764825820923,-5.916254043579102,2.7876384258270264
1781591868337278000,91.98127783203125,-0.16390834748744965,-9.388239860534668,-2.0757737159729004
1781591868395493400,92.03949340820313,-1.6534404754638672,-5.517848968505859,-3.731606960296631
1781591868492519400,92.13651953125,-0.5910272002220154,-10.71984577178955,0.592223584651947
1781591868589545500,92.23354541015625,4.529613494873047,-3.8739798069000244,4.907679080963135
1781591868686571500,92.33057153320313,-3.482753276824951,-10.021141052246094,-1.1461620330810547
1781591868744787000,92.38878686523438,2.6273193359375,-6.9822564125061035,-4.559523582458496
1781591868841813000,92.48581298828125,-4.698307037353516,-16.724634170532227,6.4594244956970215
1781591868938839000,92.58283911132813,1.6713865995407104,-5.879165172576904,-2.620140790939331
1781591868997054500,92.64105444335938,0.8949156403541565,-4.731806755065918,1.1593226194381714
1781591869094080500,92.73808056640625,-0.7585247755050659,-14.459827423095703,0.8350951075553894
1781591869191106600,92.8351064453125,-2.6847469806671143,-24.63889503479004,-3.3332018852233887
1781591869288132600,92.93213256835938,-0.5563312768936157,-10.086943626403809,-2.957528829574585
1781591869346348000,92.99034814453125,0.5467599630355835,-8.316255569458008,1.5002998113632202
1781591869443374000,93.0873740234375,-0.5551348328590393,-8.492127418518066,-2.438286304473877
1781591869540399900,93.18439990234376,-0.5144568681716919,-8.310273170471191,2.043470621109009
1781591869637425700,93.28142578125,-0.8207381963729858,-14.161920547485352,5.059623718261719
1781591869695641600,93.3396416015625,-4.277170658111572,-7.490731239318848,-2.606980323791504
1781591869792667400,93.43666748046876,-9.614361763000488,-26.035106658935547,-3.4265220165252686
1781591869889693200,93.53369311523437,0.589830756187439,-2.717050075531006,4.121636867523193
1781591869947908900,93.59190893554687,0.5443671345710754,-4.886143684387207,-2.03629207611084
1781591870044934700,93.6889345703125,2.2959132194519043,-8.325826644897461,2.032702922821045
1781591870141960700,93.78596069335937,4.429114818572998,-9.670592308044434,-1.4009976387023926
1781591870219581700,93.86358178710938,-2.8043880462646484,-7.328019142150879,2.366501569747925
1781591870297202200,93.9412021484375,-1.0755738019943237,-8.816354751586914,-6.1363935470581055
1781591870394228200,94.03822827148437,-1.3256237506866455,-6.372086524963379,-4.376472473144531
1781591870491254000,94.13525390625,-0.4654040038585663,-10.98185920715332,2.2193429470062256
1781591870549469700,94.1934697265625,2.733799934387207,-6.265605926513672,2.17627215385437
1781591870646495700,94.29049584960937,-1.2765709161758423,-18.221343994140625,2.7074787616729736
1781591870743521500,94.387521484375,-1.4333007335662842,-8.47896671295166,-6.144768714904785
1781591870840547300,94.48454736328125,0.04785645380616188,-6.3014984130859375,5.924628734588623
1781591870898763000,94.54276293945313,1.6342978477478027,-6.722635269165039,-0.47258245944976807
1781591870995789000,94.6397890625,1.4763715267181396,-6.69990348815918,1.9980069398880005
1781591871092814800,94.73681494140625,2.7038896083831787,-12.942777633666992,-4.529613494873047
1781591871189840600,94.83384057617188,-2.063809633255005,-10.6624174118042,-1.0683952569961548
1781591871248056300,94.89205639648438,-1.3184453248977661,-9.798608779907227,-0.28235307335853577
1781591871345082400,94.98908227539063,-0.23210379481315613,-8.498109817504883,-1.3567304611206055
1781591871442108200,95.08610815429688,-0.4534398913383484,-9.013762474060059,-0.6125625967979431
1781591871539134000,95.18313403320313,2.173879384994507,-6.467799663543701,2.9240293502807617
1781591871597349600,95.241349609375,0.34695929288864136,-10.296316146850586,5.599205017089844
1781591871694375400,95.33837548828124,-3.4959139823913574,-7.051648139953613,-3.8883368968963623
1781591871791401500,95.4354013671875,-8.197810173034668,-25.834110260009766,1.2789636850357056
1781591871849617000,95.49361694335937,1.3567304611206055,-3.4707891941070557,4.679164886474609
1781591871946643000,95.59064282226562,0.010767702013254166,-4.833501815795898,0.4486542344093323
1781591872043668700,95.68766870117187,1.7838492393493652,-9.558130264282227,1.7467604875564575
1781591872140694500,95.78469458007812,1.2957134246826172,-14.848660469055176,-1.7216359376907349
1781591872198910200,95.84291015625,-3.9768712520599365,-5.276174068450928,2.139183521270752
1781591872295936300,95.93993627929687,-1.0683952569961548,-5.357530117034912,-3.726821184158325
1781591872392962000,96.03696215820312,-0.778863787651062,-7.993224143981934,-3.3475589752197266
1781591872451177500,96.09517749023438,-0.3924229145050049,-9.4660062789917,0.589830756187439
1781591872548203500,96.19220361328125,1.7611174583435059,-7.763513088226318,1.6701902151107788
1781591872645229300,96.28922924804688,-5.437689304351807,-18.656837463378906,3.3954153060913086
1781591872742255000,96.38625512695313,-1.6845471858978271,-7.05763053894043,-3.3607194423675537
1781591872800470500,96.44447045898437,-7.129415035247803,-18.66640853881836,-0.9571290612220764
1781591872897496600,96.54149658203124,-0.03469592705368996,-4.9292144775390625,2.3330020904541016
1781591872994522400,96.6385224609375,-0.8410771489143372,-5.800201892852783,-0.3278166949748993
1781591873091548400,96.73554833984375,1.26699960231781,-9.68375301361084,2.7840490341186523
1781591873149763800,96.79376391601562,3.827319860458374,-12.896117210388184,1.3112667798995972
1781591873246789600,96.89078955078125,-3.135794162750244,-8.567501068115234,0.031106693670153618
1781591873343815700,96.98781567382812,-0.7645068168640137,-11.082358360290527,-0.9619147181510925
1781591873402031000,97.04603100585938,-1.0061819553375244,-7.312466144561768,-2.5950162410736084
1781591873499057200,97.14305712890625,-1.1054840087890625,-9.476774215698242,-0.7585247755050659
1781591873596083000,97.2400830078125,0.7836494445800781,-7.338787078857422,1.290927767753601
1781591873693108700,97.33710864257813,-1.4895321130752563,-15.611970901489258,2.537588357925415
1781591873751324200,97.39532421875,-4.957928657531738,-7.348358154296875,0.2273181527853012
1781591873848350200,97.49235009765626,-4.237689018249512,-23.318056106567383,-5.870790481567383
1781591873945376000,97.5893759765625,0.16271193325519562,-2.2265214920043945,2.5124638080596924
1781591874042401800,97.68640185546874,-0.5659025311470032,-5.400600910186768,0.4701896607875824
1781591874100617500,97.74461743164062,1.7001005411148071,-8.128418922424316,1.0456634759902954
1781591874197643300,97.84164331054687,3.7531423568725586,-11.7056884765625,-2.8247270584106445
1781591874294669000,97.9386689453125,-2.368894338607788,-8.37727165222168,1.659422516822815
1781591874352884500,97.99688452148438,-0.44386860728263855,-9.641879081726074,-2.0159530639648438
1781591874449910500,98.09391064453125,-1.1497513055801392,-7.750352382659912,-2.5531418323516846
1781591874546936300,98.19093627929688,-1.0336993932724,-8.833105087280273,-0.8877372145652771
1781591874643962000,98.28796215820313,1.454836130142212,-7.423732280731201,0.5563312768936157
1781591874702177800,98.346177734375,1.3232308626174927,-8.350951194763184,4.71027135848999
1781591874799203600,98.44320361328126,-5.138586521148682,-8.335397720336914,-1.490728497505188
1781591874896229400,98.5402294921875,-5.1804609298706055,-27.022146224975586,-4.213760852813721
1781591874954444800,98.59844482421875,-1.6354942321777344,-6.4079790115356445,2.550748825073242
1781591875051470800,98.69547094726562,0.3900300860404968,-5.430510997772217,-0.7932206988334656
1781591875148496600,98.79249658203125,2.730210542678833,-9.52941608428955,1.526620864868164
1781591875245522200,98.88952221679688,4.510470867156982,-10.88853931427002,-0.5862415432929993
1781591875303737900,98.94773779296875,-1.1437692642211914,-11.046465873718262,-3.792623996734619
1781591875400763600,99.044763671875,0.363709032535553,-8.980263710021973,-3.462414264678955
1781591875497789400,99.14178955078125,-1.6151553392410278,-6.3601226806640625,-4.05703067779541
1781591875594815200,99.23881518554687,-1.0289137363433838,-9.170493125915527,0.09690931439399719
1781591875653031000,99.29703100585938,-2.121237277984619,-11.447263717651367,-0.1950150430202484
1781591875750056700,99.394056640625,0.3026920557022095,-10.054640769958496,3.4779677391052246
1781591875847082500,99.49108251953125,-5.225924491882324,-6.134000778198242,-3.5222349166870117
1781591875905298000,99.5492978515625,-1.542174220085144,-10.40638542175293,-7.434499740600586
1781591876002324000,99.64632397460937,0.8303094506263733,-4.865804672241211,4.837090969085693
1781591876099349800,99.74334985351562,0.058624155819416046,-4.2723846435546875,-0.7214360237121582
1781591876196375600,99.84037548828125,1.537388563156128,-10.00439167022705,1.6426727771759033
1781591876254591000,99.89859106445313,1.0815558433532715,-12.726226806640625,-0.28115665912628174
1781591876351616800,99.99561669921874,-2.11405873298645,-9.81535816192627,-1.5601203441619873
1781591876448642600,100.092642578125,-0.44386860728263855,-9.66819953918457,-4.567898273468018
1781591876545668400,100.18966845703125,-1.545763373374939,-6.119643688201904,-3.999603033065796
1781591876603884000,100.24788403320312,-0.794417142868042,-9.034101486206055,-0.9427721500396729
1781591876700909800,100.34490991210937,-0.537188708782196,-7.708477973937988,1.2251251935958862
1781591876797935600,100.441935546875,0.37447673082351685,-15.913467407226562,4.029513359069824
1781591876856151000,100.50015112304688,-5.410171985626221,-6.267998695373535,-1.7826528549194336
1781591876953176800,100.5971767578125,-7.3878397941589355,-24.561128616333008,-3.786641836166382
1781591877050202600,100.69420263671876,0.30628129839897156,-3.4887354373931885,4.159922122955322
1781591877147228400,100.791228515625,-0.21415762603282928,-4.542773723602295,0.7692924737930298
1781591877205444000,100.84944409179687,1.841277003288269,-9.232706069946289,0.8602197170257568
1781591877341280300,100.9852802734375,-0.39481574296951294,-12.526426315307617,4.1970109939575195
1781591877399495700,101.04349560546875,-0.4426721930503845,-7.45364236831665,-2.0650060176849365
1781591877496521200,101.14052124023438,0.6544370055198669,-13.420145988464355,-0.04905286431312561
1781591877554737000,101.19873681640625,-1.3244273662567139,-6.538387775421143,-2.5052852630615234
1781591877651762700,101.2957626953125,-1.0600204467773438,-10.171889305114746,0.22851456701755524
1781591877748788500,101.39278857421876,3.8739798069000244,-4.868197441101074,1.3591232299804688
1781591877807003600,101.45100366210937,-0.5814558863639832,-12.441481590270996,6.021538257598877
1781591877904029700,101.54802978515625,-1.4715858697891235,-11.335997581481934,-5.855237007141113
1781591878001055500,101.64505541992187,-7.817351341247559,-22.00320053100586,3.046063184738159
1781591878098081300,101.74208129882813,1.8699909448623657,-6.538387775421143,-0.9942178130149841
1781591878156296700,101.80029663085938,-0.21655045449733734,-4.100101470947266,-0.6221339106559753
1781591878253322500,101.89732250976563,1.8197416067123413,-10.365707397460938,2.132004976272583
1781591878350348300,101.99434838867188,6.649653911590576,-8.324629783630371,2.3401806354522705
1781591878447374000,102.0913740234375,-2.14516544342041,-5.834897994995117,0.14476576447486877
1781591878505589800,102.14958984375,-1.2454642057418823,-9.66939640045166,-5.230710506439209
1781591878602615600,102.24661547851562,-1.5541383028030396,-5.589633464813232,-4.868197441101074
1781591878699641300,102.34364135742187,-1.672582983970642,-11.148160934448242,0.7190431952476501
1781591878757856500,102.4018564453125,2.610569477081299,-5.5106706619262695,2.210968017578125
1781591878854882600,102.49888256835938,-1.6450655460357666,-16.26521110534668,3.6670007705688477
1781591878951908400,102.59590844726563,0.9858429431915283,-7.533802032470703,-8.206185340881348
1781591879048934100,102.69293408203124,-2.159522533416748,-10.87298583984375,5.285745143890381
1781591879107149300,102.7511494140625,1.7084753513336182,-6.331408500671387,1.085145115852356
1781591879204175000,102.84817504882812,0.3852444589138031,-4.508078098297119,0.6580262184143066
1781591879301201000,102.94520092773438,-0.8386843204498291,-13.319646835327148,2.8390841484069824
1781591879437036800,103.08103686523438,-2.785245656967163,-8.176275253295898,2.341377019882202
1781591879495252700,103.13925268554688,0.31465616822242737,-9.507881164550781,-2.757728099822998
1781591879553468200,103.19746826171875,0.6580262184143066,-8.228917121887207,1.557727575302124
1781591879650493700,103.29449365234375,-0.5443671345710754,-6.884150981903076,-1.2454642057418823
1781591879747519500,103.39151953125,-2.090130567550659,-10.729416847229004,-0.4893322288990021
1781591879805735200,103.44973510742187,3.838087558746338,-4.993820667266846,3.1932218074798584
1781591879902760700,103.5467607421875,-4.417150497436523,-12.110074996948242,-1.8149559497833252
1781591879999786500,103.64378637695313,-4.206582069396973,-15.723237991333008,-7.877171993255615
1781591880058002000,103.702001953125,-5.802595138549805,-16.69711685180664,5.102694511413574
1781591880155027700,103.79902783203126,1.6474584341049194,-6.705885410308838,-1.8317056894302368
1781591880252053500,103.89605346679687,1.588834285736084,-7.296912670135498,0.5910272002220154
1781591880349079300,103.99307934570312,2.5220351219177246,-12.072986602783203,-3.187239646911621
1781591880407295200,104.05129516601562,-2.6572296619415283,-18.556339263916016,1.6319050788879395
1781591880504320500,104.14832055664063,-0.8267202377319336,-10.183853149414062,-0.3194418251514435
1781591880601346000,104.24534594726562,-0.6532405614852905,-7.401000499725342,-2.100898265838623
1781591880698371800,104.34237182617187,-0.09212367236614227,-9.708877563476562,-0.486939400434494
1781591880756587300,104.40058715820312,-2.128415822982788,-10.61815071105957,0.6616154313087463
1781591880853613000,104.49761303710937,1.2490534782409668,-8.857032775878906,3.896711587905884
1781591880950638800,104.59463891601563,-3.895515203475952,-5.92223596572876,-3.2721848487854004
1781591881008854000,104.65285400390626,-2.5363919734954834,-13.064811706542969,-7.823333740234375
1781591881105880000,104.74988012695313,1.576870083808899,-3.2063822746276855,5.126622676849365
1781591881202905900,104.84690576171874,-0.23449662327766418,-4.543970108032227,-1.805384635925293
1781591881299931600,104.943931640625,1.5804593563079834,-10.299904823303223,2.9527430534362793
1781591881358146800,105.00214672851563,1.1497513055801392,-12.557533264160156,-1.820937991142273
1781591881455172900,105.0991728515625,-6.313462734222412,-22.504497528076172,-2.6452653408050537
