time,seconds_elapsed,z,y,x
1781554564449745700,0.19174560546875,5.136792182922363,8.3359956741333,1.9298114776611328
1781554564498260500,0.240260498046875,5.84147834777832,7.656135082244873,2.6913273334503174
1781554564546775600,0.288775634765625,6.477969169616699,6.307181358337402,2.5450658798217773
1781554564595290400,0.337290283203125,5.361717224121094,5.754140377044678,1.4742778539657593
1781554564643805200,0.38580517578125,8.917451858520508,5.569892883300781,1.0286146402359009
1781554564692320000,0.434320068359375,8.041080474853516,5.976971626281738,0.5509474277496338
1781554564740835000,0.4828349609375,8.352147102355957,5.722734451293945,0.6846463680267334
1781554564789349600,0.531349609375,9.48066234588623,5.129613399505615,0.22911277413368225
1781554564837864700,0.57986474609375,8.627920150756836,4.910670280456543,-0.22911277413368225
1781554564886379500,0.628379638671875,8.72482967376709,4.683351993560791,-0.3678964674472809
1781554564934894300,0.676894287109375,8.794520378112793,4.569394111633301,-0.20488543808460236
1781554564983409200,0.7254091796875,8.705388069152832,4.422534465789795,-0.2548356056213379
1781554565031924200,0.77392431640625,8.835796356201172,4.2846479415893555,-0.18364913761615753
1781554565080439000,0.82243896484375,8.437990188598633,4.303192615509033,-0.04486542567610741
1781554565128953900,0.870953857421875,8.739485740661621,4.246662139892578,0.0933200865983963
1781554565177468700,0.91946875,8.933603286743164,4.156930923461914,-0.028115665540099144
1781554565225983500,0.9679833984375,9.053544044494629,4.106382846832275,0.1178465187549591
1781554565274498600,1.01649853515625,9.11994457244873,4.05403995513916,0.2802593410015106
1781554565323013400,1.065013427734375,9.20279598236084,4.028914928436279,0.25752753019332886
1781554565371528200,1.113528076171875,9.21296501159668,4.082753658294678,0.27756741642951965
1781554565420043000,1.16204296875,8.835497856140137,4.153341770172119,0.11665010452270508
1781554565468558000,1.21055810546875,9.039485931396484,4.124628067016602,0.06729813665151596
1781554565517072600,1.25907275390625,9.18425178527832,4.113561153411865,0.32602208852767944
1781554565565587700,1.307587646484375,8.695218086242676,4.327419757843018,0.8377870321273804
1781554565614102500,1.3561025390625,8.749654769897461,4.4946184158325195,0.7857431173324585
1781554565662617300,1.404617431640625,8.69491958618164,4.447659015655518,0.8587242364883423
1781554565711132200,1.453132080078125,8.783453941345215,4.450949192047119,0.9966106414794922
1781554565759647200,1.501647216796875,8.634500503540039,4.577469825744629,1.1647064685821533
1781554565808162000,1.550162109375,8.09850788116455,4.993820667266846,1.4632110595703125
1781554565856676900,1.5986767578125,7.968697547912598,5.0602216720581055,1.7021942138671875
1781554565905191700,1.647191650390625,8.62014389038086,4.825126647949219,1.607378602027893
1781554565953706500,1.69570654296875,8.479565620422363,4.806582450866699,1.4039887189865112
1781554566002221600,1.7442216796875,8.655736923217773,4.713860511779785,1.170688509941101
1781554566050736400,1.792736328125,8.742775917053223,4.5338006019592285,1.2287144660949707
1781554566099251200,1.841251220703125,8.667402267456055,4.362414836883545,1.4219348430633545
1781554566147766000,1.88976611328125,8.878568649291992,4.463810443878174,1.5128620862960815
1781554566196280800,1.93828076171875,8.584549903869629,4.416552543640137,2.0401804447174072
1781554566244796000,1.9867958984375,8.886046409606934,4.569693088531494,2.36081862449646
1781554566293310700,2.035310791015625,8.702995300292969,4.836193561553955,2.743072032928467
1781554566341825500,2.083825439453125,7.328019142150879,5.333601474761963,3.924528121948242
1781554566390340400,2.13234033203125,6.063412666320801,5.692225933074951,4.921437740325928
1781554566438855200,2.180855224609375,4.825126647949219,5.913861274719238,6.033801555633545
1781554566487370200,2.229370361328125,5.100600719451904,5.6685967445373535,6.4340009689331055
1781554566535885000,2.277885009765625,4.470390796661377,5.73051118850708,6.565307140350342
1781554566584400000,2.32639990234375,3.830310821533203,5.880361557006836,6.585945129394531
1781554566632914700,2.374914794921875,3.76570463180542,5.900999546051025,6.467799663543701
1781554566681429500,2.423429443359375,4.1730828285217285,5.829215049743652,6.656533718109131
1781554566729944300,2.4719443359375,4.4874396324157715,5.744868278503418,6.441179275512695
1781554566778459400,2.52045947265625,4.19072961807251,5.9321064949035645,6.496513366699219
1781554566826974200,2.56897412109375,4.130012035369873,5.677270889282227,6.408277988433838
1781554566875489000,2.617489013671875,4.476073741912842,5.582754135131836,6.599703788757324
1781554566924003800,2.66600390625,5.3347978591918945,5.285745143890381,6.309873104095459
1781554566972518700,2.7145185546875,5.4143595695495605,5.24626350402832,6.376274108886719
1781554567021033500,2.763033447265625,5.035396099090576,5.233103275299072,6.028716564178467
1781554567069548500,2.811548583984375,6.001797199249268,5.009374141693115,6.40229606628418
1781554567118063400,2.8600634765625,6.8482584953308105,4.72163724899292,5.889633655548096
1781554567166578200,2.908578125,6.854838848114014,4.537689208984375,5.709573745727539
1781554567215093000,2.957093017578125,6.852745056152344,4.322933197021484,5.287539958953857
1781554567263607800,3.00560791015625,6.787540435791016,3.9311084747314453,5.143970489501953
1781554567312123000,3.054122802734375,6.768397808074951,3.675375461578369,4.554139614105225
1781554567360637400,3.102637451171875,6.899405002593994,3.798306941986084,4.101297855377197
1781554567409152500,3.151152587890625,7.2574310302734375,3.944568157196045,3.870689630508423
1781554567457667300,3.199667236328125,7.852346420288086,3.659224033355713,3.774378538131714
1781554567506182100,3.24818212890625,8.392227172851562,3.0729825496673584,3.5503506660461426
1781554567554697000,3.296697021484375,7.800900936126709,2.106581211090088,3.455834150314331
1781554567603211800,3.345211669921875,6.175875186920166,0.8527421951293945,3.7689948081970215
1781554567651726600,3.3937265625,4.5011982917785645,-0.2102692872285843,4.7727837562561035
1781554567700241400,3.442241455078125,3.912863254547119,-1.9411773681640625,5.500202178955078
1781554567748756500,3.490756591796875,3.1498517990112305,-4.354039669036865,6.675376892089844
1781554567797271300,3.539271240234375,3.9361932277679443,-7.409973621368408,7.4015984535217285
1781554567845786000,3.5877861328125,4.790431022644043,-11.145169258117676,6.9891357421875
1781554567894301000,3.636301025390625,8.741280555725098,-15.831512451171875,4.221537113189697
1781554567942815700,3.684815673828125,9.313464164733887,-18.49472427368164,4.026821613311768
1781554567991330600,3.73333056640625,11.233704566955566,-17.997615814208984,2.849552631378174
1781554568039845400,3.781845458984375,11.634501457214355,-15.497714042663574,4.770689964294434
1781554568088360400,3.8303603515625,11.431410789489746,-12.360125541687012,5.587839126586914
1781554568136875300,3.878875244140625,8.100302696228027,-10.480263710021973,5.717948913574219
1781554568185390000,3.92739013671875,6.8982086181640625,-10.38485050201416,3.1920254230499268
1781554568233905000,3.97590478515625,4.430909156799316,-10.612168312072754,2.492722988128662
1781554568282419700,4.024419677734375,-2.5540390014648438,-9.091230392456055,4.191029071807861
1781554568330934500,4.0729345703125,-4.555934429168701,-7.579864025115967,6.7794647216796875
1781554568379449300,4.121449462890625,1.0872387886047363,-13.661222457885742,-1.1682956218719482
1781554568427964200,4.169964111328125,2.872882604598999,-10.49791145324707,-3.0562326908111572
1781554568476479200,4.218479248046875,-1.6190435886383057,-8.234600067138672,-2.5654048919677734
1781554568524993800,4.266993896484375,0.027218356728553772,-12.319148063659668,-10.083952903747559
1781554568573508900,4.3155087890625,0.4893322288990021,-10.33609676361084,-7.230511665344238
1781554568622023700,4.364023681640625,1.7808582782745361,-6.372086524963379,8.046165466308594
1781554568670538500,4.41253857421875,-2.239083766937256,-7.1871418952941895,-2.1302103996276855
1781554568719053300,4.46105322265625,-0.1217348501086235,-8.065607070922852,-5.157131195068359
1781554568767568100,4.509568115234375,-2.516651153564453,-5.065007209777832,-3.679563045501709
1781554568816083000,4.5580830078125,1.0558329820632935,-7.296613693237305,-6.501598358154297
1781554568864597800,4.60659765625,0.2829512655735016,-9.66102123260498,-2.3641088008880615
1781554568913112600,4.655112548828125,2.2295124530792236,-16.624433517456055,-1.568495273590088
1781554568961627400,4.70362744140625,1.95852530002594,-15.116059303283691,-6.819544315338135
1781554569010142200,4.75214208984375,3.7639100551605225,-11.259127616882324,-9.431011199951172
1781554569058657000,4.800656982421875,0.020937198773026466,-5.272883892059326,-2.6401805877685547
1781554569107171800,4.849171875,-1.4084752798080444,-3.643969774246216,-1.5233306884765625
1781554569155686700,4.897686767578125,2.4792633056640625,-8.337790489196777,-6.651747703552246
1781554569204201500,4.946201416015625,1.5702898502349854,-7.331907749176025,-6.850651264190674
1781554569252716300,4.99471630859375,0.8081758618354797,-6.075974941253662,-6.007181167602539
1781554569301231000,5.043231201171875,0.6918248534202576,-4.878366947174072,-5.547161102294922
1781554569349746000,5.091745849609375,0.6149554252624512,-5.938387393951416,-5.306682586669922
1781554569398260700,5.1402607421875,0.8943174481391907,-11.22772216796875,-7.0959153175354
1781554569446775600,5.188775634765625,1.2888340950012207,-11.495718002319336,-6.418447494506836
1781554569495290400,5.237290283203125,1.3764712810516357,-7.425527095794678,-4.747061252593994
1781554569543805200,5.28580517578125,1.4673985242843628,-10.092028617858887,-3.6681971549987793
1781554569592320000,5.334320068359375,1.5212370157241821,-7.081558704376221,-1.196411371231079
1781554569640834800,5.382834716796875,-1.8652052879333496,-8.716156005859375,-7.952546119689941
1781554569689349600,5.431349609375,-1.0244271755218506,-4.954040050506592,-1.0268200635910034
1781554569737864400,5.479864501953125,2.4233310222625732,-9.624530792236328,-4.498805522918701
1781554569786379300,5.528379150390625,-1.246361494064331,-12.632308959960938,-2.7224340438842773
1781554569834894000,5.57689404296875,0.06191428750753403,-14.392230033874512,-0.584446907043457
1781554569883409000,5.625408935546875,-0.9975079298019409,-10.518848419189453,-1.5690934658050537
1781554569931923700,5.673923828125,0.09152546525001526,-8.235795974731445,-1.2191431522369385
1781554569980438500,5.7224384765625,0.13549357652664185,-9.408279418945312,-1.0007981061935425
1781554570028953300,5.770953369140625,-0.35054850578308105,-9.913165092468262,-1.1084750890731812
1781554570077468200,5.81946826171875,-0.5485545992851257,-9.955936431884766,-0.6266204118728638
1781554570125983500,5.8679833984375,-0.9978070259094238,-9.689735412597656,-0.8679963946342468
1781554570174497800,5.916497802734375,-0.589830756187439,-9.878170013427734,-0.48843491077423096
1781554570223012600,5.9650126953125,-1.4730814695358276,-9.84138011932373,-0.6622136831283569
1781554570271527400,6.01352734375,-1.5981063842773438,-9.658329963684082,-0.7567301392555237
1781554570320042200,6.062042236328125,-0.3936193287372589,-6.949355125427246,-1.1359925270080566
1781554570368556800,6.110556884765625,-0.9023932218551636,-6.4187469482421875,-0.9466604590415955
1781554570417071600,6.159071533203125,-0.4815555512905121,-9.66640567779541,0.18843477964401245
1781554570465586400,6.20758642578125,-0.7923234105110168,-11.792428016662598,-0.882951557636261
1781554570514101200,6.256101318359375,-0.6732804775238037,-11.907283782958984,-0.9726824164390564
1781554570562616000,6.304615966796875,-0.3086741268634796,-12.616157531738281,1.4656038284301758
1781554570611131000,6.353130859375,-0.4325026869773865,-11.483156204223633,0.8264211416244507
1781554570659645700,6.401645751953125,-0.14297115802764893,-11.192427635192871,0.4977070987224579
1781554570708160500,6.450160400390625,-0.7390831112861633,-8.539385795593262,3.197110176086426
1781554570756675300,6.49867529296875,0.32602208852767944,-9.240781784057617,-2.2995026111602783
1781554570805190100,6.547190185546875,-0.8488538265228271,-10.563714027404785,-0.7360920906066895
1781554570853705000,6.595705078125,1.7069798707962036,-9.742975234985352,-1.5095720291137695
1781554570902219500,6.644219482421875,-0.7223333120346069,-8.352147102355957,-1.1096714735031128
1781554570950734300,6.692734375,-4.507778644561768,-10.636096954345703,0.8910273313522339
1781554570999249200,6.741249267578125,1.4003994464874268,-11.060224533081055,-1.225723385810852
1781554571047764000,6.789763916015625,-1.6289139986038208,-8.351848602294922,-0.2748754918575287
1781554571096278800,6.83827880859375,-0.5102694034576416,-10.057332992553711,-0.506381094455719
1781554571144793600,6.886793701171875,-3.031407117843628,-10.515857696533203,-1.2230315208435059
1781554571193308400,6.935308349609375,-2.453540563583374,-10.77547836303711,0.5691927075386047
1781554571241823200,6.9838232421875,-0.8859425783157349,-9.369695663452148,0.048454657196998596
1781554571290338000,7.032338134765625,-1.2032907009124756,-9.508479118347168,-0.028115665540099144
1781554571338852900,7.080852783203125,-2.4993033409118652,-9.885647773742676,-0.004486542660742998
1781554571387367400,7.129367431640625,-2.6682963371276855,-9.620942115783691,-1.211964726448059
1781554571435882200,7.17788232421875,-1.8906289339065552,-9.4028959274292,-1.3334003686904907
1781554571484397000,7.22639697265625,-2.182553291320801,-9.456435203552246,-1.2661023139953613
1781554571532911900,7.274911865234375,-2.6126632690429688,-9.337990760803223,-1.2690932750701904
1781554571581426700,7.3234267578125,-2.3988046646118164,-9.247661590576172,-0.989432156085968
1781554571629941500,7.37194140625,-2.460120677947998,-9.804591178894043,-0.789332389831543
1781554571678456300,7.420456298828125,-2.526820659637451,-9.82702350616455,-0.7755736112594604
1781554571726971000,7.468970947265625,-2.3356940746307373,-9.697511672973633,-0.9828519225120544
1781554571775485700,7.517485595703125,-2.310868501663208,-9.376275062561035,-1.1371889114379883
1781554571824000500,7.56600048828125,-2.3706889152526855,-9.368199348449707,-1.2367901802062988
1781554571872515300,7.614515380859375,-2.2657039165496826,-9.997511863708496,-1.2577273845672607
1781554571921030100,7.663030029296875,-2.4547369480133057,-9.477372169494629,-1.0477572679519653
1781554571969545000,7.711544921875,-2.244168519973755,-9.343374252319336,-0.6975077986717224
1781554572018059500,7.7600595703125,-2.186142683029175,-10.159326553344727,-0.6861419081687927
1781554572066574300,7.80857421875,-2.4248266220092773,-9.652647018432617,-0.9864411354064941
1781554572115089200,7.857089111328125,-2.2677977085113525,-9.437891006469727,-1.007378339767456
1781554572163604000,7.90560400390625,-2.338984251022339,-9.816255569458008,-0.8288139700889587
1781554572212118800,7.954118896484375,-2.462812662124634,-9.87547779083252,-0.862313449382782
1781554572260633600,8.002633544921874,-2.4080770015716553,-9.536893844604492,-0.9493523836135864
1781554572309148400,8.0511484375,-2.3192434310913086,-9.309874534606934,-0.9346963167190552
1781554572357663200,8.099663330078124,-2.3446671962738037,-9.35025405883789,-0.9314061999320984
1781554572406178000,8.148177978515625,-2.3024935722351074,-10.31635570526123,-0.7319046258926392
1781554572454692600,8.196692626953125,-2.5336999893188477,-10.071091651916504,-0.7674978375434875
1781554572503207400,8.24520751953125,-2.368894338607788,-8.97368335723877,-1.0136594772338867
1781554572551722200,8.29372216796875,-2.060220241546631,-9.542876243591309,-1.2373883724212646
1781554572600237000,8.342237060546875,-2.5175485610961914,-9.833903312683105,-1.1273186206817627
1781554572648751900,8.390751953125,-2.4879374504089355,-9.598508834838867,-0.844068169593811
1781554572697266700,8.4392666015625,-2.2737796306610107,-9.5862455368042,-0.9302098155021667
1781554572745781500,8.487781494140625,-2.3886351585388184,-9.701101303100586,-1.184447169303894
1781554572794296300,8.53629638671875,-2.807080030441284,-9.215956687927246,-1.181157112121582
1781554572842811000,8.584810791015625,-2.454437732696533,-9.457033157348633,-0.5952146053314209
1781554572891325700,8.63332568359375,-2.3120648860931396,-10.156036376953125,-0.6631109714508057
1781554572939840500,8.681840576171876,-2.6847469806671143,-9.412467002868652,-1.2684950828552246
1781554572988355300,8.730355224609376,-2.3407788276672363,-9.414859771728516,-1.3800604343414307
1781554573036870100,8.7788701171875,-2.431705951690674,-9.648459434509277,-1.0878369808197021
1781554573085385000,8.827385009765624,-2.601297378540039,-9.630513191223145,-0.9257232546806335
1781554573133899500,8.8758994140625,-2.4975085258483887,-9.474679946899414,-1.0301101207733154
1781554573182414300,8.924414306640625,-2.4161527156829834,-9.570094108581543,-1.1060823202133179
1781554573230929200,8.97292919921875,-2.4409782886505127,-9.68794059753418,-0.986740231513977
1781554573279444000,9.02144384765625,-2.4675984382629395,-9.545269012451172,-0.9305089116096497
1781554573327958800,9.069958740234375,-2.293520450592041,-9.658628463745117,-1.0450652837753296
1781554573376473600,9.1184736328125,-2.3443679809570312,-9.751948356628418,-1.028315544128418
1781554573424988200,9.16698828125,-2.3255245685577393,-10.135697364807129,-1.0528420209884644
1781554573473503000,9.2155029296875,-2.6213371753692627,-9.32602596282959,-1.2146565914154053
1781554573522017800,9.264017822265625,-2.4197418689727783,-9.093025207519531,-1.0375877618789673
1781554573570532600,9.31253271484375,-2.3186452388763428,-9.826425552368164,-0.8240283131599426
1781554573619047400,9.36104736328125,-2.539682149887085,-10.239187240600586,-1.0184451341629028
1781554573667562200,9.409562255859376,-2.6177480220794678,-9.128917694091797,-0.8994022011756897
1781554573716077000,9.4580771484375,-2.0593230724334717,-9.32303524017334,-0.6251249313354492
1781554573764591900,9.506591796875,-2.0213370323181152,-9.857831001281738,-0.9628120064735413
1781554573813106700,9.555106689453124,-2.3365912437438965,-9.712766647338867,-1.0097711086273193
1781554573861621500,9.60362158203125,-2.260918378829956,-9.988240242004395,-0.5739783048629761
1781554573910136300,9.65213623046875,-2.3392832279205322,-10.075279235839844,-0.38255253434181213
1781554573958651000,9.70065087890625,-2.6778676509857178,-9.516854286193848,-0.6553342938423157
1781554574007165700,9.749165771484375,-2.5588247776031494,-9.03799057006836,-0.8919246196746826
1781554574055680500,9.797680419921875,-2.280359983444214,-9.286844253540039,-1.0707881450653076
1781554574104195300,9.8461953125,-2.346461772918701,-10.222437858581543,-0.8333004713058472
1781554574152710100,9.894710205078125,-2.4843480587005615,-9.452247619628906,-0.39571303129196167
1781554574201225000,9.943224853515625,-2.0398812294006348,-9.177671432495117,-0.4408775866031647
1781554574249739800,9.99173974609375,-2.2576282024383545,-9.669695854187012,-0.5599204897880554
1781554574298254600,10.040254638671875,-2.406581401824951,-10.083952903747559,-0.8452646136283875
1781554574346769400,10.088769287109375,-2.4008984565734863,-9.374481201171875,-0.6092724800109863
1781554574395284200,10.1372841796875,-2.2504496574401855,-9.722038269042969,-0.4184448719024658
1781554574443798800,10.185798828125,-2.114656925201416,-10.0040922164917,-0.5135595798492432
1781554574492313600,10.234313720703126,-2.1795623302459717,-9.656235694885254,-0.6732804775238037
1781554574540828400,10.282828369140624,-1.9543378353118896,-9.512067794799805,-1.0142576694488525
1781554574589343200,10.33134326171875,-1.7856439352035522,-9.830313682556152,-0.9957132935523987
1781554574637858000,10.379858154296874,-1.9938194751739502,-9.7998046875,-0.9924231767654419
1781554574686372900,10.428372802734375,-2.0452651977539062,-9.681958198547363,-1.2598211765289307
1781554574734887700,10.4768876953125,-2.0665013790130615,-9.732208251953125,-1.0223335027694702
1781554574783402500,10.525402587890625,-1.989033818244934,-9.563813209533691,-0.5545366406440735
1781554574831917300,10.573917236328125,-1.831107497215271,-9.781859397888184,-0.4181457459926605
1781554574880432000,10.62243212890625,-1.7892330884933472,-9.879366874694824,-0.6571289300918579
1781554574928947000,10.670947021484375,-1.7823537588119507,-9.800403594970703,-0.7507480978965759
1781554574977461800,10.719461669921875,-2.0186450481414795,-9.635896682739258,-1.1575279235839844
1781554575025976600,10.7679765625,-2.159522533416748,-9.676275253295898,-1.3507484197616577
1781554575074491400,10.816491455078125,-2.1382861137390137,-9.984950065612793,-1.2750753164291382
1781554575123006200,10.865006103515626,-2.377568483352661,-9.503693580627441,-1.3010972738265991
1781554575171520800,10.913520751953126,-2.0578274726867676,-9.66520881652832,-0.8901300430297852
1781554575220035800,10.962035888671876,-1.8406788110733032,-9.713663101196289,-0.6634100675582886
1781554575268550700,11.010550537109374,-1.9875383377075195,-9.442377090454102,-0.91914302110672
1781554575317065500,11.0590654296875,-1.872682809829712,-9.3819580078125,-1.114158034324646
1781554575365580000,11.107580078125,-1.7096717357635498,-9.857233047485352,-1.155434250831604
1781554575414094800,11.1560947265625,-1.8849459886550903,-9.64965534210205,-1.1066805124282837
1781554575462609700,11.204609619140625,-1.927717685699463,-9.758230209350586,-0.9873384237289429
1781554575511124500,11.25312451171875,-1.927119493484497,-9.934700965881348,-1.0872387886047363
1781554575559639300,11.301639404296875,-1.8218353986740112,-9.976574897766113,-0.9505487680435181
1781554575608154000,11.350154052734375,-1.9516459703445435,-9.847960472106934,-0.8225327730178833
1781554575656669000,11.3986689453125,-1.6767704486846924,-9.717252731323242,-0.9334999322891235
1781554575705183700,11.447183837890625,-1.8215361833572388,-9.613762855529785,-1.2293126583099365
1781554575753698600,11.495698486328125,-1.950150489807129,-9.72951602935791,-1.1988041400909424
1781554575802213400,11.54421337890625,-1.7940187454223633,-9.725926399230957,-1.3366905450820923
1781554575850728200,11.592728271484376,-1.8858433961868286,-9.741181373596191,-1.34267258644104
1781554575899243000,11.641242919921876,-1.9719849824905396,-9.731011390686035,-1.194616675376892
1781554575947757800,11.6897578125,-1.9794625043869019,-9.696016311645508,-1.046859860420227
1781554575996272600,11.738272705078124,-1.8529419898986816,-9.790533065795898,-1.1270195245742798
1781554576044787500,11.786787353515624,-1.8029918670654297,-9.81655502319336,-1.20687997341156
1781554576093302300,11.83530224609375,-1.8586249351501465,-9.731310844421387,-1.1341979503631592
1781554576141817000,11.883817138671875,-1.9052850008010864,-9.534501075744629,-1.1276177167892456
1781554576190332000,11.932331787109375,-1.8601205348968506,-9.684351921081543,-1.296610713005066
1781554576238846700,11.9808466796875,-2.0246269702911377,-9.907482147216797,-1.2496516704559326
1781554576287361500,12.029361572265625,-1.999801516532898,-9.64367389678955,-1.0498509407043457
1781554576335876400,12.07787646484375,-1.776371717453003,-9.690333366394043,-0.9954141974449158
1781554576384391200,12.12639111328125,-1.8652052879333496,-9.694820404052734,-1.0612168312072754
1781554576432906000,12.174906005859375,-1.9163517951965332,-9.661619186401367,-1.1395817995071411
1781554576481420800,12.2234208984375,-1.8861424922943115,-9.668498992919922,-1.2379865646362305
1781554576529935600,12.271935546875,-1.9773688316345215,-9.72652530670166,-1.2924233675003052
1781554576578450400,12.320450439453126,-2.067697763442993,-9.742975234985352,-1.2044870853424072
1781554576626965000,12.368965087890626,-2.0207388401031494,-9.660423278808594,-1.1120643615722656
1781554576675480000,12.41747998046875,-1.950150489807129,-9.718748092651367,-1.1682956218719482
1781554576723994600,12.46599462890625,-2.0042879581451416,-9.693623542785645,-1.1590235233306885
1781554576772509700,12.514509765625,-1.9959131479263306,-9.645169258117676,-1.0474581718444824
1781554576821024500,12.5630244140625,-1.9507486820220947,-9.66520881652832,-1.0671988725662231
1781554576869539300,12.611539306640625,-2.050050735473633,-9.670891761779785,-1.1467602252960205
1781554576918054000,12.660053955078125,-2.0186450481414795,-9.723833084106445,-1.1129616498947144
1781554576966568700,12.708568603515625,-2.00727915763855,-9.704689979553223,-1.155434250831604
1781554577015083800,12.757083740234375,-2.0419750213623047,-9.658628463745117,-1.2508480548858643
1781554577063598600,12.8055986328125,-2.0033907890319824,-9.695717811584473,-1.2496516704559326
1781554577112113200,12.854113037109375,-2.000998020172119,-9.694221496582031,-1.1368898153305054
1781554577160628000,12.9026279296875,-2.018944025039673,-9.657133102416992,-1.1315059661865234
1781554577209142800,12.951142822265625,-2.0042879581451416,-9.690034866333008,-1.1901301145553589
1781554577257657900,12.999657958984375,-1.9938194751739502,-9.69631576538086,-1.2062816619873047
1781554577306172700,13.048172607421876,-2.0093727111816406,-9.633503913879395,-1.2161520719528198
1781554577354687200,13.096687255859376,-2.0207388401031494,-9.651450157165527,-1.1973086595535278
1781554577403202000,13.1452021484375,-1.9875383377075195,-9.720542907714844,-1.1766705513000488
1781554577451717000,13.193717041015624,-1.9980069398880005,-9.686145782470703,-1.1536396741867065
1781554577500232000,13.24223193359375,-2.0401804447174072,-9.673284530639648,-1.1443674564361572
1781554577548746500,13.29074658203125,-2.0039889812469482,-9.694221496582031,-1.1389836072921753
1781554577597261300,13.33926123046875,-1.984248161315918,-9.696016311645508,-1.1775678396224976
1781554577645776100,13.387776123046875,-2.002194404602051,-9.683155059814453,-1.1799606084823608
1781554577694291200,13.436291259765625,-1.9956140518188477,-9.71695327758789,-1.1464611291885376
1781554577742805800,13.4848056640625,-1.9719849824905396,-9.689435958862305,-1.1572288274765015
1781554577791320600,13.533320556640625,-1.984248161315918,-9.608977317810059,-1.2493525743484497
1781554577839835400,13.58183544921875,-1.9725831747055054,-9.697213172912598,-1.2245270013809204
1781554577888350500,13.6303505859375,-1.999502420425415,-9.68375301361084,-1.1668001413345337
1781554577936865300,13.678865234375,-2.0048863887786865,-9.653244972229004,-1.1832507848739624
1781554577985379800,13.7273798828125,-2.008176326751709,-9.731011390686035,-1.1635099649429321
1781554578033894700,13.775894775390626,-2.0120646953582764,-9.72652530670166,-1.1341979503631592
1781554578082409700,13.82440966796875,-2.0330018997192383,-9.634101867675781,-1.1611171960830688
1781554578130924500,13.872924560546876,-2.026122570037842,-9.656535148620605,-1.2218350172042847
1781554578179439000,13.921439208984374,-2.032702922821045,-9.72652530670166,-1.2032907009124756
1781554578227954000,13.969953857421874,-2.018944025039673,-9.694820404052734,-1.145264744758606
1781554578276469000,14.018468994140624,-2.0093727111816406,-9.658628463745117,-1.1413763761520386
1781554578324983800,14.06698388671875,-2.0416758060455322,-9.683155059814453,-1.150648593902588
1781554578373498400,14.115498291015625,-2.0715861320495605,-9.696016311645508,-1.1485549211502075
1781554578422013400,14.164013427734375,-2.067697763442993,-9.667302131652832,-1.1114661693572998
1781554578470528300,14.2125283203125,-2.0353946685791016,-9.693922996520996,-1.1207382678985596
1781554578519043000,14.26104296875,-2.017747640609741,-9.688240051269531,-1.1997014284133911
1781554578567557600,14.3095576171875,-2.039283037185669,-9.654142379760742,-1.1985050439834595
1781554578616072700,14.35807275390625,-2.035095691680908,-9.690034866333008,-1.1273186206817627
1781554578664587500,14.40658740234375,-2.0659031867980957,-9.658927917480469,-1.1237293481826782
1781554578713102300,14.455102294921875,-2.039283037185669,-9.66819953918457,-1.1482558250427246
1781554578761617200,14.5036171875,-2.0210378170013428,-9.679864883422852,-1.1473584175109863
1781554578810132000,14.552132080078126,-2.0497517585754395,-9.699605941772461,-1.1703894138336182
1781554578858646800,14.600646728515626,-2.077568292617798,-9.675378799438477,-1.1255239248275757
1781554578907161600,14.64916162109375,-2.0542383193969727,-9.671489715576172,-1.1001001596450806
1781554578955676400,14.697676513671874,-2.0593230724334717,-9.66819953918457,-1.0917253494262695
1781554579004191200,14.746191162109374,-2.050948143005371,-9.72532844543457,-1.0773683786392212
1781554579052706000,14.7947060546875,-2.0620148181915283,-9.716355323791504,-1.0713863372802734
1781554579101220900,14.843220947265625,-2.0539391040802,-9.686445236206055,-1.0770692825317383
1781554579149735700,14.891735595703125,-2.0679969787597656,-9.704689979553223,-1.1282159090042114
1781554579198250500,14.94025048828125,-2.0808584690093994,-9.673882484436035,-1.1048858165740967
1781554579246765300,14.988765380859375,-2.0679969787597656,-9.699904441833496,-1.072881817817688
1781554579295280000,15.037280029296875,-2.0745773315429688,-9.691828727722168,-1.0609177350997925
1781554579343795000,15.085794921875,-2.071885347366333,-9.62363338470459,-1.0944172143936157
1781554579392309800,15.134309814453125,-2.0416758060455322,-9.68913745880127,-1.0875378847122192
1781554579440824600,15.182824462890625,-2.09431791305542,-9.694820404052734,-1.057029366493225
1781554579489339400,15.23133935546875,-2.1179471015930176,-9.669994354248047,-1.0244271755218506
1781554579537854200,15.279854248046876,-2.107478618621826,-9.637691497802734,-0.9801599979400635
1781554579586369000,15.328369140625,-2.0751755237579346,-9.707083702087402,-1.00259268283844
1781554579634883800,15.3768837890625,-2.1302103996276855,-9.714262008666992,-1.0103694200515747
1781554579683398700,15.425398681640624,-2.126920223236084,-9.657731056213379,-1.0031908750534058
1781554579731913500,15.47391357421875,-2.0808584690093994,-9.68494987487793,-0.9954141974449158
1781554579780428300,15.52242822265625,-2.075474500656128,-9.711869239807129,-1.0220344066619873
1781554579828943000,15.570943115234375,-2.076371908187866,-9.667302131652832,-1.0043872594833374
1781554579877458000,15.6194580078125,-2.0679969787597656,-9.668498992919922,-0.966102123260498
1781554579925972700,15.66797265625,-2.0895323753356934,-9.686145782470703,-0.9912267923355103
1781554579974487600,15.716487548828125,-2.1071794033050537,-9.659226417541504,-0.9720842242240906
1781554580023002400,15.76500244140625,-2.107478618621826,-9.701101303100586,-0.9649057388305664
1781554580071517200,15.81351708984375,-2.131406784057617,-9.660722732543945,-0.9975079298019409
1781554580120032300,15.8620322265625,-2.083550214767456,-9.64367389678955,-0.9987043738365173
1781554580168546800,15.910546875,-2.11824631690979,-9.684351921081543,-0.974177896976471
1781554580217061600,15.9590615234375,-2.1568305492401123,-9.710672378540039,-0.9906286001205444
1781554580265576700,16.00757666015625,-2.1221346855163574,-9.662516593933105,-1.0223335027694702
1781554580314091500,16.056091552734376,-2.1158533096313477,-9.731908798217773,-1.0274182558059692
1781554580362606000,16.104606201171876,-2.1577277183532715,-9.660123825073242,-1.0411769151687622
1781554580411121200,16.15312109375,-2.1215364933013916,-9.65085220336914,-1.0055837631225586
1781554580459636000,16.201635986328125,-2.0709879398345947,-9.660423278808594,-1.0393823385238647
1781554580508150800,16.25015087890625,-2.09431791305542,-9.686744689941406,-1.0510473251342773
1781554580556665300,16.298665283203125,-2.110170364379883,-9.679864883422852,-1.0220344066619873
1781554580605180400,16.347180419921877,-2.101496458053589,-9.668798446655273,-1.0019944906234741
1781554580653695200,16.3956953125,-2.1003000736236572,-9.69511890411377,-1.0115658044815063
1781554580702210000,16.4442099609375,-2.1227328777313232,-9.681360244750977,-1.0274182558059692
1781554580750724900,16.492724853515625,-2.1020946502685547,-9.665806770324707,-0.992124080657959
1781554580799239700,16.54123974609375,-2.090728759765625,-9.731310844421387,-0.9702895879745483
1781554580847754500,16.58975439453125,-2.1388843059539795,-9.671489715576172,-1.0028917789459229
1781554580896269300,16.638269287109374,-2.103590250015259,-9.6795654296875,-0.9900303483009338
1781554580944784100,16.6867841796875,-2.1062822341918945,-9.7037935256958,-0.9876375198364258
1781554580993299000,16.735298828125,-2.132603168487549,-9.66520881652832,-0.9861420392990112
1781554581041813800,16.783813720703126,-2.1062822341918945,-9.668498992919922,-0.99481600522995
1781554581090328600,16.83232861328125,-2.0997018814086914,-9.686744689941406,-1.0070792436599731
1781554581138843400,16.880843505859374,-2.113759756088257,-9.684052467346191,-1.0172487497329712
1781554581187358200,16.929358154296875,-2.1062822341918945,-9.678967475891113,-1.0088738203048706
1781554581235873000,16.977873046875,-2.113759756088257,-9.654142379760742,-0.9831510186195374
1781554581284387800,17.026387939453127,-2.095813512802124,-9.717850685119629,-1.0414760112762451
1781554581332902700,17.074902587890627,-2.138585329055786,-9.66640567779541,-1.0154540538787842
1781554581381417500,17.12341748046875,-2.122433662414551,-9.681958198547363,-0.9541380405426025
1781554581429932300,17.171932373046875,-2.12542462348938,-9.738189697265625,-0.9493523836135864
1781554581478447000,17.220447021484375,-2.118844509124756,-9.622138023376465,-0.9421738982200623
1781554581526962000,17.2689619140625,-2.103590250015259,-9.715457916259766,-0.8781659007072449
1781554581575476700,17.317476806640624,-2.1230318546295166,-9.65803050994873,-0.9311071038246155
1781554581623991600,17.365991455078124,-2.132603168487549,-9.699605941772461,-1.0253244638442993
1781554581672506600,17.414506591796876,-2.1460628509521484,-9.661619186401367,-1.069292664527893
1781554581721021200,17.463021240234376,-2.123929262161255,-9.701699256896973,-1.052243709564209
1781554581769536000,17.511535888671876,-2.1517457962036133,-9.687043190002441,-1.0094720125198364
1781554581818050800,17.56005078125,-2.102992057800293,-9.674779891967773,-0.9861420392990112
1781554581866566000,17.60856591796875,-2.1077775955200195,-9.681360244750977,-0.9705886840820312
1781554581915080400,17.65708056640625,-2.1367905139923096,-9.6795654296875,-0.9915258884429932
1781554581963595300,17.70559521484375,-2.1206390857696533,-9.682557106018066,-1.0151549577713013
1781554582012110300,17.7541103515625,-2.1469600200653076,-9.670592308044434,-1.0235298871994019
1781554582060625200,17.802625244140625,-2.14935302734375,-9.672686576843262,-0.9975079298019409
1781554582109140000,17.851139892578125,-2.1215364933013916,-9.674181938171387,-0.9993025660514832
1781554582157654800,17.89965478515625,-2.146361827850342,-9.664311408996582,-0.9936196208000183
1781554582206169600,17.948169677734374,-2.1361923217773438,-9.678070068359375,-0.9649057388305664
1781554582254684400,17.996684326171874,-2.1382861137390137,-9.683155059814453,-0.9717850685119629
1781554582303199200,18.04519921875,-2.1535403728485107,-9.681360244750977,-0.997208833694458
1781554582351714000,18.093714111328126,-2.1613171100616455,-9.669994354248047,-0.9481559991836548
1781554582400228900,18.142228759765626,-2.148754835128784,-9.718449592590332,-0.9361918568611145
1781554582448743700,18.19074365234375,-2.1481566429138184,-9.681061744689941,-0.9708877801895142
1781554582497258500,18.239258544921874,-2.130509376525879,-9.610772132873535,-1.0046863555908203
1781554582545773300,18.287773193359374,-2.144866466522217,-9.710672378540039,-1.0040881633758545
1781554582594288000,18.3362880859375,-2.1822543144226074,-9.667003631591797,-1.0151549577713013
1781554582642803000,18.384802978515626,-2.1373889446258545,-9.625128746032715,-1.028016448020935
1781554582691317800,18.43331787109375,-2.12751841545105,-9.691530227661133,-0.953240692615509
1781554582739832600,18.48183251953125,-2.1684954166412354,-9.636794090270996,-0.9346963167190552
1781554582788347400,18.530347412109375,-2.116750717163086,-9.649356842041016,-0.9442676305770874
1781554582836862200,18.5788623046875,-2.1260228157043457,-9.671789169311523,-0.9825528264045715
1781554582885377000,18.627376953125,-2.169692039489746,-9.655338287353516,-1.0094720125198364
1781554582933891800,18.675891845703124,-2.1735801696777344,-9.672985076904297,-1.017547845840454
1781554582982406700,18.72440673828125,-2.186441659927368,-9.720542907714844,-0.9684949517250061
1781554583030921500,18.77292138671875,-2.1589243412017822,-9.690632820129395,-0.9266205430030823
1781554583079436300,18.821436279296876,-2.103889226913452,-9.69631576538086,-0.9302098155021667
1781554583127951000,18.869951171875,-2.123929262161255,-9.662516593933105,-0.9571290612220764
1781554583176466000,18.9184658203125,-2.129014015197754,-9.685547828674316,-0.9708877801895142
1781554583224980700,18.966980712890624,-2.1155543327331543,-9.735796928405762,-0.9912267923355103
1781554583273495600,19.01549560546875,-2.143670082092285,-9.630513191223145,-1.0498509407043457
1781554583322010400,19.06401025390625,-2.095813512802124,-9.693922996520996,-1.04715895652771
1781554583370525200,19.112525146484376,-2.128415822982788,-9.663414001464844,-1.0097711086273193
1781554583419040000,19.1610400390625,-2.133500576019287,-9.671489715576172,-0.986740231513977
1781554583467555000,19.20955517578125,-2.1194427013397217,-9.767501831054688,-0.9912267923355103
1781554583516069600,19.258069580078125,-2.130509376525879,-9.590433120727539,-1.0426725149154663
1781554583564584400,19.30658447265625,-2.1589243412017822,-9.658628463745117,-1.0426725149154663
1781554583613099500,19.355099609375,-2.173281192779541,-9.685248374938965,-1.0259226560592651
1781554583661614300,19.4036142578125,-2.14935302734375,-9.663713455200195,-1.0157532691955566
1781554583710129000,19.45212890625,-2.1242282390594482,-9.675976753234863,-0.9861420392990112
1781554583758643700,19.500643798828126,-2.152942180633545,-9.678967475891113,-0.9837492108345032
1781554583807158800,19.54915869140625,-2.1684954166412354,-9.692726135253906,-1.0058828592300415
1781554583855673600,19.597673583984374,-2.1460628509521484,-9.678369522094727,-0.9822536706924438
1781554583904188200,19.646188232421874,-2.1649062633514404,-9.665508270263672,-1.0360921621322632
1781554583952703200,19.694703125,-2.1894326210021973,-9.681360244750977,-1.0157532691955566
1781554584001218000,19.743218017578126,-2.173879384994507,-9.682257652282715,-0.9759725332260132
1781554584049732900,19.79173291015625,-2.170290231704712,-9.69212818145752,-0.9550353288650513
1781554584098247700,19.84024755859375,-2.193620204925537,-9.627223014831543,-0.9837492108345032
1781554584146762500,19.888762451171875,-2.1634106636047363,-9.674481391906738,-1.0094720125198364
1781554584195277300,19.93727734375,-2.210968017578125,-9.671789169311523,-0.9996016621589661
1781554584243792100,19.985792236328123,-2.212463617324829,-9.658628463745117,-1.0094720125198364
1781554584292309000,20.03430908203125,-2.1879372596740723,-9.650253295898438,-1.0190433263778687
1781554584340821800,20.08282177734375,-2.191227436065674,-9.701998710632324,-1.0402796268463135
1781554584389336600,20.131336669921875,-2.1924238204956055,-9.66102123260498,-1.057029366493225
1781554584437851400,20.179851318359376,-2.1843478679656982,-9.656535148620605,-1.0235298871994019
1781554584486366200,20.2283662109375,-2.1984057426452637,-9.67657470703125,-1.0163514614105225
1781554584534881000,20.276881103515624,-2.2118654251098633,-9.671789169311523,-1.0450652837753296
1781554584583395800,20.325395751953124,-2.1975085735321045,-9.653244972229004,-1.077667474746704
1781554584631910700,20.37391064453125,-2.214557409286499,-9.648159980773926,-1.0633105039596558
1781554584680425500,20.422425537109376,-2.2019951343536377,-9.661320686340332,-1.0558329820632935
1781554584728940300,20.470940185546876,-2.2121646404266357,-9.652048110961914,-1.054038405418396
1781554584777455000,20.519455078125,-2.225325107574463,-9.633204460144043,-1.0414760112762451
1781554584825970000,20.567969970703125,-2.2010977268218994,-9.63499927520752,-1.0220344066619873
1781554584874484700,20.616484619140625,-2.217548370361328,-9.659226417541504,-1.0399805307388306
1781554584922999600,20.66499951171875,-2.2244277000427246,-9.618249893188477,-1.0567302703857422
1781554584971514400,20.713514404296873,-2.201396942138672,-9.641879081726074,-1.0495518445968628
1781554585020029200,20.762029296875,-2.247159481048584,-9.652347564697266,-1.0160523653030396
1781554585068544000,20.8105439453125,-2.223829507827759,-9.678668022155762,-0.9984052777290344
1781554585117058800,20.859058837890625,-2.2351953983306885,-9.624231338500977,-0.9768698215484619
1781554585165573400,20.907573486328126,-2.218146562576294,-9.65683364868164,-0.9909276962280273
1781554585214088400,20.95608837890625,-2.215155601501465,-9.704989433288574,-1.0516455173492432
1781554585262603300,21.004603271484374,-2.2229323387145996,-9.651150703430176,-1.0244271755218506
1781554585311118000,21.0531181640625,-2.1888344287872314,-9.647262573242188,-0.968794047832489
1781554585359633000,21.1016328125,-2.18045973777771,-9.64965534210205,-0.9699904918670654
1781554585408147700,21.150147705078126,-2.18045973777771,-9.66640567779541,-1.017547845840454
1781554585456662500,21.19866259765625,-2.1795623302459717,-9.666704177856445,-0.999900758266449
1781554585505177300,21.24717724609375,-2.183450698852539,-9.684351921081543,-0.9990034699440002
1781554585553692200,21.295692138671875,-2.1933209896087646,-9.671191215515137,-0.9900303483009338
1781554585602207000,21.34420703125,-2.1822543144226074,-9.694820404052734,-0.9936196208000183
1781554585650722000,21.39272216796875,-2.1655044555664062,-9.64965534210205,-0.9861420392990112
1781554585699236600,21.441236572265623,-2.1756739616394043,-9.671191215515137,-0.9672985672950745
1781554585747751400,21.48975146484375,-2.174776792526245,-9.725627899169922,-0.9652048349380493
1781554585796266500,21.5382666015625,-2.170290231704712,-9.655936241149902,-1.00259268283844
1781554585844781300,21.58678125,-2.1367905139923096,-9.676874160766602,-1.0295119285583496
1781554585893295900,21.6352958984375,-2.161616086959839,-9.686744689941406,-0.9984052777290344
1781554585941810700,21.683810791015624,-2.1481566429138184,-9.654142379760742,-0.9876375198364258
1781554585990325800,21.73232568359375,-2.1092731952667236,-9.647562026977539,-0.9996016621589661
1781554586038840600,21.780840576171876,-2.142174482345581,-9.695418357849121,-1.012762188911438
1781554586087355100,21.829355224609376,-2.157428741455078,-9.670592308044434,-1.0274182558059692
1781554586135870200,21.8778701171875,-2.1433708667755127,-9.669096946716309,-0.99481600522995
1781554586184385000,21.926385009765625,-2.14516544342041,-9.676275253295898,-1.0043872594833374
1781554586232899800,21.97489990234375,-2.157428741455078,-9.693025588989258,-1.0453643798828125
1781554586281414700,22.02341455078125,-2.161017894744873,-9.693922996520996,-1.0456634759902954
1781554586329929500,22.071929443359377,-2.1278176307678223,-9.678668022155762,-1.028315544128418
1781554586378444300,22.1204443359375,-2.150848388671875,-9.705288887023926,-1.042074203491211
1781554586426959000,22.168958984375,-2.1245274543762207,-9.644869804382324,-1.0477572679519653
1781554586475474000,22.217473876953125,-2.0859432220458984,-9.62901782989502,-1.054038405418396
1781554586523988700,22.26598876953125,-2.123331069946289,-9.697811126708984,-1.074377417564392
1781554586572503600,22.314503662109374,-2.169692039489746,-9.645169258117676,-1.0501500368118286
1781554586621018400,22.363018310546874,-2.1346969604492188,-9.693623542785645,-1.0199406147003174
1781554586669533200,22.411533203125,-2.118844509124756,-9.711869239807129,-1.0636097192764282
1781554586718048000,22.460048095703126,-2.1352951526641846,-9.626923561096191,-1.0923235416412354
1781554586766562800,22.508562744140626,-2.1003000736236572,-9.719346046447754,-1.0351948738098145
1781554586815077600,22.55707763671875,-2.1227328777313232,-9.690333366394043,-1.057029366493225
1781554586863592400,22.605592529296874,-2.122433662414551,-9.627521514892578,-1.0809576511383057
1781554586912107300,22.654107177734375,-2.076970100402832,-9.708877563476562,-1.0809576511383057
1781554586960622000,22.7026220703125,-2.112563371658325,-9.705587387084961,-1.0992028713226318
1781554587009137000,22.751136962890627,-2.1011974811553955,-9.66221809387207,-1.0857433080673218
1781554587057651700,22.799651611328127,-2.102393865585327,-9.674779891967773,-1.0429716110229492
1781554587106166500,22.84816650390625,-2.1230318546295166,-9.693922996520996,-1.074377417564392
1781554587154681300,22.896681396484375,-2.0967109203338623,-9.661918640136719,-1.1024930477142334
1781554587203196200,22.945196044921875,-2.0614166259765625,-9.664012908935547,-1.0917253494262695
1781554587251711000,22.9937109375,-2.0365912914276123,-9.69930648803711,-1.0474581718444824
1781554587300225800,23.042225830078124,-2.1293129920959473,-9.707382202148438,-1.0719845294952393
1781554587348740600,23.09074072265625,-2.0476579666137695,-9.709476470947266,-1.1204391717910767
1781554587397255400,23.13925537109375,-2.0192432403564453,-9.72831916809082,-1.0821540355682373
1781554587445770200,23.187770263671876,-2.1215364933013916,-9.710074424743652,-0.9996016621589661
1781554587494285000,23.23628515625,-2.0165512561798096,-9.642477035522461,-0.9628120064735413
1781554587542800000,23.2847998046875,-1.9627127647399902,-9.621838569641113,-0.9672985672950745
1781554587591315000,23.33331494140625,-2.0006988048553467,-9.707083702087402,-0.9759725332260132
1781554587639829800,23.381829833984376,-1.9830517768859863,-9.772886276245117,-0.9834501147270203
1781554587688344300,23.43034423828125,-2.0506489276885986,-9.662516593933105,-0.9290133714675903
1781554587736859400,23.478859375,-2.009671926498413,-9.698708534240723,-0.9101698994636536
1781554587785374200,23.527374267578125,-1.9929221868515015,-9.716055870056152,-0.9026923179626465
1781554587833889000,23.575888916015625,-2.056631088256836,-9.713065147399902,-0.9768698215484619
1781554587882403800,23.62440380859375,-2.0889341831207275,-9.744471549987793,-1.0680961608886719
1781554587930918700,23.672918701171874,-2.2097716331481934,-9.917352676391602,-1.017547845840454
1781554587979433500,23.72143359375,-2.5674986839294434,-9.323633193969727,-0.9128618240356445
1781554588027948300,23.7699482421875,-2.242672920227051,-9.086145401000977,-1.1997014284133911
1781554588076463000,23.818463134765626,-2.1302103996276855,-9.471988677978516,-1.5490535497665405
1781554588124978000,23.86697802734375,-2.084148406982422,-9.665806770324707,-1.6157535314559937
1781554588173492700,23.91549267578125,-1.828116536140442,-9.42173957824707,-2.160120725631714
1781554588222007600,23.964007568359374,-1.6965112686157227,-9.848857879638672,-2.310868501663208
1781554588270522400,24.0125224609375,-1.815255045890808,-9.818947792053223,-2.1954147815704346
1781554588319037200,24.061037109375,-1.861915111541748,-9.0514497756958,-2.6865415573120117
1781554588367552000,24.109552001953126,-1.5236297845840454,-9.14985466003418,-2.5770699977874756
1781554588416066800,24.15806689453125,-1.4781662225723267,-9.005986213684082,-3.270390272140503
1781554588464581600,24.20658154296875,-1.3453645706176758,-8.781659126281738,-3.5255250930786133
1781554588513096400,24.255096435546875,-1.1539387702941895,-8.797511100769043,-3.596113443374634
1781554588561611500,24.303611572265623,-1.5122638940811157,-9.622138023376465,-4.094717979431152
1781554588610126000,24.3521259765625,-1.8915263414382935,-9.83420181274414,-4.573282241821289
1781554588658641000,24.400640869140624,-2.723032236099243,-10.6295166015625,-4.495216369628906
1781554588707156000,24.449156005859376,-2.3069801330566406,-11.972488403320312,-4.329214572906494
1781554588755670800,24.4976708984375,-0.7166503667831421,-11.05753231048584,-2.8196423053741455
1781554588804185300,24.546185302734376,-3.1223344802856445,-10.16889762878418,-1.469791293144226
1781554588852700200,24.5947001953125,-2.204387903213501,-8.861220359802246,-0.8991031050682068
1781554588901215200,24.64321533203125,-2.635993242263794,-8.458029747009277,0.0687936544418335
1781554588949730000,24.69172998046875,-1.7512470483779907,-9.003593444824219,-0.39152559638023376
1781554588998244900,24.740244873046876,-2.1424734592437744,-7.963912010192871,-1.2604193687438965
1781554589046759700,24.788759765625,-1.85383939743042,-8.113163948059082,-1.6576279401779175
1781554589095274500,24.8372744140625,-1.5296118259429932,-9.163912773132324,-0.9457631707191467
1781554589143789300,24.885789306640625,-1.4712867736816406,-9.166305541992188,-0.8509475588798523
1781554589192304000,24.93430419921875,-1.2664014101028442,-9.717252731323242,-0.06161518394947052
1781554589240819000,24.98281884765625,-1.7425731420516968,-9.642477035522461,-1.4590235948562622
1781554589289333800,25.031333740234373,-1.2993026971817017,-11.807682037353516,-3.0086753368377686
1781554589337848600,25.0798486328125,-3.003291606903076,-12.220444679260254,-2.9868409633636475
1781554589386363400,25.12836328125,-5.389832973480225,-7.661818027496338,0.966401219367981
1781554589434878200,25.176878173828126,-5.708078384399414,-8.927022933959961,2.568695068359375
1781554589483393300,25.225393310546874,-5.68385124206543,-13.036994934082031,-0.698704183101654
1781554589531907800,25.273907958984374,-3.263211965560913,-7.041179656982422,-2.339881420135498
1781554589628937700,25.370937744140626,-1.612762451171875,-7.922635555267334,-1.4706885814666748
1781554589677452500,25.41945263671875,-0.9158528447151184,-7.41416072845459,-1.6444673538208008
1781554589725967400,25.46796728515625,0.12083754688501358,-7.779365539550781,-2.809173822402954
1781554589774482200,25.516482177734375,-1.9510477781295776,-9.769296646118164,-4.960022449493408
1781554589822997000,25.5649970703125,-0.4576273262500763,-12.595220565795898,-2.8582265377044678
1781554589871511800,25.61351171875,-3.3948171138763428,-16.76232147216797,-2.402094841003418
1781554589920026600,25.662026611328123,-3.5754752159118652,-11.176575660705566,-1.2942179441452026
1781554589968541400,25.71054150390625,-3.5554354190826416,-9.354142189025879,0.20069800317287445
1781554590017056300,25.75905615234375,-1.5451651811599731,-10.108180046081543,0.07118647545576096
1781554590065571000,25.807571044921875,-1.7856439352035522,-8.165507316589355,-2.1382861137390137
1781554590114086000,25.8560859375,-2.255235433578491,-7.2335028648376465,-0.7088736891746521
1781554590162600700,25.9046005859375,-1.3627125024795532,-7.6600236892700195,-1.7123637199401855
1781554590211115800,25.95311572265625,-1.3758729696273804,-8.867202758789062,-1.5643078088760376
1781554590259630600,26.001630615234376,-0.8928219676017761,-9.159425735473633,-0.8988040089607239
1781554590308145400,26.0501455078125,-0.14805589616298676,-7.331010341644287,-2.8492536544799805
1781554590356660200,26.09866015625,-2.1750757694244385,-11.122736930847168,-4.027718544006348
1781554590405175000,26.147175048828124,-2.870789051055908,-12.839287757873535,-2.6748766899108887
1781554590453689900,26.19568994140625,-4.6510491371154785,-7.625028610229492,3.6957144737243652
1781554590502204700,26.24420458984375,-5.44636344909668,-12.390633583068848,2.4675984382629395
1781554590550719700,26.2927197265625,-5.392824172973633,-13.899907112121582,-0.36640095710754395
1781554590599234300,26.341234375,-2.5654048919677734,-7.6375908851623535,-2.509173631668091
1781554590647749000,26.3897490234375,-0.08434699475765228,-4.990530490875244,-1.8128622770309448
1781554590696264200,26.43826416015625,-0.3813561201095581,-6.576074600219727,-1.7715860605239868
1781554590744779000,26.486779052734374,0.5988038778305054,-8.662615776062012,-1.4787644147872925
1781554590793293800,26.5352939453125,0.09182456880807877,-9.05444049835205,-5.2839508056640625
1781554590841808600,26.58380859375,-0.7052844762802124,-12.197413444519043,-3.9263229370117188
1781554590890323500,26.632323486328126,-0.38285163044929504,-15.405291557312012,-3.941577196121216
1781554590938838300,26.68083837890625,-3.0759735107421875,-12.714860916137695,-1.9567307233810425
1781554590987353000,26.72935302734375,-3.10528564453125,-11.38833999633789,-2.0685951709747314
1781554591035868000,26.777867919921874,-1.719243049621582,-9.209674835205078,0.2626122832298279
1781554591084382700,26.8263828125,-1.7099708318710327,-8.689236640930176,-0.23180469870567322
1781554591132897500,26.8748974609375,-2.182553291320801,-6.99122953414917,-0.7758727669715881
1781554591181412400,26.923412353515626,-1.9914265871047974,-6.8033928871154785,-1.6342978477478027
1781554591229927400,26.971927490234375,-2.1562323570251465,-9.45045280456543,-0.02961117960512638
1781554591278442200,27.020442138671875,-1.3010972738265991,-8.754141807556152,-1.721037745475769
1781554591326957000,27.06895703125,0.6430711150169373,-8.045268058776855,-3.0681967735290527
1781554591375471900,27.117471923828123,-1.5038890838623047,-10.941780090332031,-4.124628067016602
1781554591423986700,27.165986572265624,-2.9225337505340576,-12.997214317321777,-2.9943184852600098
1781554591472501500,27.21450146484375,-2.9877381324768066,-7.7593255043029785,3.3460633754730225
1781554591521016300,27.263016357421876,-5.458626747131348,-10.352248191833496,4.8762736320495605
1781554591569531400,27.311531494140624,-6.5042901039123535,-15.620944023132324,-1.7611174583435059
1781554591618046200,27.360046142578124,-2.436192512512207,-6.435795783996582,-3.0927233695983887
1781554591666561000,27.40856103515625,-0.4289134442806244,-6.15045166015625,-1.4057832956314087
1781554591715075800,27.457075927734376,-0.1788634955883026,-7.354639530181885,-1.4374881982803345
1781554591763590700,27.505590576171876,0.022133609279990196,-7.63310432434082,-1.8502501249313354
1781554591812105500,27.55410546875,0.8297112584114075,-9.302995681762695,-4.43330192565918
1781554591860620300,27.602620361328125,-1.1934202909469604,-11.682657241821289,-5.601298809051514
1781554591909135000,27.651135009765625,-0.2670988142490387,-14.166108131408691,-2.200798511505127
1781554591957650200,27.699650146484377,-3.685544967651367,-15.325430870056152,-1.5978072881698608
1781554592006164700,27.748164794921873,-3.5865421295166016,-10.17009449005127,-1.7793627977371216
1781554592054679800,27.7966796875,-2.1532411575317383,-9.698110580444336,0.34277185797691345
1781554592103194600,27.845194580078125,-1.1446665525436401,-8.984151840209961,-0.638584554195404
1781554592151709400,27.89370947265625,-2.345564365386963,-7.097710132598877,-0.10737791657447815
1781554592200224300,27.942224365234374,-1.6528422832489014,-7.144071102142334,-1.4638092517852783
1781554592248739000,27.990739013671874,-1.3561322689056396,-10.054940223693848,-1.0199406147003174
1781554592297254000,28.03925390625,-1.1024930477142334,-9.000003814697266,-0.8129615187644958
1781554592345768700,28.087768798828126,0.36640095710754395,-5.661717414855957,-2.4747767448425293
1781554592394283800,28.13628369140625,-1.8490537405014038,-11.094022750854492,-4.964807987213135
1781554592442798600,28.184798583984374,-2.2534406185150146,-12.573385238647461,-2.287837505340576
1781554592539828200,28.281828125,-4.660022258758545,-12.669397354125977,5.31266450881958
1781554592588343000,28.330343017578127,-6.302694797515869,-16.268203735351562,-2.495713949203491
1781554592636857900,28.37885791015625,-2.675773859024048,-7.276872634887695,-3.856332778930664
1781554592685373000,28.427373046875,0.24825534224510193,-5.699105262756348,-2.3742783069610596
1781554592733887700,28.4758876953125,0.29730820655822754,-6.771090030670166,-1.2936197519302368
1781554592782402600,28.524402587890624,-0.0005982056609354913,-7.7007012367248535,-0.5967101454734802
1781554592830917400,28.57291748046875,0.8276175260543823,-8.845966339111328,-3.6475589275360107
1781554592879432200,28.62143212890625,-0.7567301392555237,-11.361720085144043,-6.283552169799805
1781554592927947000,28.669947021484376,-0.4585246443748474,-15.588342666625977,-1.8741782903671265
1781554592976462000,28.718462158203124,-2.447857618331909,-15.600007057189941,-2.2295124530792236
1781554593024977000,28.766976806640624,-3.3649067878723145,-9.968499183654785,-2.4732813835144043
1781554593073491700,28.81549169921875,-2.004587173461914,-9.212666511535645,-0.3487538993358612
1781554593122006500,28.864006591796876,-1.0680961608886719,-8.65633487701416,-0.8321040868759155
1781554593170521300,28.912521240234376,-1.8302102088928223,-6.134599208831787,-0.4815555512905121
1781554593219036400,28.961036376953125,-1.903490424156189,-5.894718647003174,-1.4087743759155273
1781554593267551000,29.009551025390625,-1.85383939743042,-9.575477600097656,-0.34995031356811523
1781554593316066000,29.058066162109377,-1.5804593563079834,-11.148758888244629,0.06969095766544342
1781554593364580900,29.106580810546873,1.3357932567596436,-6.656234264373779,-1.8849459886550903
1781554593413095700,29.155095703125,-1.3256237506866455,-10.499107360839844,-5.018048286437988
1781554593461610500,29.203610595703125,-3.6625142097473145,-12.470494270324707,-2.508575439453125
1781554593510125600,29.25212548828125,-2.3324038982391357,-6.463612079620361,5.207679271697998
1781554593558640400,29.300640380859374,-4.82542610168457,-13.860424995422363,4.786243438720703
1781554593607155200,29.3491552734375,-6.068796634674072,-15.519548416137695,-2.7263224124908447
1781554593655670000,29.397669921875,-2.7804598808288574,-6.9720869064331055,-3.9212381839752197
1781554593704184800,29.446184814453126,0.20578274130821228,-4.749154567718506,-2.4161527156829834
1781554593752700000,29.494699951171874,0.2641077935695648,-6.178866386413574,-0.9768698215484619
1781554593801214700,29.543214599609374,-0.09511470049619675,-8.09671401977539,-0.4423730969429016
1781554593849729500,29.5917294921875,0.26440688967704773,-9.955338478088379,-3.4244282245635986
1781554593898244400,29.640244384765627,0.2715853750705719,-12.440882682800293,-4.184448719024658
1781554593946759400,29.688759521484375,-1.893320918083191,-16.560426712036133,-3.7567315101623535
1781554593995274200,29.737274169921875,-2.237887382507324,-14.435600280761719,-1.8598214387893677
1781554594043789000,29.7857890625,-4.097409725189209,-9.68494987487793,-1.68484628200531
1781554594092304000,29.834303955078123,-2.032104730606079,-9.745667457580566,0.4782654345035553
1781554594140818700,29.882818603515624,-1.7730815410614014,-8.45444107055664,0.8865407705307007
1781554594189333500,29.93133349609375,-2.136491537094116,-6.192026615142822,0.21684955060482025
1781554594237848600,29.9798486328125,-1.7665013074874878,-6.276971817016602,-1.1482558250427246
1781554594286363400,30.02836328125,-1.612463355064392,-9.40169906616211,-0.5006981492042542
1781554594334878200,30.076878173828124,-1.0211371183395386,-9.291030883789062,-1.511067509651184
1781554594383393300,30.125393310546876,0.7782655358314514,-7.477271556854248,-3.852743625640869
1781554594431908000,30.173908203125,-2.248655080795288,-12.94786262512207,-4.836492538452148
1781554594480423000,30.2224228515625,-2.436790704727173,-10.657333374023438,-0.5255236625671387
1781554594528937700,30.270937744140625,-2.8456642627716064,-5.854339599609375,5.912664890289307
1781554594577452500,30.31945263671875,-5.577968597412109,-16.91994857788086,0.4181457459926605
1781554594625967600,30.367967529296877,-6.3116679191589355,-13.674981117248535,-0.8398807644844055
1781554594674482400,30.416482421875,-1.4611172676086426,-6.499504566192627,-3.6113674640655518
1781554594722997200,30.464997314453125,0.1537388563156128,-5.015356063842773,-2.295016050338745
1781554594771512300,30.51351220703125,0.06520441919565201,-6.078666687011719,-1.3854442834854126
1781554594820027100,30.562027099609374,1.0707881450653076,-8.270791053771973,-0.7226324677467346
1781554594868542000,30.6105419921875,0.21595224738121033,-10.54845905303955,-4.928317546844482
1781554594917057000,30.65905712890625,0.6167500615119934,-13.064213752746582,-2.3539392948150635
1781554594965571800,30.70757177734375,-2.4924237728118896,-19.02742576599121,-2.573779821395874
1781554595014086700,30.756086669921874,-3.126222848892212,-9.882357597351074,-1.9073787927627563
1781554595062601500,30.8046015625,-3.1585259437561035,-10.843673706054688,-0.39481574296951294
1781554595111116300,30.8531162109375,-1.194616675376892,-9.501001358032227,0.38673996925354004
1781554595159631400,30.90163134765625,-1.953141450881958,-7.228417873382568,0.08315058797597885
1781554595208146200,30.950146240234375,-1.8191434144973755,-5.987141132354736,-0.7878368496894836
1781554595256661000,30.998660888671875,-1.383948802947998,-7.499405384063721,-1.6474584341049194
1781554595305176000,31.047176025390623,-1.1009975671768188,-10.855339050292969,-0.3858426511287689
1781554595353691000,31.09569091796875,-1.4847464561462402,-9.132207870483398,-0.2626122832298279
1781554595402205700,31.144205810546875,1.1015957593917847,-8.219046592712402,-3.4821550846099854
1781554595450720800,31.192720703125,-2.4888346195220947,-12.792628288269043,-4.274179458618164
1781554595547750400,31.28975048828125,-4.529314041137695,-5.3093743324279785,6.2530436515808105
1781554595596265500,31.338265380859376,-5.478965759277344,-17.99671745300293,-1.857129454612732
1781554595644780300,31.3867802734375,-5.411966800689697,-11.496914863586426,-0.3975076675415039
1781554595693295000,31.435295166015624,-0.519242525100708,-4.503890514373779,-3.1752755641937256
1781554595741810200,31.48381005859375,0.6200401782989502,-6.912266254425049,-2.0303099155426025
1781554595790325000,31.532324951171876,-0.29312077164649963,-7.3022966384887695,-0.5721837282180786
1781554595838839800,31.58083984375,0.39541393518447876,-8.03210735321045,-1.545763373374939
1781554595887354600,31.629354736328125,0.0568295381963253,-10.359127044677734,-5.131109237670898
1781554595935869700,31.67786962890625,0.6849454641342163,-12.566506385803223,-2.12542462348938
1781554595984384500,31.726384521484373,-2.002194404602051,-17.877676010131836,-2.955435037612915
1781554596032899300,31.7748994140625,-2.782254457473755,-10.596614837646484,-2.273181438446045
1781554596081414400,31.823414306640625,-3.589832067489624,-10.26341438293457,-0.709172785282135
1781554596129929200,31.87192919921875,-1.3965110778808594,-9.171390533447266,0.8895317912101746
1781554596178444000,31.920444091796874,-1.3968101739883423,-7.744370460510254,0.6493522524833679
1781554596226959000,31.968958984375,-1.7258232831954956,-6.8018975257873535,-0.2234298139810562
1781554596275474000,32.017473876953126,-2.0141584873199463,-7.768597602844238,-0.9520443081855774
1781554596323988700,32.06598876953125,-1.0666006803512573,-10.378568649291992,-1.3716856241226196
1781554596372503800,32.11450390625,-0.9708877801895142,-9.144769668579102,-0.6945167779922485
1781554596421018600,32.1630185546875,0.264706015586853,-7.6636128425598145,-2.376072883605957
1781554596469533700,32.21153369140625,-0.385543555021286,-12.622737884521484,-3.8662030696868896
1781554596518048500,32.26004858398438,-2.4269204139709473,-12.07358455657959,-1.688435435295105
1781554596566563300,32.308563232421875,-4.521836757659912,-5.73469877243042,4.062414646148682
1781554596615078400,32.35707836914062,-4.877170562744141,-12.851252555847168,3.8006997108459473
1781554596663593200,32.40559326171875,-5.993422508239746,-16.15574073791504,-2.078465461730957
1781554596712108300,32.4541083984375,-1.8490537405014038,-6.640082836151123,-4.791926383972168
1781554596760623000,32.502623046875,0.08703892678022385,-4.878067970275879,-2.5995028018951416
1781554596809138000,32.55113793945313,0.6765705943107605,-6.798607349395752,-0.5198407173156738
1781554596857652700,32.59965283203125,0.3568296730518341,-7.5978102684021,-1.0857433080673218
1781554596906167800,32.64816772460937,0.9634101986885071,-9.385847091674805,-4.026821613311768
1781554596954682600,32.6966826171875,-0.6939185857772827,-12.802199363708496,-4.172783374786377
1781554597003197400,32.745197509765624,-0.9122636318206787,-16.90858268737793,-1.8445671796798706
1781554597051712500,32.79371240234375,-3.4307093620300293,-13.476377487182617,-1.017547845840454
1781554597100227300,32.84222729492188,-3.7130625247955322,-10.665109634399414,-1.1850453615188599
1781554597148742400,32.890742431640625,-1.6914265155792236,-9.798608779907227,1.430907964706421
1781554597197257200,32.93925732421875,-0.6125625967979431,-7.6992058753967285,0.12861421704292297
1781554597245772000,32.98777197265625,-2.2133610248565674,-6.737590312957764,0.5943173170089722
1781554597294287000,33.036287109375,-2.0787646770477295,-6.553043842315674,-1.0704890489578247
1781554597342802000,33.08480200195312,-1.9016958475112915,-9.242576599121094,-0.1256231814622879
1781554597391317000,33.13331689453125,-0.6433702111244202,-10.383355140686035,0.1295115202665329
1781554597439831800,33.181831787109374,-0.08703892678022385,-7.3145599365234375,-2.062314033508301
1781554597488346600,33.2303466796875,-0.7148557901382446,-12.109477043151855,-4.751846790313721
1781554597536861700,33.27886181640625,-2.0093727111816406,-13.117753028869629,-2.385344982147217
1781554597585376500,33.32737646484375,-3.8883368968963623,-6.82223653793335,1.9669002294540405
1781554597633891600,33.3758916015625,-4.732405185699463,-8.7505521774292,3.852743625640869
1781554597682406400,33.42440649414063,-6.520142555236816,-16.59930992126465,0.22193430364131927
1781554597730921500,33.47292138671875,-3.1600213050842285,-8.785547256469727,-3.791726589202881
1781554597779436300,33.52143627929688,-0.20159530639648438,-4.4012980461120605,-2.9398818016052246
1781554597827951000,33.569951171875,0.6068796515464783,-6.634100914001465,-1.685145378112793
1781554597876466200,33.61846606445312,0.8563314080238342,-8.279166221618652,-0.6634100675582886
1781554597924981000,33.66698095703125,2.175374984741211,-9.82702350616455,-1.9411773681640625
1781554597973496000,33.71549609375,-0.271286278963089,-12.580564498901367,-2.8007988929748535
1781554598022011000,33.764010986328124,1.6193426847457886,-12.888640403747559,0.3678964674472809
1781554598070526000,33.81252587890625,-4.144668102264404,-16.389039993286133,-0.706480860710144
1781554598119040800,33.861040771484376,-3.0254251956939697,-10.74676513671875,-0.9182456731796265
1781554598167555600,33.9095556640625,0.5877370834350586,-8.477471351623535,3.0305099487304688
1781554598216070700,33.95807055664063,-0.10468599200248718,-10.289137840270996,-0.7331010103225708
1781554598264585500,34.00658544921875,-1.7847466468811035,-7.191927433013916,-1.1527422666549683
1781554598313100500,34.0551005859375,-2.4993033409118652,-6.826124668121338,1.4195420742034912
1781554598361615400,34.10361547851563,-0.22402802109718323,-8.767900466918945,0.6185446381568909
1781554598410130400,34.15213037109375,-0.23778675496578217,-9.587442398071289,-0.45912283658981323
1781554598458645200,34.20064526367187,0.5985047817230225,-6.872784614562988,-2.3820550441741943
1781554598507160300,34.24916040039062,-0.6418746709823608,-11.353644371032715,-6.497111797332764
1781554598555675000,34.2976748046875,-2.1062822341918945,-11.199605941772461,-0.8835497498512268
1781554598604189700,34.34618969726562,-5.384449005126953,-7.052246570587158,3.607778310775757
1781554598652704800,34.39470483398438,-7.101299285888672,-17.923139572143555,0.08195417374372482
1781554598701219800,34.4432197265625,-4.792225360870361,-15.653247833251953,-0.4456632137298584
1781554598749734700,34.49173461914062,-0.7235297560691833,-4.840979099273682,-1.1392827033996582
1781554598798249700,34.54024975585938,0.9538389444351196,-3.2180473804473877,-2.3300111293792725
1781554598846764500,34.5887646484375,0.32602208852767944,-6.227321147918701,-1.609771490097046
1781554598895279600,34.63727954101562,1.6456637382507324,-9.999007225036621,0.5611169338226318
1781554598943794400,34.68579443359375,0.35802608728408813,-10.692626953125,-4.473381996154785
1781554598992309500,34.7343095703125,0.028115665540099144,-13.38006591796875,-2.0811574459075928
1781554599040824300,34.78282421875,-0.2554338276386261,-19.35943031311035,-0.16809579730033875
1781554599089339400,34.83133935546875,-2.8313074111938477,-9.300004005432129,-2.3874387741088867
1781554599137854200,34.879854248046875,-1.9782661199569702,-11.646466255187988,3.108874797821045
1781554599186369300,34.928369384765624,0.4208376705646515,-7.5942206382751465,2.2785654067993164
1781554599234884000,34.97688403320313,-0.020338991656899452,-8.032705307006836,0.07387840002775192
1781554599283399200,35.025399169921876,-1.8059829473495483,-7.1509504318237305,0.638584554195404
1781554599331914000,35.0739140625,-2.306680917739868,-6.998707294464111,0.134297177195549
1781554599380429000,35.12242895507813,-1.0791629552841187,-10.166504859924316,0.9876375198364258
1781554599428944000,35.17094384765625,-0.6774678826332092,-9.641579627990723,1.355234980583191
1781554599477459000,35.219458984375,0.7148557901382446,-7.313064098358154,-2.9506494998931885
1781554599525973800,35.26797387695313,-1.0142576694488525,-13.649558067321777,-4.3085761070251465
1781554599574488800,35.31648876953125,-3.6248271465301514,-11.123334884643555,1.3812568187713623
1781554599623003600,35.36500366210937,-4.847260475158691,-4.768596649169922,4.720440864562988
1781554599671518700,35.41351879882812,-6.482754707336426,-18.821943283081055,0.0364905446767807
1781554599720033800,35.46203369140625,-4.67078971862793,-11.774481773376465,0.4905286431312561
1781554599768548600,35.510548583984374,-0.14386846125125885,-4.268496513366699,-2.7478578090667725
1781554599817063700,35.55906372070312,0.7666005492210388,-5.958726406097412,-1.6408780813217163
1781554599865578500,35.60757861328125,0.6801598072052002,-7.28883695602417,0.44805604219436646
1781554599914093600,35.656093505859374,1.1874382495880127,-8.610273361206055,0.6514459848403931
1781554599962608400,35.7046083984375,0.5757729411125183,-11.947064399719238,-4.7350969314575195
1781554600011123500,35.75312353515625,-0.5470590591430664,-15.632309913635254,-0.542572557926178
1781554600059638300,35.80163818359375,-1.0205388069152832,-17.354843139648438,3.1289145946502686
1781554600108153300,35.8501533203125,-4.2006001472473145,-9.239884376525879,-0.91914302110672
1781554600156668200,35.89866821289063,-1.1629117727279663,-10.293025970458984,4.797011375427246
1781554600205183200,35.947183349609375,0.6505486369132996,-7.971987724304199,-0.031405795365571976
1781554600253698000,35.99569799804687,-1.5128620862960815,-7.133004188537598,0.5252245664596558
1781554600302213000,36.04421313476563,-1.0704890489578247,-6.528517246246338,1.480259895324707
1781554600350728200,36.092728271484376,-1.4877375364303589,-8.58185863494873,1.9555343389511108
1781554600399243000,36.14124291992187,-1.1168500185012817,-10.04686450958252,0.6131607890129089
1781554600447758000,36.18975805664063,0.008973085321485996,-8.071588516235352,-1.241575837135315
1781554600496273200,36.238273193359376,0.050847481936216354,-9.652647018432617,-3.7372899055480957
1781554600544788000,36.2867880859375,-1.659123420715332,-13.522439002990723,-1.1662019491195679
1781554600593303000,36.33530297851563,-3.4989049434661865,-7.018148899078369,2.8241288661956787
1781554600641817900,36.38381787109375,-4.3411784172058105,-9.523433685302734,5.208277702331543
1781554600690333000,36.4323330078125,-7.5050883293151855,-19.394126892089844,0.44805604219436646
1781554600738848000,36.48084790039063,-2.5241286754608154,-9.458230018615723,-1.3127623796463013
1781554600787362800,36.52936279296875,0.5572285652160645,-3.813561201095581,-3.257229804992676
1781554600835878000,36.5778779296875,-0.09361918270587921,-6.013761520385742,-1.062413215637207
1781554600884392700,36.62639282226562,1.4054841995239258,-8.047062873840332,1.6085749864578247
1781554600932907800,36.67490771484375,1.2161520719528198,-8.847162246704102,-0.7716853022575378
1781554600981422800,36.7234228515625,-0.3888336718082428,-13.422239303588867,-4.651647090911865
1781554601029937700,36.77193774414062,0.025423740968108177,-18.625133514404297,0.9236295223236084
1781554601078452700,36.82045263671875,-1.0636097192764282,-13.090235710144043,1.5436697006225586
1781554601126967600,36.868967529296874,-3.514458179473877,-10.229616165161133,0.3678964674472809
1781554601175482600,36.91748266601562,-0.6783652305603027,-8.211568832397461,4.319941997528076
1781554601223997400,36.96599755859375,0.41186460852622986,-8.791230201721191,0.5659025311470032
1781554601272512500,37.014512451171875,-1.7303098440170288,-7.21316385269165,0.916451096534729
1781554601321027600,37.06302758789062,-1.698604941368103,-6.454041004180908,1.5340983867645264
1781554601369542400,37.11154248046875,-1.1820544004440308,-8.669495582580566,1.5954145193099976
1781554601418057500,37.160057373046875,-1.2915260791778564,-9.226723670959473,0.5485545992851257
1781554601466572500,37.208572509765624,0.4668995141983032,-8.236693382263184,-1.0630114078521729
1781554601515087400,37.25708740234375,-0.39182472229003906,-11.195119857788086,-3.5443685054779053
1781554601563602400,37.3056025390625,-2.5435705184936523,-13.334602355957031,0.24825534224510193
1781554601612117500,37.354117431640624,-3.2554352283477783,-5.429912567138672,3.7893338203430176
1781554601660632300,37.40263232421875,-3.683152198791504,-11.2037935256958,3.7842490673065186
1781554601709147400,37.4511474609375,-7.017849922180176,-17.974584579467773,0.2793620526790619
1781554601757662200,37.499662109375,-2.552842617034912,-7.899604797363281,-1.1371889114379883
1781554601806177300,37.54817724609375,0.5237290859222412,-5.336293697357178,-1.9851454496383667
1781554601854692400,37.5966923828125,-0.4205385744571686,-7.0328049659729,-1.0992028713226318
1781554601903207400,37.64520751953125,1.4934204816818237,-8.231907844543457,1.3184453248977661
1781554601951722200,37.69372216796875,1.042074203491211,-8.93838882446289,-2.126920223236084
1781554602000237300,37.7422373046875,-0.19172491133213043,-13.8251314163208,-3.105883836746216
1781554602048752000,37.790752197265626,-0.6771687865257263,-19.315162658691406,1.215852975845337
1781554602097267200,37.83926708984375,-2.2274186611175537,-9.805487632751465,0.5593222975730896
1781554602145782300,37.8877822265625,-2.86061954498291,-12.209976196289062,3.772284984588623
1781554602194297000,37.936297119140626,-0.7483552694320679,-7.767401218414307,3.3535408973693848
1781554602242812200,37.984812255859374,0.5108676552772522,-7.932207107543945,0.4570291340351105
1781554602291327200,38.0333271484375,-1.495813250541687,-7.3776702880859375,1.7629120349884033
1781554602339842000,38.081842041015626,-1.7697914838790894,-6.9720869064331055,1.734497308731079
1781554602388357000,38.130357177734375,-1.036391258239746,-8.822636604309082,0.24616162478923798
1781554602436872200,38.1788720703125,-1.0821540355682373,-9.677172660827637,-0.3613162338733673
1781554602485387000,38.22738696289063,-0.1788634955883026,-8.721240043640137,0.23300109803676605
1781554602533902000,38.275902099609375,-0.043968115001916885,-10.261919021606445,-3.274876832962036
1781554602582417200,38.324417236328124,-1.9579271078109741,-14.273186683654785,-1.1922239065170288
1781554602630932200,38.37293212890625,-3.5727832317352295,-8.090731620788574,3.463012456893921
1781554602679447000,38.421447021484376,-4.091128349304199,-7.181159973144531,5.820540904998779
1781554602727962000,38.469962158203124,-6.820741176605225,-18.01077651977539,0.8575277924537659
1781554602776477000,38.51847680664063,-2.064706802368164,-9.386744499206543,-2.043769598007202
1781554602824992000,38.566991943359376,0.17766708135604858,-4.847559452056885,-2.6341986656188965
1781554602873507000,38.615507080078125,-0.14027923345565796,-7.193722248077393,-0.4097708761692047
1781554602922022000,38.66402197265625,0.6879364848136902,-7.976773262023926,1.4862419366836548
1781554602970537000,38.71253686523438,1.456331729888916,-8.61475944519043,-1.0824531316757202
1781554603019051800,38.7610517578125,-0.11036894470453262,-13.379467964172363,-4.4961137771606445
1781554603067566800,38.80956689453125,0.2964109182357788,-16.289737701416016,1.3692927360534668
1781554603116082000,38.85808203125,-1.0818549394607544,-14.363815307617188,1.8323038816452026
1781554603164597000,38.906596923828126,-3.355933666229248,-9.999007225036621,-0.6795616149902344
1781554603213111800,38.95511181640625,-1.0630114078521729,-9.47647476196289,5.156233787536621
1781554603261627000,39.003626953125,0.8476574420928955,-8.535497665405273,-0.07238288223743439
1781554603310141700,39.0521416015625,-2.0144574642181396,-7.878966808319092,1.1931211948394775
1781554603358656800,39.10065673828125,-1.578664779663086,-6.652346134185791,1.6555341482162476
1781554603407171800,39.149171875,-1.2379865646362305,-8.32133960723877,1.4315061569213867
1781554603455687000,39.19768701171875,-1.3743774890899658,-9.251250267028809,0.5587241053581238
1781554603504201700,39.24620166015625,-0.20069800317287445,-8.197511672973633,0.3729812204837799
1781554603552716800,39.294716796875,0.06939185410737991,-9.569794654846191,-3.3433713912963867
1781554603601232000,39.34323193359375,-1.9606190919876099,-14.026726722717285,-1.2747762203216553
1781554603649746700,39.39174658203125,-3.727419376373291,-9.020044326782227,2.7101707458496094
1781554603698261800,39.44026171875,-3.2910284996032715,-5.7257256507873535,6.079265117645264
1781554603746776800,39.48877685546875,-6.771986961364746,-18.96969985961914,0.3284149169921875
1781554603795292000,39.5372919921875,-3.3984062671661377,-10.366604804992676,-0.9684949517250061
1781554603843806700,39.585806640625,0.357128769159317,-4.441976070404053,-1.933998942375183
1781554603892321800,39.63432177734375,0.134297177195549,-6.288337707519531,-0.654137909412384
1781554603940836900,39.6828369140625,0.5132604837417603,-8.397910118103027,1.3899308443069458
1781554603989351700,39.7313515625,1.0507482290267944,-9.39153003692627,0.14775680005550385
1781554604037866800,39.77986669921875,0.35473597049713135,-12.608380317687988,-4.18983268737793
1781554604086381800,39.8283818359375,0.259621262550354,-14.697315216064453,-0.7417750358581543
1781554604134897000,39.87689697265625,-1.0199406147003174,-16.792829513549805,2.872882604598999
1781554604183411700,39.92541162109375,-3.804887056350708,-9.223434448242188,-0.1543370634317398
1781554604231926800,39.9739267578125,-1.7796618938446045,-10.13898754119873,5.143073081970215
1781554604280441900,40.02244189453125,0.5688936114311218,-8.567800521850586,1.2221341133117676
1781554604328956700,40.070956787109374,-0.8961120843887329,-7.0271220207214355,0.7576274871826172
1781554604377471700,40.1194716796875,-1.5906288623809814,-6.412166595458984,1.6304094791412354
1781554604425986800,40.16798681640625,-1.4177473783493042,-8.039285659790039,1.2843475341796875
1781554604474502000,40.216501953125,-0.981655478477478,-9.12831974029541,0.4734797775745392
1781554604523017000,40.26501684570312,-0.7181459069252014,-9.382855415344238,0.11934202909469604
1781554604571531800,40.31353173828125,0.26620152592658997,-9.36042308807373,-2.303689956665039
1781554604620046800,40.362046875,-1.332802176475525,-13.239487648010254,-1.1201400756835938
1781554604668562000,40.41056201171875,-2.241476535797119,-11.260324478149414,1.5897315740585327
1781554604717077000,40.45907690429687,-3.486940860748291,-4.017848491668701,4.290630340576172
1781554604765592000,40.50759204101563,-5.990431308746338,-15.483057975769043,0.8392825126647949
1781554604814107000,40.55610693359375,-5.3614182472229,-14.820545196533203,2.246262311935425
1781554604862622000,40.6046220703125,-0.804885745048523,-6.82223653793335,-0.8584251403808594
1781554604911137000,40.65313696289063,0.6885347366333008,-5.414060115814209,-1.311864972114563
1781554604959652000,40.701652099609376,-0.2356930375099182,-6.536593437194824,-0.21954147517681122
1781554605008167000,40.7501669921875,0.7782655358314514,-8.23549747467041,1.2625130414962769
1781554605056682000,40.79868188476563,0.5341976284980774,-10.947163581848145,-2.3437697887420654
1781554605105197000,40.84719702148438,0.5264210104942322,-13.31157112121582,-2.314457654953003
1781554605153712000,40.895712158203125,-1.0013962984085083,-18.961923599243164,3.0131618976593018
1781554605202227200,40.94422729492187,-2.8824539184570312,-8.474480628967285,-1.0268200635910034
1781554605250742000,40.99274194335938,-2.841775894165039,-13.005887985229492,5.416752338409424
1781554605299257000,41.041257080078125,0.4181457459926605,-8.968598365783691,1.461416482925415
1781554605347772200,41.089772216796874,-0.6708876490592957,-7.147959232330322,0.8333004713058472
1781554605396287200,41.13828735351562,-1.2822538614273071,-6.594918251037598,1.8287147283554077
1781554605444802300,41.18680224609375,-1.7123637199401855,-7.177271366119385,1.9307087659835815
1781554605493317400,41.2353173828125,-0.7666005492210388,-9.435796737670898,0.8703892230987549
1781554605541832400,41.28383251953125,-0.6927221417427063,-9.155837059020996,0.5473581552505493
1781554605590347500,41.33234741210938,0.41216370463371277,-8.511868476867676,-2.8695926666259766
1781554605638862600,41.38086254882813,-1.0686944723129272,-13.383056640625,-1.6866408586502075
1781554605687377400,41.42937744140625,-2.5848467350006104,-10.895119667053223,1.311864972114563
1781554605735892500,41.477892578125,-3.7322051525115967,-4.484747886657715,4.617549419403076
1781554605784407600,41.52640747070313,-5.8357954025268555,-16.372291564941406,1.908874273300171
1781554605832922600,41.574922607421875,-5.564209938049316,-15.058930397033691,1.6791633367538452
1781554605881437700,41.623437744140624,-0.8356932997703552,-5.703890800476074,-2.417349100112915
1781554605929952800,41.67195288085937,0.8653044700622559,-5.294718265533447,-1.5254244804382324
1781554605978467800,41.7204677734375,0.14027923345565796,-7.108777046203613,0.41904306411743164
1781554606026983000,41.76898291015625,1.139880895614624,-8.135297775268555,2.0955145359039307
1781554606075497700,41.81749780273437,0.5572285652160645,-10.432706832885742,-2.715853691101074
1781554606124013000,41.86601293945313,-0.5386841893196106,-14.022239685058594,-2.7122645378112793
1781554606172527900,41.91452783203125,0.3400799036026001,-20.285751342773438,3.5039896965026855
1781554606221043000,41.96304296875,-2.8462624549865723,-7.9351983070373535,-0.5168496966362
1781554606269558000,42.01155810546875,-2.196312189102173,-11.68594741821289,3.799204111099243
1781554606318073000,42.06007299804688,-0.3152543902397156,-8.34736156463623,1.6396816968917847
1781554606366588200,42.108588134765625,-0.8207381963729858,-7.859824180603027,0.6164509057998657
1781554606415103200,42.157103271484374,-1.1482558250427246,-7.130013465881348,1.791925072669983
1781554606463618300,42.20561840820312,-1.4778671264648438,-7.405487060546875,1.9316060543060303
1781554606512133400,42.25413330078125,-1.4518451690673828,-8.595317840576172,1.6857435703277588
1781554606560648400,42.3026484375,-1.0441679954528809,-9.317651748657227,1.9695920944213867
1781554606609163500,42.35116357421875,0.9723833203315735,-8.049455642700195,-1.6061822175979614
1781554606657678600,42.3996787109375,-0.6352944374084473,-11.647662162780762,-3.290729284286499
1781554606706193700,42.44819360351563,-2.6249263286590576,-12.674482345581055,0.9128618240356445
1781554606754708700,42.496708740234375,-3.340081214904785,-5.703890800476074,4.191328048706055
1781554606803223800,42.54522387695312,-5.046164035797119,-12.320045471191406,3.6993038654327393
1781554606851739000,42.59373876953125,-6.6744794845581055,-16.753347396850586,1.8203397989273071
1781554606900254000,42.64225390625,-1.929213285446167,-7.860422611236572,-1.5699907541275024
1781554606948769000,42.69076904296875,0.8087740540504456,-5.561218738555908,-1.40279221534729
1781554606997284000,42.7392841796875,-0.14715859293937683,-7.065706253051758,0.20398813486099243
1781554607045799200,42.78779907226563,0.9511470198631287,-8.161619186401367,1.7201403379440308
1781554607094314200,42.836314208984376,0.870090126991272,-9.334999084472656,-1.158724308013916
1781554607142829300,42.884829345703125,-0.29371899366378784,-13.59900951385498,-3.2793633937835693
1781554607191344400,42.93334448242187,1.6962121725082397,-14.725729942321777,0.5676971673965454
1781554607239859500,42.981859375,-1.7620147466659546,-13.694422721862793,0.916451096534729
1781554607288374500,43.03037451171875,-3.3388848304748535,-11.37069320678711,1.4105689525604248
1781554607336889600,43.0788896484375,-1.4536397457122803,-9.111868858337402,4.056432723999023
1781554607385404700,43.12740478515625,0.6293123364448547,-9.053842544555664,0.8249256014823914
1781554607433919700,43.17591967773438,-1.0345966815948486,-6.870092868804932,0.7016952633857727
1781554607482434800,43.224434814453126,-1.6193426847457886,-6.085546016693115,2.1705892086029053
1781554607530950100,43.2729501953125,-1.374078392982483,-8.47896671295166,1.2864413261413574
1781554607579465200,43.32146533203125,-1.495514154434204,-9.75643539428711,-0.07088737189769745
1781554607627980300,43.36998022460938,-0.27308088541030884,-8.991629600524902,1.3782658576965332
1781554607676495400,43.41849536132813,0.4001995921134949,-10.239486694335938,-2.155334949493408
1781554607725010400,43.467010498046875,-0.7824530005455017,-13.559527397155762,-1.9432710409164429
1781554607822040600,43.56404052734375,-3.9086756706237793,-3.611666679382324,4.318147659301758
1781554607870555600,43.6125556640625,-6.879963397979736,-17.48375701904297,2.497807741165161
1781554607919070700,43.66107080078125,-4.569693088531494,-13.701900482177734,0.9385846853256226
1781554607967585800,43.70958569335937,-0.004187439568340778,-3.9825541973114014,-2.580958366394043
1781554608016100900,43.75810083007813,1.2625130414962769,-6.833003997802734,-0.7519445419311523
1781554608064616200,43.8066162109375,0.44327038526535034,-8.149056434631348,0.5653043389320374
1781554608113131300,43.85513134765625,1.069591760635376,-8.030611991882324,0.8937192559242249
1781554608161646300,43.90364624023437,0.5258227586746216,-11.724532127380371,-3.881756544113159
1781554608210161400,43.95216137695313,-0.29790642857551575,-14.641083717346191,-2.1361923217773438
1781554608258676500,44.00067651367188,0.39900317788124084,-17.517255783081055,2.4095723628997803
1781554608355706600,44.09770654296875,-2.4059832096099854,-9.436395645141602,2.217548370361328
1781554608404221700,44.1462216796875,-0.8422735929489136,-9.145368576049805,1.986341953277588
1781554608452737000,44.19473706054688,-0.030508488416671753,-7.996514320373535,0.4695914387702942
1781554608501252000,44.243252197265626,-1.013061285018921,-7.323832035064697,2.334796667098999
1781554608549767200,44.29176708984375,-0.9631111025810242,-7.429116249084473,1.5329020023345947
1781554608598282200,44.3402822265625,-1.308574914932251,-8.72183895111084,0.17617157101631165
1781554608646797300,44.38879736328125,-1.0809576511383057,-9.489336013793945,0.5416752099990845
1781554608695312400,44.4373125,0.388235479593277,-8.475378036499023,-1.0402796268463135
1781554608743827500,44.48582739257812,-0.7061817646026611,-11.851949691772461,-2.8002007007598877
1781554608792342500,44.53434252929687,-2.294118642807007,-12.902399063110352,0.07627122104167938
1781554608840857900,44.58285791015625,-3.226123094558716,-7.017550468444824,4.027718544006348
1781554608889373000,44.631373046875,-3.717848300933838,-7.584948539733887,4.657629489898682
1781554608937888000,44.679887939453124,-7.320541858673096,-18.399311065673828,0.885643482208252
1781554608986403000,44.72840307617187,-2.356631278991699,-9.536893844604492,-0.8757730722427368
1781554609034918100,44.77691821289063,0.841675341129303,-4.183850288391113,-2.006082773208618
1781554609083433500,44.82543359375,0.16331014037132263,-6.5389862060546875,-0.5189434289932251
1781554609131948500,44.873948486328125,0.6822535395622253,-8.638986587524414,1.3800604343414307
1781554609180463600,44.92246362304687,0.981655478477478,-9.793225288391113,-0.47198426723480225
1781554609228978700,44.97097875976562,0.14117653667926788,-12.725030899047852,-4.148257255554199
1781554609277493800,45.01949365234375,0.9068797826766968,-14.030913352966309,-0.08135596662759781
1781554609326009000,45.068009033203126,-2.224726915359497,-16.47398567199707,2.641077995300293
1781554609374524200,45.116524169921874,-2.6566312313079834,-8.664410591125488,0.06640082597732544
1781554609423039200,45.16503930664062,-1.7641085386276245,-10.139884948730469,3.965505361557007
1781554609471554300,45.21355419921875,0.3278166949748993,-9.564111709594727,0.7295117974281311
1781554609520069400,45.2620693359375,-0.8979067206382751,-7.408777236938477,1.1422736644744873
1781554609568584700,45.310584716796875,-0.8533403873443604,-6.840780735015869,3.235694408416748
1781554609617099800,45.35909985351562,-1.48055899143219,-7.908876895904541,1.5032907724380493
1781554609665614800,45.40761474609375,-1.252044439315796,-8.998807907104492,0.07328019291162491
1781554609714130000,45.4561298828125,0.03768695518374443,-8.72901725769043,-0.8377870321273804
1781554609762645200,45.504645263671875,-0.19322042167186737,-10.525727272033691,-3.009572744369507
1781554609811160300,45.553160400390624,-2.0084755420684814,-13.769497871398926,-0.5060819983482361
1781554609859675400,45.60167529296875,-2.966202735900879,-7.203592777252197,3.9218363761901855
1781554609908190500,45.6501904296875,-2.8737800121307373,-5.841777324676514,4.659124851226807
1781554609956705500,45.69870556640625,-6.811768054962158,-20.10030746459961,-0.3849453330039978
1781554610005220900,45.747220947265625,-4.351347923278809,-11.915658950805664,0.09451649338006973
1781554610053736000,45.79573583984375,0.31405797600746155,-3.8560338020324707,-1.7548363208770752
1781554610102251000,45.8442509765625,0.31405797600746155,-5.974279880523682,-0.981655478477478
1781554610150766000,45.89276611328125,1.1303095817565918,-7.944769382476807,0.4205385744571686
1781554610199281200,45.94128125,1.6707884073257446,-8.7236328125,0.4624129831790924
1781554610247796500,45.98979638671875,0.5982056856155396,-11.988639831542969,-3.5958142280578613
1781554610296311600,46.0383115234375,0.8464609980583191,-14.318052291870117,0.16719847917556763
1781554610344826600,46.08682666015625,-1.9986051321029663,-17.571393966674805,2.4993033409118652
1781554610393341700,46.135341796875,-2.953341245651245,-9.32004451751709,-0.31345975399017334
1781554610441857000,46.18385693359375,-1.389631748199463,-10.069596290588379,5.0958147048950195
1781554610490372000,46.2323720703125,0.6813562512397766,-9.539586067199707,0.7591229677200317
1781554610538887200,46.28088720703125,-1.1407781839370728,-7.127620220184326,1.3061820268630981
1781554610587402200,46.32940234375,-1.322333574295044,-6.214160442352295,3.219542980194092
1781554610635917600,46.37791748046875,-1.308574914932251,-8.34736156463623,1.2179467678070068
1781554610684432600,46.4264326171875,-1.0878369808197021,-9.399007797241211,-0.4082753658294678
1781554610732947700,46.47494775390625,-0.16480566561222076,-8.594719886779785,0.4713860750198364
1781554610781463000,46.52346313476563,0.3454637825489044,-8.746066093444824,-3.3981072902679443
1781554610829978000,46.57197802734375,-1.688734531402588,-13.878670692443848,-1.296610713005066
1781554610878493200,46.6204931640625,-3.0562326908111572,-9.03799057006836,3.384049415588379
1781554610927008300,46.66900830078125,-3.6610186100006104,-5.6222357749938965,6.345167636871338
1781554610975523600,46.71752368164063,-7.086643218994141,-21.216859817504883,-0.5712863802909851
1781554611024038700,46.76603857421875,-4.325026988983154,-11.519646644592285,-0.8171489238739014
1781554611072553700,46.8145537109375,0.39062830805778503,-3.366103172302246,-2.022533416748047
1781554611121068800,46.86306884765625,1.6710875034332275,-5.403890609741211,-0.4166502356529236
1781554611169584000,46.91158422851562,0.6538388133049011,-7.340282440185547,0.750449001789093
1781554611218099200,46.96009912109375,1.540379524230957,-9.176474571228027,0.20817556977272034
1781554611266614300,47.0086142578125,0.4612165689468384,-12.800106048583984,-3.985246181488037
1781554611315129600,47.057129638671874,0.5147559642791748,-13.753944396972656,-0.97926265001297
1781554611363644700,47.10564477539062,-0.36670008301734924,-18.6344051361084,1.4874383211135864
1781554611412159700,47.15415966796875,-3.88594388961792,-10.02712345123291,0.9993025660514832
1781554611460674800,47.2026748046875,-1.1198409795761108,-9.534201622009277,4.436592102050781
1781554611509190100,47.251190185546875,-0.31465616822242737,-8.467900276184082,1.649253010749817
1781554611557705200,47.29970532226562,-0.2587239444255829,-7.665706634521484,0.6658028960227966
1781554611606220300,47.34822021484375,-1.3070793151855469,-6.342475414276123,2.8435707092285156
1781554611654735600,47.39673559570313,-1.6103696823120117,-7.274479866027832,2.077867269515991
1781554611703250700,47.445250732421876,-1.0013962984085083,-9.43310546875,0.11485548317432404
1781554611751765800,47.493765869140624,-0.6281159520149231,-8.841180801391602,0.29760730266571045
1781554611800281000,47.54228100585937,0.4893322288990021,-8.437690734863281,-2.6204400062561035
1781554611848796200,47.59079614257813,-1.057627558708191,-13.340285301208496,-2.2809581756591797
1781554611897311200,47.63931127929688,-2.8755745887756348,-11.736495971679688,1.3803595304489136
1781554611945826600,47.68782666015625,-4.522434711456299,-3.108276605606079,5.743671417236328
1781554611994341600,47.73634155273437,-6.406782627105713,-18.758533477783203,2.513660192489624
1781554612042856700,47.78485668945312,-4.779065132141113,-14.657833099365234,1.3833506107330322
1781554612091371800,47.83337182617188,-0.633499801158905,-5.006382942199707,-2.531008243560791
1781554612139887000,47.88188720703125,0.7663014531135559,-5.681159019470215,-1.036690354347229
1781554612188402200,47.930402099609374,0.43489551544189453,-7.5535430908203125,1.3046865463256836
1781554612236917200,47.97891723632812,1.3366905450820923,-8.003393173217773,0.9122636318206787
1781554612285432600,48.0274326171875,0.714257538318634,-10.312766075134277,-4.37228536605835
1781554612333947600,48.07594775390625,0.2868396043777466,-14.236995697021484,-2.521735906600952
1781554612382462700,48.124462646484375,-0.4217349886894226,-18.288043975830078,2.614457845687866
1781554612430978000,48.17297802734375,-3.7253258228302,-10.138090133666992,0.976570725440979
1781554612479493000,48.2214931640625,-1.1718848943710327,-11.92343521118164,5.5005011558532715
1781554612528008400,48.27000854492187,-0.2952145040035248,-9.050552368164062,2.353041887283325
1781554612576523500,48.3185234375,-0.2554338276386261,-7.483253479003906,0.31495529413223267
1781554612625038600,48.36703857421875,-1.0423734188079834,-5.9575300216674805,2.3344976902008057
1781554612673553700,48.4155537109375,-1.7653049230575562,-6.260222434997559,1.576570987701416
1781554612722069000,48.46406909179687,-0.9774680733680725,-8.737990379333496,0.8799605369567871
1781554612770584000,48.512583984375,-0.7034898400306702,-9.771389961242676,1.0172487497329712
1781554612819099400,48.56109936523438,0.29371899366378784,-8.36710262298584,-2.515753984451294
1781554612867614500,48.609614501953125,-1.1386845111846924,-12.847662925720215,-2.1194427013397217
1781554612916129500,48.65812963867187,-2.4720849990844727,-11.230712890625,2.499901533126831
1781554612964644900,48.70664477539062,-3.6843485832214355,-3.9361932277679443,5.480162143707275
1781554613013160000,48.75515991210938,-6.9358954429626465,-18.671493530273438,0.8967102766036987
1781554613110190300,48.8521904296875,-1.0310074090957642,-5.3007001876831055,-2.002194404602051
1781554613158705400,48.90070532226562,0.6556333899497986,-5.019543647766113,-1.0390832424163818
1781554613207220700,48.949220703125,0.2868396043777466,-6.533003807067871,0.7160521745681763
1781554613255735800,48.99773583984375,1.7458631992340088,-7.821538925170898,1.8771693706512451
1781554613304251000,49.0462509765625,0.42801615595817566,-10.632806777954102,-3.424727439880371
1781554613352766200,49.09476611328125,0.21625134348869324,-14.685949325561523,-2.181057929992676
1781554613401281300,49.14328125,0.20937198400497437,-17.682661056518555,2.682952404022217
1781554613449796600,49.19179663085937,-3.8051862716674805,-9.875777244567871,0.4815555512905121
1781554613498311700,49.24031176757813,-1.454836130142212,-11.359027862548828,3.835096597671509
1781554613546826800,49.28882666015625,-0.3652045428752899,-8.742775917053223,2.810669183731079
1781554613595342000,49.337342041015624,0.21595224738121033,-7.951648712158203,0.42382872104644775
1781554613643857200,49.38585717773437,-1.150648593902588,-6.821638107299805,2.385344982147217
1781554613692372200,49.43437231445313,-1.8813568353652954,-6.999305248260498,3.2012975215911865
1781554613740887600,49.48288745117188,-1.0187442302703857,-9.201001167297363,0.9960124492645264
1781554613789402600,49.531402587890625,-0.5099703073501587,-8.669196128845215,0.9026923179626465
1781554613837918000,49.57991796875,0.5751747488975525,-8.360222816467285,-2.850450038909912
1781554613886433000,49.62843310546875,-1.196710467338562,-12.783355712890625,-2.0673987865448
1781554613934948400,49.6769482421875,-3.024827003479004,-10.791929244995117,2.746960401535034
1781554613983474000,49.725473876953124,-3.539881944656372,-4.231108665466309,5.783153057098389
1781554614031978500,49.773978515625,-5.280361175537109,-18.616458892822266,1.225723385810852
1781554614080493800,49.822493896484374,-6.354738712310791,-14.563615798950195,0.20997019112110138
1781554614129009000,49.8710087890625,-1.2233306169509888,-5.985944747924805,-1.8215361833572388
1781554614177524000,49.91952392578125,1.217647671699524,-5.08863639831543,-1.1482558250427246
1781554614226039300,49.96803930664063,0.6014958024024963,-6.5491557121276855,1.00259268283844
1781554614274554600,50.0165546875,1.8565312623977661,-8.308777809143066,1.9148563146591187
1781554614323069700,50.065069580078124,0.6813562512397766,-10.506585121154785,-2.421536445617676
1781554614371584800,50.11358471679687,0.5826523303985596,-14.245370864868164,-1.8442680835723877
1781554614420100000,50.16210009765625,-0.6574280261993408,-17.720645904541016,2.6937201023101807
1781554614468615200,50.210615234375,-3.6768710613250732,-9.806983947753906,0.9445667266845703
1781554614517130200,50.259130126953124,-1.0103694200515747,-10.605887413024902,4.235296249389648
1781554614565645600,50.3076455078125,-0.20488543808460236,-9.915258407592773,2.644667148590088
1781554614614160600,50.35616064453125,-0.11306086927652359,-8.110173225402832,0.5138586759567261
1781554614662676000,50.40467602539063,-1.3911272287368774,-6.922435760498047,2.7723841667175293
1781554614711191000,50.45319091796875,-1.4018949270248413,-7.648059368133545,3.1417760848999023
1781554614759706400,50.501706298828125,-1.0770692825317383,-8.606085777282715,0.7277171611785889
1781554614808221400,50.550221435546874,-0.6837490797042847,-8.562715530395508,0.26081767678260803
1781554614856736800,50.59873681640625,0.7172485589981079,-7.795815944671631,-2.5283162593841553
1781554614905251800,50.647251953125,-0.9649057388305664,-13.045668601989746,-2.0333011150360107
1781554614953767200,50.69576708984375,-2.646162748336792,-12.18365478515625,1.542473316192627
1781554615002282200,50.7442822265625,-3.879363775253296,-4.6423749923706055,5.450251579284668
1781554615050797300,50.79279736328125,-6.165107727050781,-16.421045303344727,1.9214365482330322
1781554615099312600,50.84131274414062,-5.535795211791992,-14.81815242767334,1.6169499158859253
1781554615147827700,50.88982763671875,-1.0019944906234741,-5.85075044631958,-1.9441684484481812
1781554615196343000,50.93834301757813,1.222732424736023,-5.248058319091797,-1.48055899143219
1781554615244858000,50.986858154296876,0.24586252868175507,-7.133602619171143,0.41096729040145874
1781554615293373400,51.03537353515625,1.5589239597320557,-8.563314437866211,1.6998014450073242
1781554615341888500,51.08388842773437,0.7983054518699646,-10.476973533630371,-2.4293131828308105
1781554615390403800,51.13240380859375,0.16719847917556763,-13.8849515914917,-2.3539392948150635
1781554615438919000,51.1809189453125,0.9936196208000183,-17.058433532714844,1.5065809488296509
1781554615487434000,51.22943408203125,-3.6349966526031494,-10.950753211975098,0.8183453679084778
1781554615535949300,51.27794921875,-2.3443679809570312,-11.547163963317871,3.313162088394165
1781554615584464400,51.32646435546875,-0.4573282301425934,-8.661419868469238,3.730410575866699
1781554615632979700,51.37497973632812,0.30179476737976074,-8.408976554870605,1.6013965606689453
1781554615681494800,51.42349487304688,-0.48454657196998596,-6.5419769287109375,0.859621524810791
1781554615730010000,51.472010009765626,-2.4029922485351562,-6.665207386016846,2.6865415573120117
1781554615778525200,51.520525146484374,-1.0671988725662231,-9.05862808227539,0.7238288521766663
1781554615827040500,51.56904052734375,-0.8192426562309265,-9.166006088256836,0.15553347766399384
1781554615875555600,51.6175556640625,0.26111677289009094,-8.559126853942871,-0.22073788940906525
1781554615924071000,51.66607080078125,-0.29341986775398254,-11.609078407287598,-2.505584478378296
1781554615972586000,51.7145859375,-1.7072789669036865,-12.918848991394043,0.1737787425518036
1781554616021101300,51.763101318359375,-3.424727439880371,-6.696014881134033,3.7139599323272705
1781554616069616400,51.81161645507812,-4.322634220123291,-7.685148239135742,5.164907455444336
1781554616118131700,51.86013159179687,-6.822535514831543,-19.236499786376953,0.5318048596382141
1781554616166646800,51.90864672851563,-2.412264347076416,-10.772188186645508,-1.098903775215149
1781554616215162000,51.957162109375,0.7004988193511963,-4.862514495849609,-1.5601203441619873
1781554616263677200,52.00567724609375,0.4815555512905121,-6.80877685546875,-0.03529413416981697
1781554616312192500,52.054192626953125,0.9149555563926697,-7.537092208862305,1.3746765851974487
1781554616360707600,52.10270751953125,0.8662018179893494,-8.687142372131348,-0.6936194896697998
1781554616409222700,52.15122265625,-0.1537388563156128,-12.658928871154785,-3.7567315101623535
1781554616457738000,52.19973803710938,0.5057829022407532,-14.053047180175781,0.5928218364715576
1781554616506253000,52.248253173828125,-0.5892325639724731,-17.069799423217773,2.3219351768493652
1781554616554768400,52.296768310546874,-3.628117322921753,-9.608379364013672,0.5210371017456055
1781554616603283500,52.34528344726562,-1.5822539329528809,-9.21117115020752,5.101198673248291
1781554616651798800,52.393798828125,0.6903293132781982,-8.975478172302246,0.5216353535652161
1781554616700314000,52.44231420898438,-1.1497513055801392,-7.955836296081543,0.916451096534729
1781554616748829200,52.4908291015625,-1.397408366203308,-6.50907564163208,2.261516571044922
1781554616797344300,52.53934423828125,-1.2523435354232788,-7.847261905670166,2.0315065383911133
1781554616845859600,52.58785961914062,-1.4330016374588013,-8.758329391479492,0.46360939741134644
1781554616894374700,52.63637475585937,-0.8955138921737671,-9.582656860351562,1.048953652381897
1781554616942890000,52.68488989257813,0.9239286184310913,-9.675378799438477,-2.1807587146759033
1781554616991405000,52.733405029296875,-0.664606511592865,-13.98365592956543,-2.6015963554382324
1781554617039920400,52.78192041015625,-3.8407795429229736,-11.180763244628906,0.8682954907417297
1781554617088435500,52.830435546875,-3.5895330905914307,-3.1483564376831055,6.43968391418457
1781554617136950800,52.87895068359375,-6.653243541717529,-17.735301971435547,2.2504496574401855
1781554617185465900,52.9274658203125,-4.802993297576904,-13.24726390838623,2.3336002826690674
1781554617233981200,52.97598120117188,-0.08793623000383377,-4.125824451446533,-1.8604196310043335
1781554617282496300,53.024496337890625,0.6089733839035034,-5.228915691375732,-1.4446666240692139
1781554617331011600,53.07301147460937,0.3128615617752075,-7.722835063934326,0.5985047817230225
1781554617379527000,53.12152685546875,1.179063320159912,-8.678169250488281,1.2317054271697998
1781554617428042000,53.1700419921875,0.5455635786056519,-11.529815673828125,-3.8949170112609863
1781554617476557000,53.21855712890625,-0.4133601188659668,-15.172289848327637,-2.1113669872283936
1781554617525072400,53.267072265625,0.8862416744232178,-17.77328872680664,1.6947166919708252
1781554617573587500,53.31558740234375,-3.2467613220214844,-9.50758171081543,1.6636099815368652
1781554617622102800,53.36410278320312,-1.7685949802398682,-9.443573951721191,3.2033913135528564
1781554617670617900,53.41261791992188,-0.7372884750366211,-9.715457916259766,2.276770830154419
1781554617719133200,53.46113330078125,0.2470589429140091,-8.370990753173828,0.23988047242164612
1781554617767648300,53.509648193359375,-1.6313068866729736,-6.9481587409973145,2.3249263763427734
1781554617816163600,53.55816357421875,-1.4452649354934692,-6.9481587409973145,2.084148406982422
1781554617864678700,53.6066787109375,-1.3722838163375854,-8.847761154174805,1.31156587600708
1781554617913194000,53.65519409179687,-1.2379865646362305,-9.615557670593262,1.1228320598602295
1781554617961709300,53.70370922851563,0.7187440991401672,-7.963313579559326,-0.3888336718082428
1781554618010224400,53.752224365234376,-0.5428716540336609,-11.504990577697754,-3.2760732173919678
1781554618058739700,53.80073974609375,-2.761317253112793,-13.84247875213623,-0.12831512093544006
1781554618107254800,53.8492548828125,-3.5982069969177246,-6.225526332855225,3.971487283706665
1781554618155770000,53.89777001953125,-3.6822550296783447,-8.588139533996582,5.305186748504639
1781554618204285200,53.94628515625,-6.8252272605896,-18.664615631103516,0.3370888829231262
1781554618252800500,53.99480053710938,-2.4939193725585938,-9.045467376708984,-1.7066807746887207
1781554618301315600,54.043315673828126,0.6768696904182434,-4.909174919128418,-1.4207384586334229
1781554618349830700,54.09183056640625,0.3442673683166504,-6.419643878936768,0.008973085321485996
1781554618398346000,54.14034594726562,0.8808578252792358,-7.769495010375977,1.5227324962615967
1781554618446861000,54.18886108398438,0.7289136052131653,-9.36760139465332,-1.176371455192566
1781554618495376400,54.23737646484375,-0.21355941891670227,-13.419548034667969,-2.9715867042541504
1781554618543891700,54.2858916015625,1.6079767942428589,-13.805988311767578,0.5081757307052612
1781554618592406800,54.33440673828125,-2.0829520225524902,-15.319448471069336,2.1843478679656982
1781554618640922000,54.38292211914062,-2.921337366104126,-10.515857696533203,0.5509474277496338
1781554618689437200,54.43143725585937,-1.6872390508651733,-9.508777618408203,5.075775146484375
1781554618737952500,54.47995239257813,0.7698906660079956,-9.193822860717773,0.32602208852767944
1781554618786467600,54.528467529296876,-1.4446666240692139,-7.388737201690674,1.6277176141738892
1781554618834983000,54.57698291015625,-1.064207911491394,-6.27487850189209,2.5465614795684814
1781554618883498000,54.625498046875,-1.593919038772583,-8.13260555267334,1.2191431522369385
1781554618932013300,54.67401342773437,-1.4273186922073364,-9.69631576538086,0.8769695162773132
1781554618980528400,54.7225283203125,-0.3038884699344635,-9.05563735961914,1.189831018447876
1781554619029043700,54.77104370117188,0.5380859971046448,-9.251849174499512,-2.8977081775665283
1781554619077558800,54.819558837890625,-1.2490534782409668,-13.546965599060059,-1.5595221519470215
1781554619126074000,54.86807421875,-3.954737663269043,-11.191231727600098,1.7024933099746704
1781554619174589200,54.91658911132812,-4.088436603546143,-3.662813186645508,5.8337016105651855
1781554619223104500,54.9651044921875,-6.631109714508057,-16.778173446655273,2.3045873641967773
1781554619271619800,55.01361987304688,-4.243371963500977,-12.976875305175781,1.2134602069854736
1781554619320135000,55.062135009765626,-0.09062815457582474,-4.955535888671875,-2.092822551727295
1781554619368650200,55.110650146484375,0.4336991012096405,-6.760322093963623,-1.0857433080673218
1781554619417165300,55.15916528320312,0.09481559693813324,-7.569993495941162,0.9963115453720093
1781554619465680600,55.2076806640625,0.9984052777290344,-7.963912010192871,0.9735797047615051
1781554619514195700,55.25619580078125,0.44297128915786743,-11.051251411437988,-2.783750057220459
1781554619562711000,55.3047109375,-0.17527425289154053,-14.959030151367188,-1.7629120349884033
1781554619611226000,55.35322607421875,1.32921302318573,-14.654542922973633,1.042074203491211
1781554619659741400,55.401741455078124,-2.789433002471924,-12.429516792297363,1.4985052347183228
1781554619708256500,55.45025659179687,-2.4472594261169434,-10.393524169921875,2.5546371936798096
1781554619756771800,55.49877172851563,-0.9993025660514832,-7.9845499992370605,3.7393836975097656
1781554619805287000,55.547286865234376,0.38673996925354004,-9.28564739227295,-0.1537388563156128
1781554619853802200,55.59580224609375,-1.710569143295288,-7.679165840148926,0.9625129103660583
1781554619902317300,55.6443173828125,-1.373480200767517,-7.392326354980469,1.4500504732131958
1781554619950832600,55.69283251953125,-0.5228317379951477,-8.587541580200195,1.2831511497497559
1781554619999347700,55.74134765625,-0.8668000102043152,-8.640482902526855,0.7519445419311523
1781554620047863000,55.78986303710938,-0.2922234535217285,-8.618349075317383,0.7360920906066895
1781554620096378400,55.83837841796875,-0.4585246443748474,-10.231709480285645,-2.1876380443573
1781554620144893400,55.8868935546875,-2.2408783435821533,-13.398311614990234,-0.24017956852912903
1781554620193408800,55.93540869140625,-3.6424741744995117,-7.072585582733154,3.73459792137146
1781554620241923800,55.983923828125,-6.04247522354126,-12.23121166229248,5.187938690185547
1781554620290439200,56.03243920898438,-5.040481090545654,-15.748960494995117,2.9114668369293213
1781554620338954200,56.08095434570313,-1.1850453615188599,-7.081259727478027,-1.7084753513336182
1781554620387469600,56.129469482421875,-0.5808576941490173,-5.702993869781494,-1.9229321479797363
1781554620435984600,56.177984619140624,0.10019944608211517,-7.264011383056641,0.8781659007072449
1781554620484500000,56.2265,1.0019944906234741,-7.381259441375732,1.5652050971984863
1781554620533015000,56.27501513671875,0.22432711720466614,-9.748359680175781,-1.933998942375183
1781554620581530400,56.3235302734375,-0.4668995141983032,-12.886845588684082,-2.0018951892852783
1781554620630045400,56.37204541015625,-0.6598208546638489,-17.600706100463867,1.0106685161590576
1781554620678560800,56.420560791015625,-0.9756734371185303,-11.95035457611084,1.2577273845672607
1781554620727075800,56.46907592773437,-3.5482568740844727,-10.445268630981445,2.810669183731079
1781554620775591200,56.51759106445313,-1.2251251935958862,-9.078967094421387,3.3589248657226562
1781554620824106500,56.5661064453125,0.6661019921302795,-8.203493118286133,0.39840495586395264
1781554620872621600,56.61462158203125,-1.4374881982803345,-7.645666599273682,1.760818362236023
1781554620921137000,56.663136962890626,-1.2496516704559326,-6.567400932312012,1.8098711967468262
1781554620969652000,56.71165185546875,-1.186241865158081,-8.380561828613281,1.054337501525879
1781554621018167300,56.76016723632812,-1.4470595121383667,-9.179466247558594,1.0217353105545044
1781554621066682400,56.80868237304688,0.21355941891670227,-8.285447120666504,-0.09780662506818771
1781554621115197700,56.85719775390625,0.02841476909816265,-11.283354759216309,-3.6553356647491455
1781554621163712800,56.905712646484375,-2.9578278064727783,-14.892928123474121,-0.3978067636489868
1781554621260743200,57.0027431640625,-4.845465660095215,-9.95145034790039,6.393921375274658
1781554621309258500,57.05125854492187,-6.788437843322754,-17.851055145263672,1.9806588888168335
1781554621357773600,57.09977368164063,-1.5379867553710938,-7.876275062561035,-1.9935203790664673
1781554621406289000,57.148288818359376,0.3837489187717438,-5.033900737762451,-2.2360928058624268
1781554621454804000,57.196803955078124,0.23958136141300201,-6.692126750946045,0.633499801158905
1781554621503319300,57.2453193359375,1.074975609779358,-7.019644260406494,2.3084757328033447
1781554621551834600,57.29383471679687,0.39541393518447876,-8.906683921813965,-1.588535189628601
1781554621600349700,57.342349609375,-0.6035895347595215,-13.63908863067627,-2.6673989295959473
1781554621648865000,57.39086499023438,0.9960124492645264,-15.451053619384766,0.5691927075386047
1781554621697380000,57.439380126953125,-1.7736797332763672,-16.097713470458984,2.966202735900879
1781554621745895400,57.4878955078125,-3.553042411804199,-10.417452812194824,1.0549356937408447
1781554621794410500,57.53641040039062,-1.0091729164123535,-8.21276569366455,4.300201416015625
1781554621842925800,57.58492578125,0.6801598072052002,-9.043673515319824,1.1386845111846924
1781554621891441000,57.63344091796875,-0.5261218547821045,-6.586543560028076,0.09242277592420578
1781554621939956200,57.681956298828126,-1.7988044023513794,-6.0849480628967285,2.349153518676758
1781554621988471300,57.73047119140625,-1.592423439025879,-8.602795600891113,2.761915445327759
1781554622036986600,57.77898657226562,-1.1309077739715576,-9.748957633972168,1.0070792436599731
1781554622085501700,57.82750170898437,0.579362154006958,-8.28843879699707,0.1824527233839035
1781554622134017000,57.87601708984375,0.12203395366668701,-10.261919021606445,-3.76361083984375
1781554622182532400,57.92453247070313,-2.2034904956817627,-13.989338874816895,-0.14835500717163086
1781554622279562800,58.021562744140624,-3.995415687561035,-6.226722717285156,5.626423358917236
1781554622328077800,58.07007788085937,-7.3848490715026855,-18.49980926513672,2.7329025268554688
1781554622376593200,58.11859326171875,-3.4432718753814697,-10.880763053894043,0.7109674215316772
1781554622425108500,58.1671083984375,0.7408776879310608,-4.008575916290283,-2.5965116024017334
1781554622473623600,58.21562353515625,0.24257239699363708,-6.730710983276367,-0.9936196208000183
1781554622522139000,58.264138916015625,0.2958126962184906,-7.808976650238037,1.659422516822815
1781554622570654000,58.31265405273437,0.7522436380386353,-8.26660442352295,0.9206385016441345
1781554622619169300,58.36116918945312,0.3439682424068451,-12.820145606994629,-2.893221616744995
1781554622667684400,58.40968432617188,0.7872386574745178,-13.493724822998047,-1.3360923528671265
1781554622716199700,58.45819970703125,-0.45284169912338257,-18.836000442504883,3.5997025966644287
1781554622764714800,58.50671484375,-2.7864420413970947,-8.31535816192627,0.19770696759223938
1781554622813230000,58.55522998046875,-1.7413766384124756,-9.554540634155273,4.775176525115967
1781554622861745200,58.6037451171875,0.2667997181415558,-9.10409164428711,0.7989036440849304
1781554622910260500,58.65226049804688,-0.7313064336776733,-8.199604988098145,0.9406784176826477
1781554622958775600,58.70077563476563,-1.083350419998169,-7.2335028648376465,2.0171494483947754
1781554623007291000,58.749290771484375,-1.5176477432250977,-7.4362945556640625,2.215155601501465
1781554623055806000,58.797805908203124,-0.870090126991272,-8.83370304107666,1.3010972738265991
1781554623104321300,58.8463212890625,-0.9017950296401978,-8.550153732299805,1.1371889114379883
1781554623152836600,58.89483666992187,0.6397809386253357,-8.855537414550781,-2.3497519493103027
1781554623201351700,58.9433515625,-1.404586911201477,-13.466805458068848,-1.7306089401245117
1781554623249867000,58.991866943359376,-4.129413604736328,-12.337393760681152,1.017547845840454
1781554623298382000,59.040382080078125,-3.844069480895996,-4.990231513977051,4.817948341369629
1781554623346897400,59.0888974609375,-6.722036838531494,-15.973885536193848,3.870091438293457
1781554623395412500,59.13741259765625,-4.503890514373779,-11.859427452087402,2.1948165893554688
1781554623443927800,59.185927734375,-0.19680966436862946,-5.173880577087402,-1.4850455522537231
1781554623492443000,59.23444287109375,-0.03858426585793495,-6.472286224365234,-1.01814603805542
1781554623540958200,59.282958251953126,0.041575293987989426,-7.407580852508545,0.9155537486076355
1781554623589473300,59.331473388671874,1.0247262716293335,-7.824231147766113,1.0441679954528809
1781554623637988600,59.37998852539062,0.3885345757007599,-11.653046607971191,-3.3720853328704834
1781554623686503700,59.42850366210938,0.5440680384635925,-14.075480461120605,-1.292722463607788
1781554623735019000,59.47701904296875,0.17647066712379456,-15.475281715393066,1.0965110063552856
1781554623783534000,59.5255341796875,-2.958425998687744,-12.163315773010254,2.487638235092163
1781554623832049400,59.57404931640625,-2.507079839706421,-10.574481010437012,3.204587697982788
1781554623880564700,59.622564697265624,-0.9445667266845703,-9.289237022399902,2.7137598991394043
1781554623929079800,59.67107983398437,0.7076773047447205,-8.021040916442871,0.5566303730010986
1781554623977595100,59.71959521484375,-1.44945228099823,-6.966403961181641,2.68325138092041
1781554624026110200,59.768110107421876,-1.3046865463256836,-6.613163471221924,2.449054002761841
1781554624074625500,59.81662548828125,-1.3671990633010864,-8.656932830810547,0.9849455952644348
1781554624123140900,59.865140869140625,-1.3546366691589355,-9.454939842224121,0.3939184248447418
1781554624171656000,59.91365600585937,0.36281174421310425,-8.677870750427246,-0.8632107973098755
1781554624220171300,59.96217114257813,-0.3170489966869354,-11.576176643371582,-2.6530420780181885
1781554624268686300,60.01068627929688,-2.7487549781799316,-13.360026359558105,0.050847481936216354
1781554624317201700,60.05920166015625,-3.7022948265075684,-5.708676815032959,3.9783668518066406
1781554624365716700,60.107716796875,-5.31685209274292,-10.535299301147461,5.563910961151123
1781554624414232000,60.156232177734374,-6.174379825592041,-17.027923583984375,2.415853500366211
1781554624462747100,60.2047470703125,-1.3674981594085693,-8.058428764343262,-1.3692927360534668
1781554624511262500,60.25326245117188,0.3433700501918793,-5.717649936676025,-2.0665013790130615
1781554624559777500,60.301777587890626,-0.20757736265659332,-7.578368186950684,0.08763712644577026
1781554624608292900,60.35029296875,0.8033902049064636,-7.428218841552734,1.841576099395752
1781554624656808000,60.39880786132812,0.8422735929489136,-8.83370304107666,-1.323829174041748
1781554624705323300,60.4473232421875,0.06041877344250679,-13.2299165725708,-2.516651153564453
1781554624753838300,60.49583837890625,1.662413477897644,-14.096715927124023,0.20877377688884735
1781554624802353700,60.54435375976563,-2.239083766937256,-16.359130859375,2.9587252140045166
1781554624850869000,60.592868896484376,-3.0622148513793945,-10.281360626220703,1.4123635292053223
1781554624899384000,60.641384033203124,-1.7042878866195679,-8.750253677368164,5.100002288818359
1781554624947899400,60.6898994140625,0.6547361016273499,-9.030213356018066,0.8925228714942932
1781554624996414500,60.73841455078125,-1.0360921621322632,-7.189235687255859,0.8784649968147278
1781554625044929800,60.7869296875,-1.1434701681137085,-6.63051176071167,2.407777786254883
1781554625093444900,60.83544482421875,-1.3627125024795532,-7.947461128234863,1.540379524230957
1781554625141960200,60.883960205078125,-1.3719847202301025,-9.09093189239502,0.9221340417861938
1781554625190475300,60.932475341796874,-0.30239295959472656,-9.724132537841797,1.0145567655563354
1781554625238990600,60.98099047851562,0.582054078578949,-9.738189697265625,-2.6377878189086914
1781554625287506000,61.029505859375,-1.456630825996399,-13.230215072631836,-0.6921239495277405
1781554625336021000,61.07802099609375,-3.349353551864624,-10.726426124572754,1.7518452405929565
1781554625384536300,61.126536376953126,-3.9278182983398438,-3.811467409133911,4.184448719024658
1781554625433051400,61.175051513671875,-6.452844619750977,-16.469799041748047,3.245863914489746
1781554625481566700,61.22356665039062,-4.427918434143066,-13.205389976501465,2.1302103996276855
1781554625530081800,61.27208178710937,-0.07118647545576096,-5.179563522338867,-2.3437697887420654
1781554625578597000,61.32059716796875,0.29012975096702576,-6.961319446563721,-1.227817177772522
1781554625627112200,61.3691123046875,0.037088751792907715,-7.8092756271362305,0.9643075466156006
