time,seconds_elapsed,z,y,x
1781554564419505000,0.1615048828125,0,0,0
1781554564468019700,0.210019775390625,0.11304616928100586,0.49121809005737305,0.32895350456237793
1781554564516534500,0.258534423828125,-0.015620708465576172,0.8429503440856934,0.47517716884613037
1781554564565049300,0.30704931640625,0.5032162666320801,-0.012206554412841797,1.188750982284546
1781554564613564200,0.355564208984375,-0.22373485565185547,-0.5509004592895508,0.42467689514160156
1781554564662079200,0.404079345703125,0.3618192672729492,-0.8213343620300293,0.1469895839691162
1781554564710594000,0.452593994140625,1.7262401580810547,-0.029006481170654297,-0.312580406665802
1781554564759108900,0.50110888671875,0.38983631134033203,0.24173355102539062,-0.09246832132339478
1781554564807623700,0.549623779296875,1.343320369720459,-0.046099185943603516,0.1397230327129364
1781554564856138500,0.598138427734375,1.1892247200012207,-0.3351020812988281,-0.2156296968460083
1781554564904653300,0.6466533203125,0.43865394592285156,-0.36090517044067383,-0.4680919051170349
1781554564953168400,0.69516845703125,0.6340837478637695,-0.45119619369506836,-0.35447943210601807
1781554565001683200,0.74368310546875,0.31017494201660156,-0.3808002471923828,-0.316383421421051
1781554565050198000,0.792197998046875,0.5300731658935547,-0.5226244926452637,-0.3133018910884857
1781554565098712800,0.840712890625,0.25286388397216797,-0.4980196952819824,-0.37722063064575195
1781554565147228000,0.889227783203125,0.009341239929199219,-0.3535327911376953,-0.17473161220550537
1781554565195742700,0.93774267578125,0.3340635299682617,-0.3511314392089844,-0.17316032946109772
1781554565244257500,0.986257568359375,0.41152191162109375,-0.3260354995727539,-0.2740108072757721
1781554565292772400,1.0347724609375,0.4130678176879883,-0.2751898765563965,-0.052513524889945984
1781554565341287200,1.083287109375,0.4234962463378906,-0.2705254554748535,0.05829828977584839
1781554565389802000,1.131802001953125,0.5277309417724609,-0.2952871322631836,-0.008904710412025452
1781554565438317000,1.180317138671875,0.3045969009399414,-0.18692636489868164,-0.03795371949672699
1781554565486831900,1.228831787109375,0.07190704345703125,-0.19869041442871094,-0.416279137134552
1781554565535346700,1.2773466796875,0.5226650238037109,-0.3375983238220215,-0.6423545479774475
1781554565583861500,1.325861572265625,0.3637981414794922,-0.32669973373413086,-0.27454179525375366
1781554565632376600,1.37437646484375,-0.006464958190917969,-0.16032886505126953,-0.05042904615402222
1781554565680891400,1.422891357421875,0.22953033447265625,-0.1688990592956543,-0.15530729293823242
1781554565729406200,1.47140625,0.12316417694091797,-0.27132272720336914,-0.2471705675125122
1781554565777921000,1.519921142578125,0.4104957580566406,-0.47308921813964844,-0.2583996057510376
1781554565826435800,1.568435791015625,0.07373523712158203,-0.03123331069946289,-0.24944519996643066
1781554565874950700,1.61695068359375,-0.5993151664733887,0.2613677978515625,0.28124701976776123
1781554565923465700,1.6654658203125,-0.2131795883178711,0.36492395401000977,0.2979736328125
1781554565971980500,1.71398046875,-0.04739570617675781,0.2821063995361328,0.4071979522705078
1781554566020495400,1.762495361328125,-0.13290786743164062,0.3241748809814453,0.03892529010772705
1781554566069010200,1.81101025390625,0.08451652526855469,0.20872831344604492,-0.23049652576446533
1781554566117525000,1.85952490234375,0.03744983673095703,0.05434226989746094,-0.1694248914718628
1781554566166040000,1.9080400390625,0.21021080017089844,0.005564212799072266,-0.4468247890472412
1781554566214555000,1.956554931640625,0.25216102600097656,-0.047490596771240234,-0.37767958641052246
1781554566263069700,2.005069580078125,0.4075746536254883,-0.1705036163330078,-0.37023067474365234
1781554566311584500,2.05358447265625,1.2367243766784668,-0.2701883316040039,-1.2122118473052979
1781554566360099600,2.102099609375,1.4475817680358887,-0.46267080307006836,-1.6172971725463867
1781554566408614100,2.1506142578125,1.180234432220459,-0.1448216438293457,-1.2779531478881836
1781554566457129200,2.199129150390625,0.01168060302734375,0.21947097778320312,-0.6872196197509766
1781554566505644000,2.24764404296875,0.06747865676879883,0.13830137252807617,-0.15614700317382812
1781554566554158800,2.296158935546875,0.29216623306274414,0.05812215805053711,-0.14599084854125977
1781554566602673700,2.344673583984375,-0.3141365051269531,0.08249759674072266,0.04041862487792969
1781554566651188700,2.393188720703125,-0.9651365280151367,0.17030858993530273,-0.028623104095458984
1781554566699703600,2.44170361328125,-0.7542071342468262,0.2185373306274414,0.060230255126953125
1781554566748218400,2.49021826171875,-0.6097879409790039,0.12151575088500977,0.1297593116760254
1781554566796733200,2.538733154296875,-0.22293806076049805,0.24898529052734375,0.014294624328613281
1781554566845248000,2.587248046875,-1.0519323348999023,0.3795614242553711,-0.05541038513183594
1781554566893762800,2.6357626953125,-1.1568412780761719,0.42641401290893555,0.3129096031188965
1781554566942278000,2.68427783203125,-0.9687504768371582,0.35992908477783203,0.2936077117919922
1781554566990792700,2.732792724609375,-0.05745410919189453,0.20739459991455078,0.13502264022827148
1781554567039307500,2.7813076171875,-0.9538307189941406,0.5204744338989258,0.17729473114013672
1781554567087822300,2.829822265625,-1.2997770309448242,0.701869010925293,0.48548460006713867
1781554567136337200,2.878337158203125,-0.46990489959716797,0.5584235191345215,0.8228025436401367
1781554567184852000,2.92685205078125,-0.27111053466796875,0.27640581130981445,0.8171367645263672
1781554567233366800,2.97536669921875,-0.7310981750488281,0.20711565017700195,0.7261853218078613
1781554567281881900,3.0238818359375,-0.7764725685119629,-0.04266929626464844,1.0109333992004395
1781554567330396700,3.072396728515625,-1.3043804168701172,-0.2238473892211914,0.9343512058258057
1781554567378911500,3.120911376953125,-1.3548474311828613,-0.21730995178222656,0.7340686321258545
1781554567427426300,3.16942626953125,-1.26312255859375,0.2916083335876465,0.2662205696105957
1781554567475941000,3.217941162109375,-1.0493764877319336,0.597658634185791,0.2985866069793701
1781554567524456000,3.2664560546875,-0.4532938003540039,0.4737701416015625,0.24115633964538574
1781554567572971000,3.314970947265625,-0.43619251251220703,0.05812644958496094,0.22693395614624023
1781554567621485800,3.36348583984375,-1.4724764823913574,-0.5996150970458984,-0.21847987174987793
1781554567670000600,3.412000732421875,-3.2971458435058594,-1.1882789134979248,0.11728763580322266
1781554567718515500,3.460515380859375,-4.115067481994629,-1.2136989831924438,0.4528064727783203
1781554567767030300,3.5090302734375,-4.109306812286377,-1.8110429048538208,0.21548128128051758
1781554567815545000,3.557545166015625,-3.353184700012207,-3.0541536808013916,0.7277398109436035
1781554567864060000,3.606059814453125,-0.18834161758422852,-3.8486642837524414,0.16971778869628906
1781554567912575000,3.654574951171875,3.4226062297821045,-7.147565841674805,-0.6507916450500488
1781554567961089800,3.70308984375,8.854894638061523,-8.740680694580078,-1.6106741428375244
1781554568009604600,3.7516044921875,11.18543529510498,-9.842551231384277,-0.4309391975402832
1781554568058119400,3.800119384765625,12.139975547790527,-7.346717834472656,2.1681454181671143
1781554568106634200,3.84863427734375,13.61967658996582,-4.360283851623535,4.515296936035156
1781554568155149000,3.897149169921875,10.699084281921387,-1.3483953475952148,6.674337387084961
1781554568203664000,3.945663818359375,7.866700649261475,-0.49572277069091797,6.16709566116333
1781554568252178700,3.9941787109375,5.279016494750977,-0.8579025268554688,5.1276326179504395
1781554568300693800,4.04269384765625,3.2227694988250732,-0.9639501571655273,5.1025214195251465
1781554568349208300,4.091208251953125,-6.248039722442627,2.456190586090088,8.536188125610352
1781554568397723400,4.139723388671875,-2.1923294067382812,-1.1818180084228516,5.685434341430664
1781554568446238200,4.18823828125,3.699402332305908,-3.21737003326416,0.32312262058258057
1781554568494753000,4.2367529296875,0.7434722185134888,0.895604133605957,-1.3167643547058105
1781554568543267800,4.285267822265625,-0.8231961131095886,0.49529552459716797,-0.5719451904296875
1781554568591782700,4.33378271484375,0.5967141389846802,-3.769852638244629,-9.894973754882812
1781554568640297500,4.38229736328125,0.7189763784408569,0.6660652160644531,3.5277655124664307
1781554568688812300,4.430812255859375,0.41592520475387573,2.718026638031006,9.729536056518555
1781554568737327000,4.4793271484375,-0.8373677730560303,0.9951944351196289,-0.15572214126586914
1781554568785842000,4.527842041015625,-0.16729074716567993,2.0495986938476562,1.6603636741638184
1781554568834357000,4.57635693359375,-2.4409661293029785,2.7253265380859375,-0.940880298614502
1781554568882871600,4.62487158203125,0.9376372694969177,1.5130844116210938,-0.6538906097412109
1781554568931386400,4.673386474609375,1.8393301963806152,-4.1546125411987305,2.6540350914001465
1781554568979901400,4.7219013671875,-0.9059067964553833,-7.498865127563477,0.9227914810180664
1781554569028416300,4.770416259765625,2.9604129791259766,-5.918488502502441,-4.0497870445251465
1781554569076930800,4.818930908203125,1.0990300178527832,-0.7796473503112793,0.49347925186157227
1781554569125446000,4.86744580078125,-2.2413253784179688,3.312946319580078,4.688496112823486
1781554569173960700,4.915960693359375,-0.07507944107055664,2.0122857093811035,3.5829834938049316
1781554569222475500,4.9644755859375,0.2779022455215454,-1.4887404441833496,-0.9427433013916016
1781554569270990000,5.012989990234375,0.051009297370910645,1.1427688598632812,0.2583580017089844
1781554569319505200,5.061505126953125,-0.44176697731018066,1.8636350631713867,0.5169796943664551
1781554569368020000,5.11002001953125,0.5355817079544067,3.718900680541992,-0.5312108993530273
1781554569416534800,5.15853466796875,0.29971134662628174,1.1086697578430176,-0.7972211837768555
1781554569465049600,5.207049560546875,1.1994075775146484,-4.5314531326293945,-3.370762825012207
1781554569513564200,5.255564208984375,0.48862510919570923,-0.37793636322021484,-0.18165111541748047
1781554569562079200,5.304079345703125,1.207220196723938,0.11136817932128906,0.47843217849731445
1781554569610594000,5.352593994140625,1.4309076070785522,-0.8288965225219727,2.0628957748413086
1781554569659108900,5.40110888671875,-0.6920670866966248,2.100527763366699,0.22777247428894043
1781554569707623400,5.44962353515625,-0.711821973323822,1.8525924682617188,-2.629951000213623
1781554569756138500,5.498138427734375,0.4206126928329468,4.765925407409668,0.05439102649688721
1781554569804653300,5.5466533203125,2.5236473083496094,-2.909210205078125,-4.0439839363098145
1781554569853168000,5.595168212890625,0.12932133674621582,-3.296478271484375,0.20539426803588867
1781554569901682700,5.6436826171875,0.4208456873893738,-3.3280258178710938,0.4189918041229248
1781554569950197500,5.692197509765625,0.07191932201385498,0.926274299621582,-0.6191598176956177
1781554569998712300,5.74071240234375,0.7127965092658997,1.3486394882202148,-0.49409544467926025
1781554570047227400,5.789227294921875,1.1767748594284058,-0.1020355224609375,-0.20761185884475708
1781554570095742200,5.8377421875,0.7319979667663574,-0.2700977325439453,0.02361583709716797
1781554570144256800,5.8862568359375,0.596335768699646,-0.1936626434326172,-0.7455337047576904
1781554570192771600,5.934771484375,0.8921062350273132,0.5228233337402344,-0.01771429181098938
1781554570241286400,5.983286376953125,0.39896583557128906,-0.31899261474609375,-0.17896071076393127
1781554570289801200,6.03180126953125,0.11676394939422607,0.12716293334960938,-0.33214521408081055
1781554570338316000,6.08031591796875,-0.506745457649231,0.49178314208984375,-0.0849500298500061
1781554570386830800,6.128830810546875,0.9818316102027893,3.203434944152832,-1.1775108575820923
1781554570435345700,6.177345703125,0.4465715289115906,4.199331760406494,-0.23556208610534668
1781554570483860500,6.225860595703125,0.5008863210678101,-2.622706413269043,-0.425991415977478
1781554570532375300,6.274375244140625,0.23892098665237427,-1.8090686798095703,-1.1523220539093018
1781554570580890000,6.32289013671875,0.5906198024749756,-1.7277202606201172,-0.17869533598423004
1781554570629404700,6.37140478515625,0.5980020761489868,-3.0177230834960938,1.468557357788086
1781554570677919500,6.41991943359375,0.8013415336608887,-1.1151313781738281,0.1773536056280136
1781554570726434300,6.468434326171875,0.9824283123016357,-1.0578937530517578,1.2869869470596313
1781554570774949000,6.51694921875,0.8459559082984924,1.7285614013671875,1.2685774564743042
1781554570823464000,6.5654638671875,1.064321517944336,0.037914276123046875,-1.7813750505447388
1781554570871978800,6.613978759765625,0.9337736368179321,-0.7907285690307617,-0.194283127784729
1781554570920493600,6.66249365234375,7.377953052520752,1.7862825393676758,-4.242516994476318
1781554570969008400,6.71100830078125,-4.87962007522583,-0.29925537109375,2.3072595596313477
1781554571017523200,6.759523193359375,0.06786513328552246,-1.2905769348144531,0.08858087658882141
1781554571066038000,6.8080380859375,2.3761179447174072,-0.46927928924560547,-0.6538980007171631
1781554571114552800,6.856552734375,1.3389503955841064,1.2756023406982422,0.4191616475582123
1781554571163067400,6.9050673828125,1.1486650705337524,-0.8254032135009766,-0.6675418615341187
1781554571211582200,6.953582275390625,-1.2242848873138428,-1.0245227813720703,-0.24857234954833984
1781554571260097000,7.002096923828125,1.0088897943496704,-0.7006711959838867,0.9649105072021484
1781554571308611800,7.05061181640625,1.6829220056533813,0.25223541259765625,0.3543073236942291
1781554571357126700,7.099126708984375,1.2132277488708496,-0.1774587631225586,0.7646989226341248
1781554571405641500,7.147641357421875,-0.029581069946289062,-0.30712413787841797,0.08031928539276123
1781554571454156300,7.19615625,0.6388483047485352,-0.02936077117919922,-0.7137660980224609
1781554571502671000,7.244671142578125,1.0933921337127686,0.025423049926757812,-0.46200913190841675
1781554571551185700,7.293185546875,0.552483081817627,-0.03525257110595703,-0.5729822516441345
1781554571599700500,7.341700439453125,0.46776914596557617,0.23180389404296875,-0.3625102639198303
1781554571648215300,7.39021533203125,0.6700844764709473,-0.0726633071899414,-0.04842287302017212
1781554571696730000,7.438730224609375,0.5340025424957275,-0.46404457092285156,0.10643452405929565
1781554571745245000,7.487244873046875,0.6019978523254395,-0.4028139114379883,0.005243539810180664
1781554571793759700,7.535759765625,0.761845588684082,-0.15483474731445312,-0.18375390768051147
1781554571842274600,7.584274658203125,0.6210482120513916,0.1194772720336914,-0.2606980800628662
1781554571890789400,7.632789306640625,0.6378605365753174,-0.2114105224609375,-0.32427144050598145
1781554571939304000,7.681303955078125,0.5495865345001221,-0.4771881103515625,-0.27714431285858154
1781554571987818800,7.72981884765625,0.4376516342163086,0.20964336395263672,-0.023074448108673096
1781554572036333600,7.77833349609375,0.6604111194610596,-0.24688434600830078,0.22999972105026245
1781554572084848400,7.826848388671875,0.4642965793609619,-0.5710210800170898,0.03913313150405884
1781554572133363200,7.87536328125,0.3954951763153076,0.04291343688964844,-0.17734134197235107
1781554572181878000,7.9238779296875,0.4498012065887451,-0.03047657012939453,-0.05894184112548828
1781554572230392800,7.972392822265625,0.3408637046813965,-0.44523143768310547,0.06411558389663696
1781554572278907400,8.020907470703126,0.2315824031829834,-0.12137985229492188,-0.05075615644454956
1781554572327422200,8.069422119140626,0.37371325492858887,0.03967761993408203,-0.06523191928863525
1781554572375937000,8.11793701171875,0.3081235885620117,0.3191375732421875,-0.06036734580993652
1781554572424451800,8.166451904296874,0.34453582763671875,-0.2311563491821289,-0.0024272799491882324
1781554572472966700,8.214966552734374,0.3097107410430908,-0.8542671203613281,0.2451246976852417
1781554572521481500,8.2634814453125,0.17820096015930176,0.005372047424316406,0.0735744833946228
1781554572569996000,8.31199609375,0.5250389575958252,0.4851493835449219,-0.1945739984512329
1781554572618510800,8.3605107421875,0.48090410232543945,-0.25856876373291016,-0.30452901124954224
1781554572667025700,8.409025634765625,0.10776281356811523,-0.2294473648071289,-0.06372696161270142
1781554572715540500,8.45754052734375,0.31508922576904297,0.026342391967773438,0.11716842651367188
1781554572764055300,8.50605517578125,0.42660021781921387,-0.17455196380615234,-0.09395509958267212
1781554572812570000,8.554570068359375,0.09749794006347656,0.01694774627685547,-0.2651905417442322
1781554572861084700,8.603084716796875,-0.10641670227050781,0.36618518829345703,0.03138619661331177
1781554572909599500,8.651599609375,0.435610294342041,-0.3584260940551758,0.5068823099136353
1781554572958114300,8.7001142578125,0.17199921607971191,-0.4036426544189453,0.07152897119522095
1781554573006629000,8.748629150390625,0.11100172996520996,0.22946453094482422,-0.33392107486724854
1781554573055144000,8.79714404296875,0.35947108268737793,-0.02627849578857422,-0.20226514339447021
1781554573103658800,8.84565869140625,0.09237098693847656,-0.15415096282958984,0.1291540265083313
1781554573152173600,8.894173583984376,0.0801393985748291,-0.04814624786376953,0.15889489650726318
1781554573200688000,8.942688232421874,0.1711864471435547,0.06315231323242188,0.04873538017272949
1781554573249203000,8.991202880859374,0.21668171882629395,-0.14867782592773438,-0.02820754051208496
1781554573297717800,9.0397177734375,0.13982152938842773,-0.08946609497070312,0.17503654956817627
1781554573346232600,9.088232666015625,0.2051253318786621,-0.013949394226074219,0.06911194324493408
1781554573394747400,9.136747314453125,0.31203222274780273,-0.1706399917602539,0.03399550914764404
1781554573443262200,9.18526220703125,0.2702469825744629,-0.3659811019897461,0.028800249099731445
1781554573491777000,9.233777099609375,0.18360376358032227,-0.34693241119384766,-0.08552908897399902
1781554573540291800,9.282291748046875,-0.00694584846496582,0.549189567565918,-0.1803370714187622
1781554573588806700,9.330806640625,0.3339874744415283,0.1512279510498047,0.09425759315490723
1781554573637321500,9.379321533203125,0.21642613410949707,-0.5445775985717773,0.03379857540130615
1781554573685836000,9.4278359375,0.00456690788269043,-0.26944923400878906,-0.20334458351135254
1781554573734350800,9.476350830078125,0.2048027515411377,0.5641908645629883,0.13184231519699097
1781554573782865700,9.52486572265625,0.6280742883682251,-0.06932640075683594,0.07748371362686157
1781554573831380500,9.57338037109375,0.3333892822265625,-0.2188568115234375,-0.22041970491409302
1781554573879895300,9.621895263671876,0.192305326461792,-0.16821956634521484,-0.04578506946563721
1781554573928410000,9.67041015625,0.27090001106262207,-0.4983692169189453,0.36007195711135864
1781554573976925000,9.718925048828124,0.020984411239624023,-0.30524349212646484,0.21708276867866516
1781554574025439700,9.767439697265624,-0.18134212493896484,0.3135795593261719,-0.06357568502426147
1781554574073954600,9.81595458984375,0.09148073196411133,0.6533594131469727,-0.37410223484039307
1781554574122469400,9.864469482421875,0.26729273796081543,-0.17489242553710938,-0.44324439764022827
1781554574170984000,9.91298388671875,0.03547334671020508,-0.4505729675292969,-0.08758139610290527
1781554574219498800,9.961498779296875,0.19450092315673828,0.4316072463989258,0.17952215671539307
1781554574268013600,10.010013671875,0.3612971305847168,0.2550497055053711,0.09772029519081116
1781554574316528400,10.0585283203125,0.13258767127990723,-0.3266716003417969,-0.11480039358139038
1781554574365043200,10.107043212890625,0.03062152862548828,-0.23879718780517578,-0.08810800313949585
1781554574413558000,10.15555810546875,0.05815935134887695,0.2721719741821289,0.1605210304260254
1781554574462072800,10.20407275390625,0.2746717929840088,-0.4565582275390625,0.28180575370788574
1781554574510587600,10.252587646484375,0.22101449966430664,-0.23573780059814453,0.11639249324798584
1781554574559102500,10.3011025390625,0.24512720108032227,0.12234210968017578,-0.1789562702178955
1781554574607617300,10.3496171875,0.5055539608001709,-0.08899116516113281,-0.30256015062332153
1781554574656132000,10.398132080078126,0.4315683841705322,-0.19095516204833984,-0.15942049026489258
1781554574704646700,10.446646728515624,0.21401619911193848,-0.08848285675048828,-0.25931936502456665
1781554574753161500,10.495161376953124,0.24594879150390625,-0.1363840103149414,-0.28336793184280396
1781554574801676500,10.543676513671874,0.20826101303100586,-0.018378257751464844,0.1461377739906311
1781554574850191400,10.59219140625,0.3362780809402466,0.0010089874267578125,0.4606812000274658
1781554574898706000,10.640705810546875,0.38671398162841797,-0.16440105438232422,0.33273613452911377
1781554574947220700,10.689220703125,0.4277784824371338,-0.2670154571533203,0.18051719665527344
1781554574995735600,10.737735595703125,0.3038046360015869,-0.04121685028076172,0.043588221073150635
1781554575044250400,10.78625048828125,0.022199630737304688,0.06718158721923828,-0.34567105770111084
1781554575092765200,10.83476513671875,0.061969757080078125,-0.23004531860351562,-0.2136627435684204
1781554575141280000,10.883280029296875,-0.06569123268127441,-0.12183380126953125,-0.2548959255218506
1781554575189794800,10.931794921875,-0.10811853408813477,0.17990875244140625,-0.11528146266937256
1781554575238309600,10.9803095703125,0.3215254545211792,-0.11199665069580078,0.26674842834472656
1781554575286824400,11.028824462890626,0.2846893072128296,0.03711414337158203,0.26137489080429077
1781554575335339300,11.07733935546875,0.17064929008483887,0.27596187591552734,0.011497735977172852
1781554575383854000,11.12585400390625,0.3102259635925293,0.08881855010986328,-0.08666765689849854
1781554575432369000,11.174368896484374,0.3037679195404053,-0.2508659362792969,-0.05033302307128906
1781554575480883700,11.2228837890625,0.0560380220413208,0.08702564239501953,-0.0022966861724853516
1781554575529398500,11.2713984375,0.10616433620452881,-0.25371837615966797,0.04949009418487549
1781554575577913300,11.319913330078125,0.12064361572265625,-0.2672920227050781,0.06371152400970459
1781554575626428000,11.368427978515625,0.1663808822631836,-0.18145465850830078,0.1285344362258911
1781554575674943000,11.41694287109375,0.16068434715270996,-0.15630245208740234,0.2598080635070801
1781554575723457800,11.465457763671875,0.38770461082458496,0.09007453918457031,-0.04625976085662842
1781554575771972600,11.51397265625,0.09036946296691895,0.06009101867675781,-0.09109163284301758
1781554575820487200,11.562487060546875,0.16818130016326904,-0.055153846740722656,-0.05934882164001465
1781554575869002000,11.611001953125,0.1991593837738037,-0.08278751373291016,-0.12836062908172607
1781554575917516800,11.659516845703125,0.11547648906707764,-0.08598613739013672,-0.06908559799194336
1781554575966031600,11.708031494140625,0.03976130485534668,-0.0125885009765625,0.07966172695159912
1781554576014546400,11.75654638671875,0.13154244422912598,-0.023168563842773438,0.0933154821395874
1781554576063061200,11.805061279296876,0.2559717893600464,-0.1596536636352539,-0.03755950927734375
1781554576111576000,11.853576171875,0.23710691928863525,-0.06948089599609375,-0.04281258583068848
1781554576160091000,11.9020908203125,0.19823861122131348,0.020441055297851562,0.03619956970214844
1781554576208605700,11.950605712890624,0.16049623489379883,0.1498851776123047,-0.06002235412597656
1781554576257120500,11.99912060546875,0.19314062595367432,-0.16378116607666016,-0.1619638204574585
1781554576305635300,12.04763525390625,0.0286102294921875,-0.09917449951171875,-0.03684353828430176
1781554576354150100,12.096150146484375,0.2329179048538208,0.03643512725830078,0.10045063495635986
1781554576402665000,12.1446650390625,0.32204926013946533,-0.015776634216308594,0.06529414653778076
1781554576451179800,12.1931796875,0.20038270950317383,-0.018060684204101562,-0.0002090930938720703
1781554576499694600,12.241694580078125,0.20158159732818604,0.018988609313964844,-0.06722235679626465
1781554576548209400,12.29020947265625,0.18788516521453857,-0.01785755157470703,-0.15569663047790527
1781554576596724200,12.33872412109375,0.0784142017364502,-0.0788736343383789,-0.13829851150512695
1781554576645239000,12.387239013671875,0.05614137649536133,-0.026987075805664062,-0.03033149242401123
1781554576693753900,12.43575390625,0.15470099449157715,-0.0110626220703125,-0.002148866653442383
1781554576742268700,12.4842685546875,0.17314863204956055,-0.053470611572265625,-0.06839346885681152
1781554576790790100,12.5327900390625,0.12907814979553223,-0.0005693435668945312,0.021321654319763184
1781554576839298300,12.58129833984375,0.17552495002746582,0.010650634765625,0.09414005279541016
1781554576887813000,12.629813232421874,0.1515258550643921,-0.011784553527832031,0.023101210594177246
1781554576936328000,12.678327880859374,0.08477950096130371,-0.03716850280761719,-0.0007455348968505859
1781554576984842800,12.7268427734375,0.14250588417053223,-0.0702810287475586,0.013498663902282715
1781554577033357600,12.775357666015625,0.1236264705657959,-0.012093544006347656,-0.05774521827697754
1781554577081872400,12.823872314453125,0.12228012084960938,-0.01931285858154297,-0.11600542068481445
1781554577130387200,12.87238720703125,0.1580798625946045,-0.0441131591796875,-0.05303835868835449
1781554577178902000,12.920902099609375,0.14513754844665527,-0.026169776916503906,0.033083438873291016
1781554577227419600,12.969419677734376,0.13489341735839844,0.0009279251098632812,-0.011398792266845703
1781554577275931600,13.017931640625,0.1591581106185913,-0.06203651428222656,-0.040889620780944824
1781554577324446500,13.066446533203125,0.15388107299804688,-0.004904747009277344,-0.04897511005401611
1781554577372961300,13.114961181640625,0.13353562355041504,0.016885757446289062,-0.04277026653289795
1781554577421476000,13.16347607421875,0.14465856552124023,-0.03730964660644531,-0.02459263801574707
1781554577469991000,13.211990966796876,0.16862225532531738,-0.06253242492675781,0.007321476936340332
1781554577518505700,13.260505615234376,0.1374044418334961,-0.025907516479492188,0.02077007293701172
1781554577567020500,13.3090205078125,0.12653136253356934,-0.024446487426757812,0.02585160732269287
1781554577615535400,13.357535400390624,0.17118382453918457,-0.05492687225341797,0.019351959228515625
1781554577664050400,13.406050537109374,0.16977393627166748,-0.028000831604003906,-0.03037571907043457
1781554577712565000,13.45456494140625,0.16307950019836426,-0.052971839904785156,-0.009072303771972656
1781554577761079800,13.503079833984375,0.18567955493927002,-0.06817817687988281,0.009192347526550293
1781554577809594600,13.5515947265625,0.18860578536987305,0.006279945373535156,-0.05118870735168457
1781554577858109400,13.600109375,0.18269860744476318,0.02131175994873047,-0.09672784805297852
1781554577906624300,13.648624267578125,0.17760097980499268,-0.07088470458984375,-0.03939032554626465
1781554577955139000,13.69713916015625,0.1592179536819458,-0.014119148254394531,-0.006476044654846191
1781554578003654000,13.74565380859375,0.14903521537780762,-0.022629737854003906,-0.021046161651611328
1781554578052168700,13.794168701171875,0.15631914138793945,-0.10792064666748047,0.01363670825958252
1781554578100683500,13.84268359375,0.14753460884094238,-0.03069305419921875,0.03328061103820801
1781554578149198300,13.8911982421875,0.1368725299835205,0.015084266662597656,-0.02840876579284668
1781554578197713200,13.939713134765626,0.1481637954711914,-0.04189300537109375,-0.0542759895324707
1781554578246228000,13.98822802734375,0.1467576026916504,-0.07309722900390625,-0.0137559175491333
1781554578294742800,14.03674267578125,0.16437506675720215,-0.03165435791015625,0.027103304862976074
1781554578343257600,14.085257568359374,0.1612110137939453,-0.011013984680175781,0.013335943222045898
1781554578391772400,14.1337724609375,0.13314008712768555,-0.05743980407714844,0.010598063468933105
1781554578440287200,14.182287353515624,0.11605381965637207,-0.02493762969970703,0.009080052375793457
1781554578488802000,14.230802001953125,0.13857507705688477,-0.028913497924804688,0.037160277366638184
1781554578537316900,14.27931689453125,0.17983341217041016,-0.062485694885253906,-0.021863341331481934
1781554578585831700,14.327831787109375,0.16933369636535645,-0.014051437377929688,-0.07050013542175293
1781554578634346500,14.376346435546875,0.16709256172180176,-0.02788829803466797,-0.033026695251464844
1781554578682861300,14.424861328125,0.15592050552368164,-0.034931182861328125,0.01621103286743164
1781554578731376000,14.473376220703125,0.14525294303894043,-0.018563270568847656,-0.01322782039642334
1781554578779891000,14.521890869140625,0.17315077781677246,-0.019464492797851562,-0.020496726036071777
1781554578828405800,14.57040576171875,0.17741990089416504,-0.054848670959472656,-0.037984609603881836
1781554578876920600,14.618920654296875,0.1306607723236084,-0.03241443634033203,-0.028179407119750977
1781554578925435400,14.667435302734376,0.1434183120727539,-0.037398338317871094,0.001966118812561035
1781554578973963800,14.7159638671875,0.14962339401245117,-0.020567893981933594,0.007170319557189941
1781554579022465000,14.764465087890626,0.1558825969696045,-0.04257392883300781,0.009415864944458008
1781554579070979800,14.812979736328124,0.1559293270111084,-0.0776815414428711,0.010179758071899414
1781554579119494700,14.86149462890625,0.15921473503112793,-0.050696372985839844,0.007260680198669434
1781554579168009500,14.910009521484374,0.16253256797790527,-0.040808677673339844,-0.022083640098571777
1781554579216524300,14.958524169921875,0.15624570846557617,-0.04020881652832031,-0.07217288017272949
1781554579265039000,15.0070390625,0.15821623802185059,-0.026535987854003906,-0.02428734302520752
1781554579313554200,15.05555419921875,0.173447847366333,-0.06402111053466797,-0.02519381046295166
1781554579362068700,15.10406884765625,0.16075921058654785,0.0020017623901367188,-0.03356659412384033
1781554579410583600,15.15258349609375,0.18819808959960938,0.000091552734375,-0.05616021156311035
1781554579459098400,15.201098388671875,0.17748045921325684,-0.03947734832763672,-0.039626121520996094
1781554579507613400,15.249613525390625,0.13167905807495117,-0.052300453186035156,-0.006578803062438965
1781554579556128000,15.2981279296875,0.12252116203308105,-0.0005254745483398438,0.02749180793762207
1781554579604642800,15.346642822265625,0.1492154598236084,-0.0006256103515625,0.03192102909088135
1781554579653158000,15.395157958984376,0.15227532386779785,-0.08767032623291016,0.017899632453918457
1781554579701672700,15.443672607421876,0.10739445686340332,-0.03371238708496094,0.0076563358306884766
1781554579750187500,15.4921875,0.15004467964172363,-0.014141082763671875,0.012694239616394043
1781554579798702000,15.5407021484375,0.17960858345031738,-0.057389259338378906,-0.009433627128601074
1781554579847217200,15.589217041015624,0.1782546043395996,-0.044800758361816406,-0.018836140632629395
1781554579895732000,15.63773193359375,0.18143105506896973,-0.01050567626953125,0.006362497806549072
1781554579944246800,15.686246826171875,0.18305659294128418,-0.043304443359375,0.021266281604766846
1781554579992761600,15.73476171875,0.15158629417419434,-0.01853179931640625,-0.006757259368896484
1781554580041276400,15.7832763671875,0.14725589752197266,-0.017128944396972656,0.022081077098846436
1781554580089791200,15.831791259765625,0.13902831077575684,-0.07480716705322266,0.0032005906105041504
1781554580138306000,15.88030615234375,0.13651585578918457,0.01842498779296875,-0.013763725757598877
1781554580186820900,15.92882080078125,0.17247247695922852,-0.021837234497070312,-0.001573801040649414
1781554580235335700,15.977335693359375,0.11304259300231934,-0.05278587341308594,0.013105452060699463
1781554580283850500,16.0258505859375,0.1168982982635498,-0.04969024658203125,-0.020129501819610596
1781554580332365300,16.074365234375,0.1598513126373291,-0.04380607604980469,-0.027766764163970947
1781554580380880100,16.122880126953124,0.13858628273010254,-0.06845474243164062,-0.04430532455444336
1781554580429395000,16.17139501953125,0.12917065620422363,-0.00756072998046875,-0.028506577014923096
1781554580477909800,16.21990966796875,0.18609952926635742,-0.009772300720214844,-0.016204893589019775
1781554580526424600,16.268424560546876,0.1981966495513916,-0.03511810302734375,-0.046663522720336914
1781554580574939400,16.316939453125,0.16464471817016602,-0.042372703552246094,-0.032652854919433594
1781554580623454200,16.3654541015625,0.1636333465576172,-0.03401374816894531,-0.005377054214477539
1781554580671969000,16.413968994140625,0.16949748992919922,-0.03695487976074219,0.008829653263092041
1781554580720483800,16.46248388671875,0.15704846382141113,-0.057303428649902344,-0.021884441375732422
1781554580768998700,16.51099853515625,0.14487719535827637,-0.02632617950439453,-0.012617945671081543
1781554580817513500,16.559513427734377,0.1738123893737793,-0.03483295440673828,0.012940526008605957
1781554580866028300,16.6080283203125,0.15078449249267578,-0.08897209167480469,0.016768276691436768
1781554580914543000,16.656543212890625,0.13445186614990234,0.00151824951171875,-0.01659494638442993
1781554580963058000,16.705057861328125,0.1764070987701416,-0.06525325775146484,-0.0017649531364440918
1781554581011572700,16.75357275390625,0.14288067817687988,-0.01744365692138672,-0.007772624492645264
1781554581060087600,16.802087646484374,0.13868260383605957,-0.03381633758544922,-0.012439489364624023
1781554581108602600,16.8506025390625,0.1731717586517334,-0.031235694885253906,-0.01605886220932007
1781554581157117200,16.8991171875,0.15671730041503906,-0.04252147674560547,-0.02885746955871582
1781554581205632000,16.947632080078126,0.1589522361755371,-0.03431224822998047,-0.02925509214401245
1781554581254147000,16.99614697265625,0.16544032096862793,-0.026178359985351562,-0.009141266345977783
1781554581302662000,17.044661865234374,0.16193604469299316,-0.02985858917236328,-0.0075151920318603516
1781554581351176400,17.093176513671875,0.16161823272705078,-0.06155204772949219,-0.05770021677017212
1781554581399691500,17.14169140625,0.12561583518981934,-0.015883445739746094,0.009685516357421875
1781554581448206300,17.190206298828127,0.1598949432373047,-0.06303215026855469,0.03871244192123413
1781554581496721200,17.23872119140625,0.14508557319641113,-0.012942314147949219,0.010449469089508057
1781554581545236000,17.287236083984375,0.15620923042297363,-0.04626655578613281,0.04764062166213989
1781554581593750800,17.335750732421875,0.16192102432250977,-0.039521217346191406,0.0794069766998291
1781554581642265600,17.384265625,0.14895319938659668,-0.03476428985595703,-0.0019229650497436523
1781554581690780400,17.432780517578124,0.13103055953979492,-0.0348968505859375,-0.08173644542694092
1781554581739295200,17.481295166015624,0.14834356307983398,-0.037756919860839844,-0.08495885133743286
1781554581787810000,17.52981005859375,0.13934969902038574,-0.04297924041748047,-0.059180498123168945
1781554581836324900,17.578324951171876,0.15428686141967773,-0.04511833190917969,-0.019463717937469482
1781554581884839700,17.626839599609376,0.19044113159179688,-0.02110767364501953,-0.0027238130569458008
1781554581933354500,17.6753544921875,0.16122221946716309,-0.046988487243652344,0.0022322535514831543
1781554581981869300,17.723869384765624,0.1525576114654541,-0.029092788696289062,-0.02868896722793579
1781554582030384000,17.772384033203124,0.1663680076599121,-0.03700542449951172,-0.04074752330780029
1781554582078899000,17.82089892578125,0.1297135353088379,-0.026945114135742188,-0.03659093379974365
1781554582127413800,17.869413818359376,0.15664243698120117,-0.025839805603027344,-0.012444794178009033
1781554582175928600,17.917928466796877,0.1635572910308838,-0.03746604919433594,-0.02032715082168579
1781554582224443400,17.966443359375,0.14501237869262695,-0.01597309112548828,-0.0022473931312561035
1781554582272958200,18.014958251953125,0.16119718551635742,-0.05087852478027344,0.017412245273590088
1781554582369987800,18.11198779296875,0.13370180130004883,-0.024721145629882812,-0.01590871810913086
1781554582418502700,18.160502685546874,0.14670372009277344,-0.047756195068359375,0.03259932994842529
1781554582467017500,18.209017578125,0.15897679328918457,-0.0827178955078125,0.017576098442077637
1781554582515532300,18.2575322265625,0.1556074619293213,0.013410568237304688,-0.025582969188690186
1781554582564047000,18.306047119140626,0.17542481422424316,-0.016310691833496094,-0.039450883865356445
1781554582612562000,18.35456201171875,0.14085698127746582,-0.06567096710205078,-0.03212863206863403
1781554582661077000,18.403076904296874,0.1367812156677246,-0.002208709716796875,-0.05854952335357666
1781554582709591600,18.451591552734374,0.1864945888519287,-0.018120765686035156,-0.029559314250946045
1781554582758106400,18.5001064453125,0.15230798721313477,-0.043234825134277344,0.03157168626785278
1781554582806621200,18.54862109375,0.1508805751800537,0.011701583862304688,0.030049800872802734
1781554582855136300,18.59713623046875,0.18431544303894043,-0.031185150146484375,0.023978710174560547
1781554582903650800,18.64565087890625,0.14539551734924316,-0.04398155212402344,-0.01487964391708374
1781554582952165600,18.69416552734375,0.1170186996459961,-0.009366989135742188,-0.02495962381362915
1781554583000680700,18.7426806640625,0.1176145076751709,-0.070220947265625,-0.015001833438873291
1781554583049195500,18.791195556640623,0.11819338798522949,-0.07589340209960938,0.045608580112457275
1781554583097710000,18.8397099609375,0.16736078262329102,-0.04675483703613281,0.06293308734893799
1781554583146225200,18.88822509765625,0.19634532928466797,-0.04263877868652344,0.020627856254577637
1781554583194740000,18.936739990234376,0.16617798805236816,-0.031571388244628906,0.020843327045440674
1781554583243254800,18.9852548828125,0.1840355396270752,-0.08009052276611328,0.0015694499015808105
1781554583291769600,19.03376953125,0.17147588729858398,-0.05123615264892578,-0.04096877574920654
1781554583340284400,19.082284423828124,0.17602062225341797,-0.004158973693847656,-0.07008481025695801
1781554583388799200,19.13079931640625,0.1991422176361084,-0.055731773376464844,-0.052837491035461426
1781554583437314000,19.17931396484375,0.16006255149841309,-0.024005889892578125,-0.007419705390930176
1781554583485828900,19.227828857421876,0.17471575736999512,-0.031760215759277344,-0.01315462589263916
1781554583534343700,19.27634375,0.17221879959106445,-0.08931732177734375,-0.017489254474639893
1781554583582858500,19.3248583984375,0.1563124656677246,0.023651123046875,-0.06790262460708618
1781554583631373300,19.373373291015625,0.13057422637939453,-0.04398059844970703,-0.03743523359298706
1781554583679888100,19.42188818359375,0.12679171562194824,-0.029473304748535156,-0.026318252086639404
1781554583728403000,19.47040283203125,0.17056798934936523,-0.041263580322265625,-0.010494768619537354
1781554583776917800,19.518917724609373,0.1630382537841797,-0.0793447494506836,0.010063886642456055
1781554583825432600,19.5674326171875,0.15155625343322754,0.004351615905761719,-0.0054683685302734375
1781554583873947400,19.615947509765626,0.1451578140258789,-0.05617809295654297,0.004240572452545166
1781554583922462200,19.664462158203126,0.16093778610229492,-0.026801109313964844,-0.00902622938156128
1781554583970977000,19.71297705078125,0.13990211486816406,-0.04081153869628906,-0.03852033615112305
1781554584019491800,19.761491943359374,0.13228249549865723,-0.05152606964111328,0.005687892436981201
1781554584068006700,19.810006591796874,0.1560683250427246,-0.045612335205078125,0.02308189868927002
1781554584116521500,19.858521484375,0.13920903205871582,-0.03342723846435547,0.033410608768463135
1781554584165036300,19.907036376953126,0.1485753059387207,-0.005925178527832031,-0.00628131628036499
1781554584213551000,19.955551025390626,0.14579272270202637,-0.04165172576904297,-0.003990292549133301
1781554584262066000,20.00406591796875,0.10942316055297852,-0.03690814971923828,0.0022907257080078125
1781554584310580700,20.052580810546875,0.13044404983520508,-0.02068328857421875,-0.009556055068969727
1781554584359095600,20.101095458984375,0.15181922912597656,-0.04257488250732422,-0.018086671829223633
1781554584407610400,20.1496103515625,0.14383816719055176,-0.0647897720336914,-0.039244651794433594
1781554584456125200,20.198125244140623,0.15424871444702148,-0.0188446044921875,-0.025493741035461426
1781554584504640000,20.246639892578123,0.15626907348632812,-0.033301353454589844,0.0020204782485961914
1781554584553154800,20.29515478515625,0.13710427284240723,-0.05350208282470703,-0.008934736251831055
1781554584601669600,20.343669677734376,0.14987397193908691,-0.030686378479003906,-0.04040789604187012
1781554584650184700,20.392184814453124,0.15072226524353027,-0.023886680603027344,-0.052120208740234375
1781554584698699300,20.44069921875,0.14793181419372559,-0.033059120178222656,-0.03342783451080322
1781554584747214000,20.489214111328124,0.1608116626739502,-0.032993316650390625,-0.03307366371154785
1781554584795729000,20.53772900390625,0.14302587509155273,-0.030083656311035156,-0.027001142501831055
1781554584844244000,20.586243896484376,0.1534271240234375,0.0005273818969726562,-0.00929105281829834
1781554584892758500,20.634758544921876,0.1602160930633545,-0.024260520935058594,-0.015933871269226074
1781554584941273300,20.6832734375,0.14726734161376953,-0.04564857482910156,-0.0254746675491333
1781554584989788400,20.731788330078125,0.1519021987915039,0.013131141662597656,-0.0377042293548584
1781554585038303200,20.78030322265625,0.14668726921081543,-0.03964424133300781,-0.019006013870239258
1781554585086817800,20.82881787109375,0.12044072151184082,-0.047087669372558594,0.006157398223876953
1781554585135332600,20.87733251953125,0.1450953483581543,-0.04271507263183594,0.02171027660369873
1781554585183847700,20.92584765625,0.13160085678100586,-0.0011854171752929688,0.02555108070373535
1781554585232362500,20.974362548828125,0.15378832817077637,-0.07374954223632812,-0.015996217727661133
1781554585280877300,21.022877197265625,0.13831400871276855,-0.05576133728027344,-0.04483437538146973
1781554585329392000,21.07139208984375,0.15462446212768555,-0.029024124145507812,0.003277301788330078
1781554585426421800,21.168421875,0.16713619232177734,-0.03505420684814453,0.006676733493804932
1781554585474936600,21.2169365234375,0.16576552391052246,-0.04361534118652344,-0.014226436614990234
1781554585523451400,21.265451416015626,0.1562795639038086,-0.04805183410644531,0.0077242255210876465
1781554585571966200,21.31396630859375,0.14793610572814941,-0.05073356628417969,0.002625882625579834
1781554585620481000,21.36248095703125,0.14446091651916504,-0.041251182556152344,0.012128770351409912
1781554585668995800,21.410995849609375,0.15156197547912598,-0.055924415588378906,-0.0031582117080688477
1781554585717510700,21.4595107421875,0.1657421588897705,-0.02040386199951172,0.02288079261779785
1781554585766025500,21.508025390625,0.14690375328063965,-0.05838298797607422,0.025195538997650146
1781554585814540300,21.556540283203127,0.15470314025878906,-0.0761270523071289,0.006034255027770996
1781554585863055000,21.60505517578125,0.17180442810058594,-0.007521629333496094,-0.030043482780456543
1781554585911570000,21.65356982421875,0.17698001861572266,-0.05232810974121094,-0.0322493314743042
1781554585960084700,21.702084716796875,0.15763044357299805,-0.03834247589111328,-0.00017958879470825195
1781554586008599600,21.750599609375,0.18739104270935059,-0.0055599212646484375,-0.002758026123046875
1781554586057114400,21.7991142578125,0.1867845058441162,-0.035902976989746094,-0.003893733024597168
1781554586105629200,21.847629150390624,0.14460110664367676,-0.05347156524658203,-0.022381067276000977
1781554586154144000,21.89614404296875,0.14919233322143555,-0.02682971954345703,-0.010738730430603027
1781554586202658800,21.944658935546876,0.15086150169372559,-0.033118247985839844,0.0217665433883667
1781554586251173600,21.993173583984376,0.1465470790863037,-0.0460052490234375,-0.009582757949829102
1781554586299688400,22.0416884765625,0.13011407852172852,-0.05906105041503906,-0.024553418159484863
1781554586348203300,22.090203369140625,0.15683650970458984,-0.04230308532714844,-0.013348817825317383
1781554586396718000,22.138718017578125,0.1606583595275879,-0.049152374267578125,-0.013411283493041992
1781554586445233000,22.18723291015625,0.15095043182373047,-0.04892253875732422,-0.020942091941833496
1781554586493747700,22.235747802734377,0.18799662590026855,0.016364097595214844,-0.016938090324401855
1781554586542262500,22.284262451171877,0.19028592109680176,-0.02582073211669922,-0.016728520393371582
1781554586590777300,22.33277734375,0.12693023681640625,-0.03813934326171875,-0.03684389591217041
1781554586639292200,22.381292236328125,0.11748313903808594,-0.018134117126464844,0.01989579200744629
1781554586687807000,22.429806884765625,0.1590263843536377,-0.07709693908691406,0.016313552856445312
1781554586736321800,22.47832177734375,0.14093375205993652,-0.02653217315673828,-0.03557002544403076
1781554586784836600,22.526836669921874,0.1536388397216797,-0.014183998107910156,-0.010218024253845215
1781554586833351700,22.5753515625,0.1692652702331543,-0.0860280990600586,0.024580955505371094
1781554586881866200,22.6238662109375,0.13949251174926758,-0.012217521667480469,-0.011629581451416016
1781554586930381000,22.672381103515626,0.16020417213439941,-0.004886627197265625,-0.02126753330230713
1781554586978896100,22.720896240234374,0.18045353889465332,-0.08770084381103516,-0.023911476135253906
1781554587027411000,22.769410888671874,0.14367175102233887,-0.027238845825195312,-0.032820701599121094
1781554587075925500,22.817925537109375,0.17145872116088867,-0.028018951416015625,-0.0017771720886230469
1781554587124440300,22.8664404296875,0.1469717025756836,-0.040513038635253906,0.017642617225646973
1781554587172955400,22.914955322265627,0.15471673011779785,-0.04689598083496094,-0.0244140625
1781554587221470200,22.96347021484375,0.17220544815063477,-0.0059642791748046875,-0.0513157844543457
1781554587269984800,23.01198486328125,0.22390341758728027,-0.03865623474121094,-0.029907584190368652
1781554587318499800,23.060499755859375,0.18786883354187012,-0.05496406555175781,-0.008544206619262695
1781554587367014700,23.1090146484375,0.14926958084106445,-0.05720996856689453,-0.07588803768157959
1781554587415529500,23.157529541015624,0.27834057807922363,-0.08441638946533203,-0.08684337139129639
1781554587464044300,23.206044189453124,0.21076345443725586,-0.060812950134277344,-0.044351816177368164
1781554587512559000,23.25455908203125,0.20829200744628906,-0.04498577117919922,0.014305531978607178
1781554587561074000,23.303073974609376,0.3300691843032837,0.011829376220703125,0.009022831916809082
1781554587609588700,23.351588623046876,0.30583882331848145,-0.0019483566284179688,-0.021255314350128174
1781554587658103600,23.400103515625,0.30742740631103516,-0.11870384216308594,-0.05295664072036743
1781554587706618400,23.448618408203124,0.2920510768890381,-0.06268119812011719,-0.04667478799819946
1781554587755133200,23.49713330078125,0.2731516361236572,-0.047046661376953125,-0.018618106842041016
1781554587803648000,23.54564794921875,0.32809436321258545,-0.06635665893554688,-0.048513174057006836
1781554587852162800,23.594162841796877,0.32262206077575684,-0.0724334716796875,-0.06561636924743652
1781554587900677600,23.642677734375,0.2633814811706543,-0.07182025909423828,-0.174818754196167
1781554587949192400,23.6911923828125,0.25255513191223145,-0.18959903717041016,-0.17473489046096802
1781554587997707300,23.739707275390625,-0.014593839645385742,-0.0937967300415039,-0.07498371601104736
1781554588046222000,23.78822216796875,-0.09717202186584473,0.38756847381591797,0.07027697563171387
1781554588094737000,23.83673681640625,0.17983412742614746,0.4004249572753906,-0.2608903646469116
1781554588143251700,23.885251708984374,0.1454622745513916,-0.05817222595214844,-0.1414271593093872
1781554588191766800,23.933766845703126,0.26393258571624756,0.012792587280273438,-0.2600255012512207
1781554588240281300,23.98228125,0.45311450958251953,-0.04219818115234375,-0.47690701484680176
1781554588288796200,24.030796142578126,0.549591064453125,-0.6093511581420898,-0.2662198543548584
1781554588337311200,24.079311279296874,0.34057724475860596,0.15090179443359375,-0.5752882957458496
1781554588385826000,24.127825927734374,0.5865538120269775,0.194488525390625,-0.43587422370910645
1781554588434340600,24.176340576171874,0.8712211847305298,0.3569183349609375,-0.7030613422393799
1781554588482855700,24.224855712890626,0.87506103515625,0.4714632034301758,-1.3312098979949951
1781554588531370500,24.27337060546875,1.1920663118362427,0.7018394470214844,-1.3913943767547607
1781554588579885300,24.32188525390625,1.1002423763275146,0.18606090545654297,-1.54508376121521
1781554588628400000,24.370400146484375,0.8363807201385498,-0.4178800582885742,-2.1130480766296387
1781554588676915000,24.4189150390625,0.3928067684173584,-0.7569999694824219,-2.2899181842803955
1781554588725429800,24.4674296875,-0.24007940292358398,-1.7739591598510742,-2.1172194480895996
1781554588773944600,24.515944580078123,1.0024420022964478,-2.8777828216552734,-1.2672860622406006
1781554588822459400,24.56445947265625,1.0494346618652344,-0.8788270950317383,-0.058551788330078125
1781554588870974200,24.61297412109375,-0.12248897552490234,-0.622654914855957,0.9347431659698486
1781554588919489000,24.661489013671876,0.6417832374572754,1.0222187042236328,1.3888931274414062
1781554588968003800,24.71000390625,0.8020229339599609,0.47589874267578125,1.423317790031433
1781554589016518700,24.7585185546875,1.205214023590088,0.8296318054199219,0.4563239812850952
1781554589065033500,24.807033447265624,0.9611973762512207,1.5210351943969727,-0.41608762741088867
1781554589113548300,24.85554833984375,1.5820629596710205,0.8012361526489258,-0.7563855051994324
1781554589162063000,24.90406298828125,2.0208568572998047,-0.13309383392333984,-0.13548752665519714
1781554589210578000,24.952577880859376,2.0303220748901367,-0.08726215362548828,-0.23400405049324036
1781554589259092700,25.0010927734375,2.534416437149048,-0.6558408737182617,0.2286534160375595
1781554589307607800,25.04960791015625,2.111463785171509,-0.8263864517211914,-2.287917137145996
1781554589356122600,25.09812255859375,1.827335238456726,-2.8981313705444336,-2.7885591983795166
1781554589404637400,25.146637451171873,-1.097001075744629,-2.2441530227661133,-1.575981855392456
1781554589453152300,25.19515234375,-3.081979751586914,3.771451473236084,3.5238327980041504
1781554589501667000,25.2436669921875,-3.533787250518799,-3.370692253112793,1.713423490524292
1781554589550182000,25.292181884765625,-2.505532741546631,-0.5250492095947266,0.10768425464630127
1781554589598696700,25.34069677734375,-0.3583102226257324,3.323214530944824,0.09712767601013184
1781554589647211500,25.38921142578125,0.8187899589538574,1.2340564727783203,0.6434903144836426
1781554589695726300,25.437726318359374,0.3264697790145874,1.8717412948608398,0.49113237857818604
1781554589744241200,25.4862412109375,1.5404284000396729,2.022458076477051,0.11610984802246094
1781554589792756000,25.534755859375,1.7310259342193604,1.1867990493774414,-2.114220142364502
1781554589841271000,25.58327099609375,-0.5008728504180908,-1.743626594543457,-1.7155263423919678
1781554589889785600,25.63178564453125,0.49200212955474854,-4.5099382400512695,-0.7700226306915283
1781554589938300400,25.680300537109375,-0.5179803371429443,-6.243198394775391,1.3695285320281982
1781554589986815500,25.7288154296875,-2.3916778564453125,-0.3719139099121094,1.6117993593215942
1781554590035330300,25.777330322265627,-0.15958285331726074,-0.28055286407470703,3.4578680992126465
1781554590083845000,25.82584521484375,1.3881806135177612,-0.2161703109741211,0.8934134244918823
1781554590132360000,25.87435986328125,0.13841533660888672,1.9570951461791992,0.12819981575012207
1781554590180874800,25.922874755859375,1.3650565147399902,2.1745691299438477,0.2164309024810791
1781554590229389600,25.9713896484375,2.154977560043335,0.9779500961303711,-0.8486001491546631
1781554590277904400,26.019904296875,2.9632391929626465,0.6269073486328125,-0.9142972826957703
1781554590326419200,26.068419189453124,2.089038610458374,0.0902862548828125,-0.2510245144367218
1781554590374934000,26.11693408203125,2.6696012020111084,1.8388104438781738,-3.8382394313812256
1781554590423448800,26.16544873046875,0.9409959316253662,-3.461627960205078,-3.3079938888549805
1781554590471963600,26.213963623046876,-1.6304373741149902,-1.9034852981567383,-0.21053051948547363
1781554590520478700,26.262478759765624,-2.6547012329101562,2.512721538543701,5.6723456382751465
1781554590568993500,26.31099365234375,-4.304479598999023,-5.077425003051758,0.9989882707595825
1781554590617508400,26.35950830078125,-3.0358524322509766,-2.2221546173095703,0.5874804258346558
1781554590666023200,26.408023193359377,0.13550448417663574,3.9576616287231445,-0.19408488273620605
1781554590714538000,26.4565380859375,1.266720175743103,4.168394565582275,0.1508164405822754
1781554590763052800,26.505052734375,0.9279411435127258,2.104820728302002,0.5418652296066284
1781554590811567600,26.553567626953125,2.220764636993408,0.7689723968505859,-0.4912550449371338
1781554590860082400,26.60208251953125,0.5845063924789429,-0.4611787796020508,-4.1033806800842285
1781554590908597500,26.650597412109374,2.492781639099121,-3.869429588317871,0.5658285617828369
1781554590957112000,26.699112060546874,-1.2085322141647339,-6.9645185470581055,-0.20980286598205566
1781554591005627000,26.747626953125,-1.5737355947494507,-2.150899887084961,1.1151220798492432
1781554591054142000,26.796141845703126,-0.9353901147842407,-1.0110759735107422,2.920518398284912
1781554591102656800,26.84465673828125,0.8353326320648193,0.12534046173095703,2.549950122833252
1781554591151171600,26.893171630859374,0.5541868209838867,1.5919904708862305,1.8268237113952637
1781554591199686400,26.941686279296874,0.9931333065032959,2.716790199279785,0.22208952903747559
1781554591248201200,26.990201171875,1.4921529293060303,1.490778923034668,-0.19445621967315674
1781554591296716000,27.038716064453126,1.8816235065460205,-0.1599140167236328,0.051754117012023926
1781554591345230800,27.08723095703125,2.905411720275879,0.2025594711303711,-1.4920063018798828
1781554591393745700,27.13574560546875,4.294915199279785,0.9682741165161133,-3.6783037185668945
1781554591442260700,27.1842607421875,1.3522675037384033,-3.406862258911133,-3.4760243892669678
1781554591490775300,27.232775390625,0.7680418491363525,-2.430363655090332,-1.004266619682312
1781554591539290400,27.281290283203123,-2.70717716217041,4.059399604797363,6.217411518096924
1781554591587805200,27.32980517578125,-4.389301776885986,-6.262396812438965,0.7349787354469299
1781554591636320000,27.378320068359375,-3.1453542709350586,-1.7790098190307617,0.45047682523727417
1781554591684834800,27.426834716796876,-0.08617961406707764,5.135048866271973,-0.8062262535095215
1781554591733349600,27.475349609375,1.5905309915542603,2.2631406784057617,0.48224306106567383
1781554591781864700,27.52386474609375,0.8858513832092285,2.3883132934570312,0.3541523218154907
1781554591830379300,27.572379150390624,2.2685883045196533,1.3102474212646484,-0.8439953327178955
1781554591878894300,27.620894287109376,1.7571358680725098,-0.6488256454467773,-3.8732521533966064
1781554591927409200,27.6694091796875,1.78733229637146,-3.049074172973633,-0.8201422691345215
1781554591975924000,27.717924072265625,-0.8741145133972168,-6.932681083679199,0.42435717582702637
1781554592024438800,27.766438720703125,-1.8974945545196533,-2.981229782104492,1.6556872129440308
1781554592072953600,27.81495361328125,-1.3432884216308594,-0.2232522964477539,2.5626726150512695
1781554592121468400,27.863468505859377,0.9853830337524414,-0.7294750213623047,2.6536905765533447
1781554592169983200,27.911983154296873,0.9865983724594116,1.600942611694336,1.406010627746582
1781554592218498000,27.960498046875,0.8548862934112549,2.2204675674438477,1.2013696432113647
1781554592267013000,28.00901318359375,2.0516281127929688,1.344822883605957,-0.7314251661300659
1781554592315528000,28.05752783203125,2.496431827545166,-1.6292171478271484,-0.23005664348602295
1781554592364042800,28.106042724609374,3.131260871887207,2.0206236839294434,-0.638109564781189
1781554592412557600,28.1545576171875,3.7790045738220215,2.1687560081481934,-3.728515863418579
1781554592461072400,28.203072265625,0.9648103713989258,-3.1895551681518555,-3.944608211517334
1781554592509587200,28.251587158203126,0.523735761642456,-1.5251502990722656,0.10050321370363235
1781554592558102300,28.300102294921874,-2.2230277061462402,3.6139965057373047,7.374339580535889
1781554592606617000,28.3486171875,-4.0005950927734375,-8.396323204040527,-0.09983766078948975
1781554592655132000,28.3971318359375,-3.6499171257019043,-2.042569160461426,0.31362032890319824
1781554592703646700,28.445646728515626,0.2285444736480713,4.2643914222717285,-1.6901438236236572
1781554592752161500,28.49416162109375,2.140711545944214,3.1473770141601562,-0.13074827194213867
1781554592800676400,28.54267626953125,1.1691603660583496,2.6140427589416504,1.2645028829574585
1781554592849191400,28.59119140625,2.2110424041748047,1.2795352935791016,0.5544908046722412
1781554592897706200,28.639706298828123,2.340494155883789,0.13162803649902344,-3.650698661804199
1781554592946221000,28.688220947265624,1.127551794052124,-3.6891250610351562,-1.2576401233673096
1781554592994735900,28.73673583984375,0.6348825693130493,-8.296477317810059,0.5222518444061279
1781554593043250700,28.785250732421876,-0.7351589202880859,-2.595661163330078,1.2678802013397217
1781554593140280300,28.8822802734375,1.3730273246765137,-0.13481712341308594,2.1008496284484863
1781554593188795400,28.93079541015625,1.710350751876831,1.8022522926330566,1.1717815399169922
1781554593237310200,28.979310302734376,1.5589511394500732,3.4882049560546875,0.7887474298477173
1781554593285825000,29.027824951171876,1.9438037872314453,2.5154924392700195,-0.6359918117523193
1781554593334339800,29.07633984375,2.5181171894073486,-2.2909040451049805,0.8295923471450806
1781554593382855000,29.12485498046875,3.18878173828125,-1.2676763534545898,0.22342267632484436
1781554593431369500,29.173369384765625,5.17183780670166,2.8937888145446777,-3.4650111198425293
1781554593479884500,29.221884521484377,1.4820234775543213,-3.288294792175293,-4.673260688781738
1781554593528399400,29.2703994140625,-0.4854860305786133,-1.1635808944702148,0.022633731365203857
1781554593576914200,29.3189140625,-1.1152963638305664,3.160222053527832,7.25563907623291
1781554593625429200,29.36742919921875,-3.5951781272888184,-8.49428653717041,-0.5096274614334106
1781554593673944000,29.415944091796874,-3.4962430000305176,-1.7595691680908203,0.1322023868560791
1781554593722459000,29.464458984375,0.4248124361038208,4.60713005065918,-1.9421600103378296
1781554593770973700,29.5129736328125,2.1797404289245605,4.193530082702637,-0.03186666965484619
1781554593819488800,29.56148876953125,1.2345086336135864,2.941056728363037,1.234254240989685
1781554593868003600,29.610003662109374,2.0801737308502197,0.6188793182373047,0.5834509134292603
1781554593916518400,29.658518310546874,1.8121049404144287,-1.387801170349121,-3.2512130737304688
1781554593965033200,29.707033203125,2.063122034072876,-3.788546562194824,-0.2976236343383789
1781554594013548000,29.755548095703126,-0.9319387674331665,-9.633923530578613,-0.09731173515319824
1781554594062062800,29.804062744140627,-1.081531047821045,-0.9681062698364258,0.9011421203613281
1781554594110578000,29.852577880859375,-0.8547673225402832,-0.5884847640991211,2.9005537033081055
1781554594159092700,29.9010927734375,1.1014503240585327,-0.1167449951171875,2.2313802242279053
1781554594207607600,29.949607666015623,1.1336712837219238,2.0135436058044434,2.24094557762146
1781554594256122400,29.998122314453123,1.496330738067627,3.2961626052856445,0.3872888386249542
1781554594304637200,30.04663720703125,2.3595147132873535,2.015535354614258,-0.918831467628479
1781554594353152300,30.09515234375,2.5489370822906494,-0.8221092224121094,-0.982020378112793
1781554594401667000,30.1436669921875,4.2085137367248535,0.6871004104614258,-1.6707744598388672
1781554594450182000,30.192181884765624,2.9377822875976562,-0.2612419128417969,-5.555356502532959
1781554594498697000,30.240697021484376,1.4556883573532104,-4.099976539611816,-3.799959182739258
1781554594547211800,30.289211669921876,0.48902463912963867,1.4573211669921875,2.4820780754089355
1781554594595726600,30.3377265625,-2.108945846557617,1.3960208892822266,5.721121788024902
1781554594644241700,30.38624169921875,-4.905121803283691,-8.378704071044922,-1.0870025157928467
1781554594692756200,30.434756103515625,-2.6014504432678223,-1.022109031677246,-0.632503867149353
1781554594741271300,30.483271240234377,1.2279973030090332,4.795034408569336,-0.7900717258453369
1781554594789786000,30.5317861328125,1.9190109968185425,3.89957332611084,-0.4905184507369995
1781554594838301000,30.580301025390625,1.7772146463394165,2.809368133544922,0.6638312339782715
1781554594886816000,30.62881591796875,2.991908550262451,0.6307201385498047,-0.16760802268981934
1781554594935330800,30.677330810546874,0.9624207019805908,-2.353560447692871,-3.7189953327178955
1781554594983845600,30.725845703125,2.221879243850708,-5.018747329711914,0.8260971307754517
1781554595032360400,30.7743603515625,-0.9450850486755371,-7.56205940246582,1.3732229471206665
1781554595080875500,30.82287548828125,-1.4331843852996826,-0.6448984146118164,0.8157286643981934
1781554595129390300,30.871390380859374,0.5874669551849365,-1.0091838836669922,3.636542558670044
1781554595177905200,30.9199052734375,1.5116519927978516,0.573603630065918,1.9450833797454834
1781554595226420200,30.968420166015626,1.170410394668579,2.9562606811523438,1.3453985452651978
1781554595274935000,31.01693505859375,1.9039407968521118,3.056164264678955,-0.42701542377471924
1781554595323449900,31.065449951171875,2.62111234664917,-0.5388526916503906,-0.38382208347320557
1781554595371964700,31.113964599609375,2.7709946632385254,-1.091446876525879,-0.07571952044963837
1781554595420479700,31.162479736328127,3.533292770385742,1.043135643005371,-1.2223010063171387
1781554595468994600,31.21099462890625,3.8753321170806885,-1.2123384475708008,-4.798480033874512
1781554595517509400,31.25950927734375,-0.026620149612426758,-3.6112070083618164,-3.372384548187256
1781554595566024400,31.3080244140625,-0.3662528991699219,2.160032272338867,3.0377423763275146
1781554595614539300,31.356539306640624,-2.233426332473755,0.15430927276611328,5.676027774810791
1781554595663054000,31.40505419921875,-4.46201229095459,-7.597156524658203,-1.885898470878601
1781554595711569200,31.453569091796876,-1.5818737745285034,1.584029197692871,-1.6255210638046265
1781554595760084000,31.502083984375,1.7682831287384033,5.081142425537109,-0.7400001287460327
1781554595808598800,31.550598876953124,1.8458874225616455,2.084148406982422,0.3372844457626343
1781554595857113900,31.59911376953125,1.3318480253219604,2.268183708190918,0.8280045986175537
1781554595905628700,31.647628662109376,2.5518088340759277,0.8021249771118164,-1.3844298124313354
1781554595954143500,31.6961435546875,0.9941867589950562,-1.6971817016601562,-2.987710475921631
1781554596002658600,31.744658447265625,2.389855146408081,-4.415060997009277,-0.06378746032714844
1781554596051173400,31.79317333984375,-0.8046996593475342,-7.7877349853515625,0.5604857206344604
1781554596099688200,31.841688232421873,-1.3869690895080566,0.056763648986816406,0.004437446594238281
1781554596148203000,31.890203125,-0.20910882949829102,-0.34813499450683594,2.750974178314209
1781554596196718000,31.938718017578125,1.5924679040908813,0.8638076782226562,2.4155919551849365
1781554596245233000,31.98723291015625,1.2453241348266602,2.2022228240966797,1.7131898403167725
1781554596293747700,32.03574780273438,1.3939807415008545,2.581221580505371,0.31519174575805664
1781554596342262800,32.0842626953125,1.956201434135437,0.15236282348632812,-0.9755022525787354
1781554596390777600,32.13277758789062,3.075230121612549,-1.1148338317871094,-0.9389955401420593
1781554596439292700,32.18129272460938,3.2031869888305664,0.9402351379394531,-1.102488398551941
1781554596487807500,32.229807373046874,4.484280586242676,-0.35581111907958984,-3.7464654445648193
1781554596536322300,32.278322265625,1.850458025932312,-3.6599931716918945,-4.032689571380615
1781554596584837400,32.32683740234375,-0.38810038566589355,-0.6907978057861328,0.3059171140193939
1781554596633352200,32.375352294921875,-2.7606468200683594,4.3624138832092285,5.329920768737793
1781554596681867300,32.4238671875,-3.6088812351226807,-8.514711380004883,-0.7347488403320312
1781554596730382000,32.47238208007813,-2.7024757862091064,-2.1626157760620117,-0.26034295558929443
1781554596778897000,32.52089697265625,1.3825607299804688,5.871093273162842,-2.800737142562866
1781554596827412000,32.56941186523437,1.9598078727722168,3.068812847137451,-0.3438190221786499
1781554596875926800,32.6179267578125,1.7095375061035156,2.754086494445801,0.7168149948120117
1781554596924441600,32.666441650390624,2.3064169883728027,1.569014549255371,-0.4412428140640259
1781554596972956700,32.71495678710937,2.2757914066314697,-1.2610864639282227,-3.966261625289917
1781554597021471500,32.763471435546876,2.4280319213867188,-3.9137868881225586,-0.23975539207458496
1781554597069986600,32.811986572265624,-1.5481407642364502,-8.855229377746582,0.45348668098449707
1781554597118501400,32.86050146484375,-1.3556828498840332,-0.8980016708374023,-0.08215856552124023
1781554597167016200,32.90901611328125,-0.5560910701751709,-1.1220207214355469,2.976269245147705
1781554597215531300,32.95753125,1.918229103088379,0.3209209442138672,2.0445382595062256
1781554597264046000,33.00604614257813,1.8133167028427124,2.5226612091064453,1.145614504814148
1781554597312561200,33.05456103515625,1.7741436958312988,2.5992746353149414,0.3305540680885315
1781554597361076000,33.10307592773437,1.3059272766113281,1.8850679397583008,-0.19697096943855286
1781554597409590800,33.1515908203125,2.8722357749938965,-1.422769546508789,0.1890721321105957
1781554597458105600,33.200105712890625,3.9804391860961914,-0.19575214385986328,-0.03638219088315964
1781554597506620700,33.24862060546875,3.818627119064331,0.8305530548095703,-4.542374610900879
1781554597555135700,33.2971357421875,2.785933256149292,-4.4204559326171875,-4.202363967895508
1781554597603650600,33.345650634765626,0.3996562957763672,-1.960951805114746,-1.408325433731079
1781554597652165400,33.39416528320312,-1.6801986694335938,4.725061416625977,3.441798448562622
1781554597700680400,33.44268041992188,-3.2588727474212646,-5.356819152832031,1.9423887729644775
1781554597749195300,33.4911953125,-3.774156332015991,-3.42434024810791,0.8233519196510315
1781554597797710000,33.5397099609375,0.8856831789016724,3.8498854637145996,-3.2269082069396973
1781554597846225200,33.58822509765625,1.1916825771331787,4.1500396728515625,-1.647445797920227
1781554597894740200,33.636740234375,1.6291173696517944,2.8946666717529297,-0.4724166989326477
1781554597943255000,33.68525512695312,3.2965922355651855,0.6586771011352539,0.37645402550697327
1781554597991769900,33.73376977539063,2.4691526889801025,-1.1122093200683594,-2.35036301612854
1781554598040285000,33.782284912109375,3.468228816986084,-2.5529537200927734,0.7914711833000183
1781554598137314600,33.879314453125,-2.2200052738189697,-3.0882749557495117,-1.015404462814331
1781554598185829600,33.92782958984375,1.010445237159729,-0.2978973388671875,3.6130480766296387
1781554598234344700,33.9763447265625,2.0089900493621826,-0.3422689437866211,2.1153340339660645
1781554598282859500,34.02485961914063,2.4748082160949707,1.2725105285644531,-1.3998136520385742
1781554598331374600,34.07337451171875,0.48821043968200684,2.267472267150879,0.7389183044433594
1781554598379889400,34.12188940429687,2.5320444107055664,1.687896728515625,1.4044559001922607
1781554598428404500,34.17040454101563,3.7162086963653564,-0.21397781372070312,-0.6045846343040466
1781554598476919300,34.218919189453125,4.650750160217285,0.18937397003173828,-0.5501672029495239
1781554598525434400,34.26743432617187,3.9520230293273926,1.2290849685668945,-4.837917327880859
1781554598573949000,34.31594897460938,2.135399341583252,-3.157381057739258,-4.838132858276367
1781554598622463700,34.36446362304687,-0.5524213314056396,0.6642780303955078,1.5595970153808594
1781554598670978800,34.41297875976562,-4.407154560089111,-0.015117645263671875,3.9962031841278076
1781554598719493600,34.46149365234375,-5.948966026306152,-9.889569282531738,-1.8362996578216553
1781554598768008700,34.5100087890625,-0.8344773054122925,-1.5541095733642578,0.20206600427627563
1781554598816523500,34.5585234375,1.0419386625289917,6.843206405639648,-0.2359473705291748
1781554598865038600,34.60703857421875,1.263554573059082,5.608002185821533,-1.1777628660202026
1781554598913553400,34.655553466796874,2.7744712829589844,1.7599072456359863,0.37507641315460205
1781554598962068500,34.704068359375,2.6430697441101074,-0.8009967803955078,0.35506218671798706
1781554599010583300,34.752583251953126,1.6438664197921753,-1.9227828979492188,-3.9576168060302734
1781554599059098400,34.801098388671875,1.8385000228881836,-5.87412166595459,0.4471663236618042
1781554599107613200,34.84961328125,0.25263214111328125,-6.44883918762207,0.778052031993866
1781554599156128300,34.89812817382813,-1.0606627464294434,-0.08206558227539062,-1.0470597743988037
1781554599204643000,34.94664306640625,2.1610629558563232,-0.4971790313720703,6.098906517028809
1781554599253158100,34.995158203125,4.191319942474365,2.017727851867676,0.23799213767051697
1781554599301673000,35.0436728515625,1.6163744926452637,1.3553123474121094,-0.050205081701278687
1781554599350188000,35.09218798828125,1.5908691883087158,2.7110390663146973,-0.020276367664337158
1781554599398702800,35.14070288085937,2.3746984004974365,0.861903190612793,-0.17247667908668518
1781554599447218000,35.18921801757813,3.184037923812866,-1.757187843322754,0.13420706987380981
1781554599495733000,35.23773291015625,4.642371654510498,0.6794958114624023,-0.09001785516738892
1781554599544247800,35.28624780273437,4.260554313659668,-1.0565681457519531,-5.239943504333496
1781554599592763000,35.33476293945313,1.6881470680236816,-4.780670166015625,-2.91654634475708
1781554599641277700,35.383277587890625,-2.021048069000244,2.394275665283203,1.983919620513916
1781554599689792800,35.43179272460937,-2.4252028465270996,0.5162420272827148,4.28333854675293
1781554599738307600,35.4803076171875,-5.4093451499938965,-8.960168838500977,-0.6308258771896362
1781554599786822700,35.52882275390625,-0.6232722997665405,2.160010814666748,-2.206679105758667
1781554599835337500,35.57733740234375,1.6401606798171997,5.211248874664307,-2.5239217281341553
1781554599883852500,35.6258525390625,1.383102297782898,3.4200124740600586,-0.6818985939025879
1781554599932367400,35.674367431640626,2.582091808319092,1.6524391174316406,1.0183286666870117
1781554599980882400,35.72288232421875,2.701197385787964,0.4867258071899414,-1.32624089717865
1781554600029397200,35.77139721679688,1.300853967666626,-4.0378923416137695,-4.386454105377197
1781554600077912300,35.819912353515626,0.4259219765663147,-9.25747299194336,2.2331953048706055
1781554600126427400,35.868427490234374,-0.49119043350219727,-0.31913089752197266,0.17905351519584656
1781554600174942200,35.91694213867188,-0.9871313571929932,-2.296579360961914,2.7310757637023926
1781554600223457300,35.96545727539063,1.8264033794403076,1.1647968292236328,2.0529913902282715
1781554600271972000,36.01397216796875,3.1902525424957275,1.9258460998535156,-0.7452590465545654
1781554600320487200,36.06248706054687,1.4746588468551636,2.524205207824707,0.12857651710510254
1781554600369002000,36.111001953125,2.2271056175231934,2.3067283630371094,0.6029716730117798
1781554600417517000,36.15951708984375,2.7710018157958984,-0.7236185073852539,0.6000844240188599
1781554600466032000,36.2080322265625,3.2247629165649414,-0.6949071884155273,-1.1238245964050293
1781554600514547000,36.256546875,4.394219398498535,1.501295566558838,-3.897395133972168
1781554600563062000,36.30506201171875,3.068784475326538,-3.122343063354492,-4.015820026397705
1781554600611576800,36.35357690429687,0.6728425025939941,-2.6668529510498047,-0.8642098307609558
1781554600660092000,36.402091796875,-1.6921961307525635,4.477374076843262,3.0338516235351562
1781554600708607000,36.45060693359375,-4.233094215393066,-6.833019256591797,1.4974288940429688
1781554600757121800,36.49912182617187,-4.603054523468018,-5.7088470458984375,0.4841145873069763
1781554600805636900,36.54763696289063,0.19551420211791992,4.359583377838135,-2.9334375858306885
1781554600854151700,36.596151611328125,1.6512463092803955,4.918364524841309,-2.5138580799102783
1781554600902666800,36.64466674804687,1.2897549867630005,3.213407516479492,0.037788182497024536
1781554600951181800,36.69318188476562,3.01344633102417,1.4140558242797852,1.390873908996582
1781554600999696600,36.741696533203125,1.9110779762268066,-0.6298303604125977,-3.6140329837799072
1781554601048211700,36.790211669921874,0.5046954154968262,-5.014011383056641,-2.921586751937866
1781554601096726500,36.8387265625,2.589395523071289,-10.390863418579102,2.232349157333374
1781554601145241600,36.88724169921875,-1.7982006072998047,1.1851062774658203,-0.45553329586982727
1781554601193756400,36.93575634765625,0.28630292415618896,-0.7891979217529297,3.4160332679748535
1781554601242271500,36.984271484375,2.0980257987976074,1.6554450988769531,1.499171257019043
1781554601290786600,37.03278662109375,2.5301005840301514,1.179208755493164,-0.5409316420555115
1781554601339301600,37.081301513671875,1.7488147020339966,2.7509636878967285,-0.13002705574035645
1781554601387816400,37.12981640625,1.772462248802185,1.9128079414367676,0.5059046745300293
1781554601436331500,37.17833154296875,3.0756309032440186,-0.31181907653808594,-0.06667077541351318
1781554601484846300,37.226846435546875,3.485257148742676,-0.35073184967041016,-0.7526713013648987
1781554601533361400,37.275361328125,4.520453453063965,0.6260995864868164,-4.27843713760376
1781554601581876500,37.32387646484375,2.394052505493164,-4.127758979797363,-3.759669780731201
1781554601630391600,37.3723916015625,0.09646320343017578,-1.6791210174560547,0.5500179529190063
1781554601678906400,37.42090625,-1.1091082096099854,5.304903984069824,3.3103418350219727
1781554601727421400,37.46942138671875,-4.110633373260498,-8.065227508544922,-0.9090580344200134
1781554601775936300,37.517936279296876,-4.088986396789551,-3.9088096618652344,0.8163648247718811
1781554601824451300,37.566451416015624,0.16205430030822754,4.3785481452941895,-2.034700632095337
1781554601872966100,37.61496606445313,1.438589334487915,3.775937080383301,-2.021362543106079
1781554601921481200,37.66348120117188,1.4173583984375,2.1428980827331543,-0.4441233277320862
1781554601969996300,37.711996337890625,3.0775647163391113,1.6063852310180664,0.442767858505249
1781554602018511000,37.76051098632813,1.8808355331420898,-1.2284154891967773,-4.308741092681885
1781554602067026200,37.80902612304688,1.139533281326294,-5.2689666748046875,-1.0343480110168457
1781554602115541000,37.857541015625,1.052915334701538,-8.93557357788086,2.581840753555298
1781554602164056000,37.90605615234375,-2.0359387397766113,0.8094472885131836,-0.3271351158618927
1781554602212571100,37.95457104492188,0.27242136001586914,-0.4326601028442383,5.796339511871338
1781554602261086200,38.003086181640626,3.2086074352264404,1.823197364807129,0.2911357283592224
1781554602309601000,38.05160107421875,1.716967225074768,1.715937614440918,-0.28873199224472046
1781554602358116000,38.1001162109375,1.8642410039901733,2.3690457344055176,0.7264894247055054
1781554602406631200,38.148631103515626,1.988435983657837,1.4421534538269043,-0.00789177417755127
1781554602455146000,38.19714599609375,3.132075071334839,-0.4445810317993164,-1.3669136762619019
1781554602503661000,38.2456611328125,3.1665585041046143,-0.6479434967041016,-1.0832831859588623
1781554602552176000,38.29417602539063,4.23423433303833,0.39592838287353516,-2.277783155441284
1781554602600691000,38.34269091796875,3.0504367351531982,-3.185124397277832,-4.335073947906494
1781554602649206000,38.3912060546875,0.3407759666442871,-4.254091262817383,-0.8736093044281006
1781554602697721000,38.43972119140625,-1.5007140636444092,5.0051164627075195,3.9822442531585693
1781554602746236000,38.48823583984375,-3.8634872436523438,-4.455340385437012,1.6658904552459717
1781554602794751000,38.5367509765625,-3.5959930419921875,-5.017401695251465,-0.15402758121490479
1781554602843265800,38.58526586914063,0.4244488477706909,3.736123561859131,-3.187727928161621
1781554602891780900,38.63378076171875,1.685835838317871,3.8829407691955566,-1.7906193733215332
1781554602940296000,38.6822958984375,1.3008004426956177,2.003209114074707,0.2028750479221344
1781554602988811000,38.73081103515625,2.5878591537475586,1.9874968528747559,0.720986545085907
1781554603037325800,38.77932592773438,2.6325008869171143,-0.3454704284667969,-3.20304012298584
1781554603085841000,38.8278408203125,0.9892878532409668,-4.887677192687988,-3.079564094543457
1781554603134355700,38.87635571289063,1.684252142906189,-8.85302448272705,2.4655559062957764
1781554603182870800,38.92487084960938,-0.4244968891143799,0.42203807830810547,-0.10709987580776215
1781554603231385900,38.9733857421875,-0.49743080139160156,-1.1172523498535156,2.693057060241699
1781554603279901000,39.02190087890625,2.0449540615081787,0.8455657958984375,2.14194655418396
1781554603328415700,39.07041577148438,2.8683671951293945,1.339951515197754,-0.7394615411758423
1781554603376930800,39.118930908203126,1.4257690906524658,2.070918083190918,0.7398960590362549
1781554603425446000,39.16744580078125,1.8373397588729858,2.0867562294006348,0.5891036987304688
1781554603473960700,39.21596069335938,2.8958606719970703,-0.0299224853515625,-0.15648621320724487
1781554603522475800,39.264475830078126,2.9420251846313477,-0.2600221633911133,-0.34757328033447266
1781554603570990800,39.312990966796875,4.474940299987793,1.1010847091674805,-2.389413595199585
1781554603619506000,39.361505859375,3.2567973136901855,-2.95339298248291,-4.314565658569336
1781554603668020700,39.41002075195313,0.3318495750427246,-4.380733489990234,-1.3139759302139282
1781554603716535800,39.458535888671875,-1.0216972827911377,4.364707946777344,3.0766828060150146
1781554603765051000,39.50705078125,-2.456552505493164,-2.7996826171875,2.746128559112549
1781554603813565700,39.55556567382813,-4.65787935256958,-6.843896865844727,-0.8473115563392639
1781554603862080800,39.604080810546876,-0.22642457485198975,3.197932243347168,-2.649526357650757
1781554603910595800,39.652595947265624,1.7859573364257812,4.630341053009033,-1.788492202758789
1781554603959111000,39.70111083984375,1.0599770545959473,2.837954521179199,-0.2943466603755951
1781554604007625700,39.749625732421876,2.2128162384033203,0.9242591857910156,1.205674648284912
1781554604056140800,39.798140869140624,2.287055015563965,-0.6332778930664062,-2.536709785461426
1781554604104656000,39.84665576171875,1.0597896575927734,-3.98561954498291,-3.9391555786132812
1781554604153170700,39.89517065429688,1.557161569595337,-6.796516418457031,0.5405448079109192
1781554604201685800,39.943685791015625,-0.3013596534729004,-1.8913564682006836,1.7308216094970703
1781554604250200800,39.99220092773437,-1.1808826923370361,-1.6473731994628906,1.6782379150390625
1781554604298716000,40.0407158203125,1.353044033050537,0.7325296401977539,3.4202775955200195
1781554604347230700,40.089230712890625,3.7063698768615723,1.5853877067565918,-0.40907716751098633
1781554604395745800,40.137745849609374,1.2894638776779175,2.669076442718506,0.20915043354034424
1781554604444260900,40.1862607421875,1.7977213859558105,2.3762850761413574,-0.004334807395935059
1781554604492775700,40.234775634765626,2.8254239559173584,0.3502950668334961,-0.39030390977859497
1781554604541290800,40.283290771484374,2.9387006759643555,-0.5021495819091797,-1.1329714059829712
1781554604589805800,40.33180590820312,4.133228778839111,-0.29692840576171875,-1.8873507976531982
1781554604638321000,40.38032080078125,3.6868062019348145,-1.8749828338623047,-4.137044429779053
1781554604686836000,40.4288359375,1.7344777584075928,-4.271960258483887,-1.4322264194488525
1781554604735350800,40.47735083007812,0.01575922966003418,1.269862174987793,1.2962727546691895
1781554604783865900,40.52586596679687,-1.5820279121398926,3.733490467071533,2.976357936859131
1781554604832381000,40.574380859375,-5.232730388641357,-8.684542655944824,-0.39336448907852173
1781554604880896000,40.62289599609375,-1.8451945781707764,-2.1129722595214844,-0.3626481294631958
1781554604929411000,40.6714111328125,1.556394100189209,4.722279071807861,-2.0646169185638428
1781554604977926000,40.71992578125,1.5015709400177002,3.837517738342285,-1.2779992818832397
1781554605026441000,40.76844091796875,1.6254891157150269,2.4796605110168457,0.021818697452545166
1781554605074956000,40.8169560546875,2.4469597339630127,0.5701513290405273,-0.2495422661304474
1781554605123471000,40.86547119140625,1.5948430299758911,-2.65700626373291,-4.2840657234191895
1781554605171986200,40.913986083984376,1.7308952808380127,-4.334076881408691,-0.5393857955932617
1781554605220501000,40.9625009765625,0.36612260341644287,-6.5290985107421875,2.810051441192627
1781554605269016000,41.01101611328125,-2.1807050704956055,-0.4161100387573242,-0.37188342213630676
1781554605317531100,41.05953125,0.4824773073196411,-1.2279081344604492,4.876177787780762
1781554605366046200,41.108046142578125,3.7115392684936523,1.037282943725586,-0.45529043674468994
1781554605414561300,41.156561279296874,1.376428484916687,2.425248622894287,0.07804536819458008
1781554605463076400,41.20507641601562,1.6791059970855713,2.941129684448242,0.6255460977554321
1781554605511591400,41.25359130859375,2.695966958999634,0.7188730239868164,0.21851742267608643
1781554605560106200,41.302106201171874,3.1268906593322754,-0.5977039337158203,-0.8556042313575745
1781554605608621300,41.35062133789062,4.146047592163086,0.23180294036865234,-1.676809549331665
1781554605657136400,41.39913647460938,3.842041492462158,-1.5252904891967773,-4.73032808303833
1781554605705651500,41.4476513671875,1.6461665630340576,-4.310735702514648,-2.0746009349823
1781554605754166500,41.49616650390625,-0.2668795585632324,1.5622539520263672,1.3608344793319702
1781554605802681600,41.544681640625,-1.6919400691986084,3.066685199737549,3.6361703872680664
1781554605851196700,41.59319677734375,-5.3255205154418945,-9.413104057312012,0.2651951313018799
1781554605899711700,41.641711669921875,-1.973018765449524,-1.9498729705810547,-1.3615078926086426
1781554605948226800,41.690226806640624,1.390348196029663,5.971444129943848,-3.079470634460449
1781554605996741600,41.73874169921875,1.687117099761963,3.544452667236328,-1.169754981994629
1781554606045257000,41.78725708007813,1.9706029891967773,1.8254547119140625,0.834990382194519
1781554606093771800,41.835771728515624,2.2172367572784424,1.1521177291870117,-0.14896386861801147
1781554606142286800,41.88428686523437,1.5692758560180664,-2.4435081481933594,-4.261837959289551
1781554606190802000,41.93280200195313,1.0937399864196777,-6.041313171386719,-0.7757668495178223
1781554606239317000,41.98131689453125,1.5876680612564087,-6.538150787353516,3.465273380279541
1781554606287832000,42.02983203125,-2.021754741668701,0.5820636749267578,-0.9264066219329834
1781554606336347100,42.07834716796875,1.002314567565918,-0.46904468536376953,4.076055526733398
1781554606384862200,42.1268623046875,2.810685396194458,1.2528305053710938,-0.49280309677124023
1781554606433377300,42.175377197265625,1.4966778755187988,1.6808280944824219,-0.2721627950668335
1781554606481892400,42.223892333984374,2.1083168983459473,2.3316378593444824,0.41808831691741943
1781554606530407400,42.27240747070312,2.313359498977661,0.9905080795288086,-0.03659665584564209
1781554606578922500,42.32092260742188,2.5772345066070557,-0.0055217742919921875,0.347223162651062
1781554606627437600,42.3694375,4.280002117156982,-0.4266090393066406,-0.21188414096832275
1781554606675952600,42.41795263671875,4.490476131439209,0.4117927551269531,-5.474989891052246
1781554606724467700,42.4664677734375,2.0939159393310547,-4.031530380249023,-2.842352867126465
1781554606772982800,42.51498266601563,0.2616841793060303,-1.4516162872314453,0.909453272819519
1781554606821497900,42.563497802734375,-1.579552412033081,4.618062496185303,3.2305710315704346
1781554606870013000,42.61201293945312,-5.008084774017334,-8.113367080688477,-0.01944553852081299
1781554606918528000,42.66052807617187,-3.452594757080078,-3.3842763900756836,0.7353953123092651
1781554606967043000,42.70904296875,0.7343475818634033,4.310510635375977,-2.7403268814086914
1781554607015558100,42.75755810546875,1.690338134765625,3.529932975769043,-1.0130994319915771
1781554607064073200,42.8060732421875,1.4500257968902588,2.063157558441162,0.38347136974334717
1781554607112588300,42.85458837890625,2.540001392364502,1.4306449890136719,0.4367315173149109
1781554607161103400,42.903103271484376,1.9098317623138428,-1.2294464111328125,-3.386476755142212
1781554607209618400,42.951618408203124,1.4103530645370483,-4.076848983764648,-2.0384132862091064
1781554607258133500,43.00013354492187,2.937295436859131,-6.845122337341309,0.8038309812545776
1781554607306648600,43.04864868164063,-1.7696616649627686,-0.6743354797363281,0.5592138767242432
1781554607355163600,43.09716357421875,-0.5742952823638916,-1.474196434020996,3.011399984359741
1781554607403678700,43.1456787109375,1.9966094493865967,0.6333751678466797,1.7283105850219727
1781554607452193800,43.19419384765625,2.9535975456237793,1.3978595733642578,-0.4446532130241394
1781554607500708900,43.242708984375,1.841935634613037,3.0681557655334473,-0.05345714092254639
1781554607549224000,43.291223876953126,1.5901751518249512,2.3940963745117188,1.1706832647323608
1781554607597739300,43.3397392578125,2.632857322692871,-0.2808876037597656,-0.8601722717285156
1781554607646254300,43.38825439453125,2.6051926612854004,-0.7560892105102539,-0.634120523929596
1781554607694769400,43.43676928710938,4.333357810974121,0.23038673400878906,-0.635158360004425
1781554607743284200,43.4852841796875,3.7834784984588623,-3.1933202743530273,-4.639706611633301
1781554607791799600,43.533799560546875,1.4559383392333984,-3.8754587173461914,-1.9259265661239624
1781554607840314600,43.58231469726562,-1.4534204006195068,2.9954328536987305,0.9828265905380249
1781554607888829700,43.63082958984375,-2.6932265758514404,2.096569061279297,2.790067672729492
1781554607937344800,43.6793447265625,-5.791153907775879,-8.804426193237305,0.9262286424636841
1781554607985859800,43.72785986328125,-0.980086088180542,0.43279075622558594,-1.8848655223846436
1781554608034375000,43.776375,1.6628562211990356,5.548264026641846,-2.744565725326538
1781554608082890000,43.82488989257813,1.5717675685882568,2.290058135986328,-0.6480752229690552
1781554608131405000,43.873405029296876,1.7046937942504883,1.6192617416381836,0.4092823266983032
1781554608228438300,43.97043823242188,0.8750194907188416,-4.156869888305664,-5.015976905822754
1781554608276950500,44.01895043945313,2.002986431121826,-5.2852325439453125,0.04807859659194946
1781554608325465600,44.06746557617188,0.2546764612197876,-6.0351152420043945,2.511059284210205
1781554608373980700,44.115980712890625,-1.1785651445388794,0.6775941848754883,0.30245640873908997
1781554608422495700,44.164495849609374,0.18728232383728027,0.8374977111816406,3.426406145095825
1781554608471010800,44.2130107421875,2.409250259399414,0.5105524063110352,-0.3746767044067383
1781554608519526000,44.26152587890625,1.8289259672164917,1.9596290588378906,0.16848111152648926
1781554608568041200,44.310041259765626,2.2897868156433105,2.203645706176758,1.06630277633667
1781554608616556300,44.358556396484374,2.2344841957092285,1.1568503379821777,-0.3742276430130005
1781554608665071400,44.4070712890625,2.5992424488067627,-0.016226768493652344,-1.0518523454666138
1781554608713586400,44.45558642578125,3.6147334575653076,-0.48436450958251953,-0.43474799394607544
1781554608762101500,44.5041015625,4.067746639251709,-0.049129486083984375,-3.984764575958252
1781554608810616600,44.55261645507812,2.1541337966918945,-3.973234176635742,-3.0784289836883545
1781554608859132000,44.6011318359375,0.3542296886444092,-2.3686447143554688,0.21186542510986328
1781554608907647000,44.64964697265625,-1.009650707244873,5.158421993255615,3.295912981033325
1781554608956162000,44.698162109375,-3.8620448112487793,-5.2120513916015625,0.4775608777999878
1781554609004677000,44.746677001953124,-4.186505317687988,-5.159136772155762,0.36802732944488525
1781554609053192200,44.79519213867187,0.7344817519187927,3.83815336227417,-2.3272409439086914
1781554609101707300,44.84370727539063,1.9904491901397705,4.6577558517456055,-1.6987017393112183
1781554609150222600,44.89222265625,1.47542142868042,2.3721041679382324,-0.3114835023880005
1781554609198737700,44.940737548828125,2.514989137649536,0.7292613983154297,1.0244596004486084
1781554609247252700,44.98925268554687,2.102194309234619,-1.1880779266357422,-3.109729766845703
1781554609295767800,45.03776782226562,1.5302352905273438,-3.392375946044922,-3.007951021194458
1781554609344283000,45.08628295898438,1.3738311529159546,-6.722962379455566,0.9125254154205322
1781554609392798200,45.134798095703125,-1.1056246757507324,-1.483016014099121,1.7615361213684082
1781554609441313300,45.183313232421874,-0.4194279909133911,-0.5605545043945312,1.4386364221572876
1781554609489828400,45.23182836914062,1.2045546770095825,-0.48592567443847656,2.866669178009033
1781554609538343400,45.28034350585938,3.32914137840271,1.328573226928711,-0.8073430061340332
1781554609586858500,45.3288583984375,1.5069468021392822,2.06917667388916,1.1244075298309326
1781554609635373800,45.377373779296875,2.5163416862487793,2.179629325866699,1.6973240375518799
1781554609683889000,45.42588891601562,2.5725765228271484,0.5909252166748047,-0.45519864559173584
1781554609732404000,45.47440405273438,3.168605327606201,-0.3770780563354492,-1.47943913936615
1781554609780919000,45.5229189453125,4.430996417999268,0.46108245849609375,-3.349925994873047
1781554609829434400,45.571434326171875,2.8550703525543213,-3.8813982009887695,-3.5957446098327637
1781554609877949400,45.619949462890624,0.8782269954681396,-3.2025632858276367,-0.026772260665893555
1781554609926464500,45.66846459960937,-0.6592235565185547,5.661227226257324,3.3715980052948
1781554609974987800,45.71698779296875,-2.1747725009918213,-3.4774818420410156,1.3254255056381226
1781554610023494700,45.76549462890625,-5.121743202209473,-8.166523933410645,-0.41310828924179077
1781554610072010000,45.814010009765624,-1.1472046375274658,2.3514275550842285,-1.4215073585510254
1781554610120525000,45.86252514648437,2.0884640216827393,5.463133335113525,-1.6304690837860107
1781554610169040100,45.9110400390625,1.165730357170105,3.1785011291503906,-0.6758224368095398
1781554610217555200,45.95955517578125,3.2730143070220947,1.1338510513305664,0.8774864673614502
1781554610266070300,46.0080703125,2.674896240234375,0.16520977020263672,-1.7355347871780396
1781554610314585600,46.056585693359374,1.6762208938598633,-3.4873247146606445,-2.5628838539123535
1781554610363100700,46.1051005859375,1.4893462657928467,-7.468557357788086,1.2871482372283936
1781554610411615700,46.15361572265625,-1.378108024597168,-1.9772510528564453,0.7378062009811401
1781554610460130800,46.202130859375,-0.04239845275878906,-1.4223346710205078,2.292653799057007
1781554610508646100,46.250646240234374,1.4308511018753052,0.1555767059326172,3.417020320892334
1781554610557161200,46.2991611328125,3.373918294906616,1.1140317916870117,-0.2674229145050049
1781554610605676300,46.34767626953125,1.6881409883499146,2.7424306869506836,0.7402603626251221
1781554610654191600,46.39619165039063,1.7936097383499146,2.52217960357666,2.172271966934204
1781554610702706700,46.444706787109375,2.9502220153808594,-0.3652381896972656,-0.7711291313171387
1781554610751221800,46.4932216796875,3.1122443675994873,-0.23827457427978516,-1.3132514953613281
1781554610799736800,46.54173681640625,4.65960693359375,1.089118480682373,-2.1320128440856934
1781554610848252200,46.59025219726563,3.4561264514923096,-2.385713577270508,-4.618625640869141
1781554610896767200,46.638767333984376,0.8826122283935547,-4.270990371704102,-0.8520699143409729
1781554610945282300,46.6872822265625,-1.3797457218170166,4.399843692779541,3.8871259689331055
1781554610993797400,46.73579736328125,-2.790663003921509,-3.0790443420410156,3.2451462745666504
1781554611042312700,46.78431274414063,-5.491506099700928,-9.12343978881836,-1.3438880443572998
1781554611090827800,46.83282788085938,-0.9955223798751831,2.544735908508301,-2.316850185394287
1781554611139342800,46.8813427734375,2.5663633346557617,6.124247074127197,-1.4108072519302368
1781554611187858200,46.92985815429687,1.9422862529754639,3.9507274627685547,-0.19938711822032928
1781554611236373200,46.97837329101562,2.3640806674957275,1.3142356872558594,0.8197827935218811
1781554611284888300,47.02688842773438,3.014955997467041,-0.37577152252197266,-1.6162889003753662
1781554611333403400,47.0754033203125,1.2564115524291992,-4.2144060134887695,-3.565906286239624
1781554611381918700,47.123918701171874,2.294839382171631,-5.836557388305664,-0.3194982409477234
1781554611430433800,47.17243383789062,-0.42942750453948975,-5.189981460571289,2.0883867740631104
1781554611478948900,47.22094897460938,-0.6230072975158691,-0.7151288986206055,1.7353423833847046
1781554611527464000,47.2694638671875,1.2165257930755615,1.6315040588378906,3.813276529312134
1781554611575979300,47.317979248046875,3.161081552505493,0.5662126541137695,0.00880897045135498
1781554611624494300,47.36649438476562,1.9471004009246826,2.3331193923950195,0.27975285053253174
1781554611673009700,47.415009765625,2.170850992202759,3.0147457122802734,1.8752052783966064
1781554611721524700,47.46352465820313,2.4663162231445312,0.5846080780029297,-0.30341362953186035
1781554611770039800,47.512039794921876,3.2569222450256348,-0.5663318634033203,-1.4119696617126465
1781554611818555000,47.560554931640624,4.255324840545654,0.28104400634765625,-1.474265456199646
1781554611867070200,47.6090703125,4.022492408752441,-1.151322364807129,-5.188929080963135
1781554611915585300,47.65758520507813,1.6405696868896484,-4.854323387145996,-2.2314629554748535
1781554611964100600,47.7061005859375,-1.2474250793457031,1.6102113723754883,1.7222965955734253
1781554612012615700,47.75461572265625,-2.6830673217773438,3.179260730743408,4.913754463195801
1781554612061130800,47.803130859375,-5.484485149383545,-10.962160110473633,-0.15414321422576904
1781554612109645800,47.85164575195312,-1.1157535314559937,-0.9722213745117188,-1.2710943222045898
1781554612158161200,47.9001611328125,1.1318892240524292,5.912489891052246,-2.835186719894409
1781554612206676200,47.94867626953125,1.2225925922393799,3.2915749549865723,-0.5203787088394165
1781554612255191600,47.997191650390626,2.396623134613037,1.445058822631836,1.2257630825042725
1781554612303706600,48.04570654296875,2.503413200378418,1.550379753112793,-1.6654212474822998
1781554612352221700,48.0942216796875,1.4293149709701538,-2.646717071533203,-5.035206317901611
1781554612400736800,48.14273681640625,1.4809106588363647,-5.547271728515625,-0.5561813116073608
1781554612449252000,48.19125219726563,0.171156644821167,-4.76954460144043,2.6348302364349365
1781554612497767200,48.23976708984375,-1.289435625076294,-3.026071548461914,2.44572377204895
1781554612546282500,48.28828247070312,1.4258259534835815,0.029120445251464844,4.63716983795166
1781554612594797600,48.33679760742187,3.153468608856201,0.7819957733154297,0.13429701328277588
1781554612643312600,48.38531274414063,2.110748291015625,2.4950008392333984,-0.3999629020690918
1781554612691827700,48.43382763671875,2.064495325088501,3.6647214889526367,1.002647042274475
1781554612740343000,48.482343017578124,2.217972755432129,1.586252212524414,-0.3725489377975464
1781554612788858000,48.53085815429687,3.3321917057037354,-0.4965343475341797,-0.6398836970329285
1781554612837373200,48.57937329101563,4.053537368774414,-0.4662637710571289,-0.9455494284629822
1781554612885888500,48.627888427734376,3.85604190826416,-0.7671852111816406,-5.3046793937683105
1781554612934403800,48.67640380859375,1.784263014793396,-4.566841125488281,-1.7288033962249756
1781554612982919000,48.7249189453125,-0.2639472484588623,1.973228931427002,2.7845168113708496
1781554613031434000,48.77343408203125,-2.1313023567199707,1.8585920333862305,3.867419719696045
1781554613079949000,48.82194897460938,-6.07354211807251,-10.698674201965332,-0.14128714799880981
1781554613128464400,48.87046435546875,-1.822522759437561,-1.538421630859375,-0.6964290738105774
1781554613176979500,48.9189794921875,1.6167700290679932,6.086272239685059,-2.439810037612915
1781554613225494800,48.967494873046874,1.0780023336410522,3.87453556060791,-0.8211780786514282
1781554613274009900,49.016009765625,2.693060874938965,2.4413108825683594,1.0755038261413574
1781554613322525000,49.06452490234375,2.622756004333496,1.3461837768554688,-0.5016469955444336
1781554613371040300,49.11304028320313,1.4823102951049805,-3.072153091430664,-4.679330348968506
1781554613419555300,49.161555419921875,2.2235448360443115,-5.2816162109375,-0.4570692777633667
1781554613468070400,49.2100703125,0.30336523056030273,-6.338151931762695,3.369176149368286
1781554613516585700,49.25858569335937,-1.4722325801849365,-0.4697532653808594,-0.014502383768558502
1781554613565100800,49.30710083007813,1.303263545036316,0.2038412094116211,4.654591083526611
1781554613613616000,49.3556162109375,2.8972012996673584,0.6068315505981445,0.26081013679504395
1781554613662131200,49.404131103515624,2.24001145362854,1.960646629333496,-0.41927826404571533
1781554613710646500,49.452646484375,2.03094482421875,2.7947192192077637,1.9734342098236084
1781554613759161600,49.50116162109375,2.2313432693481445,0.8934640884399414,0.31846296787261963
1781554613807676700,49.5496767578125,3.450195074081421,-0.40055370330810547,-0.6611628532409668
1781554613856192000,49.59819189453125,4.3708086013793945,0.3149862289428711,-1.324360728263855
1781554613904707000,49.64670703125,4.123806476593018,-1.1036186218261719,-5.61349630355835
1781554613953222100,49.69522216796875,1.6244277954101562,-4.165959358215332,-1.579452633857727
1781554614001737500,49.74373754882812,-0.8006415367126465,2.2005062103271484,2.875576972961426
1781554614050252800,49.79225268554688,-1.2097091674804688,1.3481225967407227,4.414785385131836
1781554614098768000,49.840767822265626,-5.006715774536133,-10.21799087524414,-1.696447730064392
1781554614147283000,49.889282958984374,-3.005263328552246,-1.1340141296386719,-1.4947481155395508
1781554614195798300,49.93779833984375,1.9409208297729492,5.272298812866211,-2.024853229522705
1781554614244313300,49.98631323242188,1.150912880897522,4.1451921463012695,-1.0605628490447998
1781554614292828400,50.03482836914063,2.8621106147766113,2.121025562286377,1.0902073383331299
1781554614341343700,50.08334375,3.0464370250701904,1.1673564910888672,0.02130788564682007
1781554614389858800,50.13185888671875,1.7236604690551758,-3.1680374145507812,-3.8819353580474854
1781554614438374100,50.1803740234375,2.3078818321228027,-4.55987548828125,-0.6360000371932983
1781554614486889200,50.22888916015625,-0.8460856676101685,-6.625951766967773,3.5454509258270264
1781554614535404500,50.27740454101563,-0.9576272964477539,0.2312002182006836,0.09557408094406128
1781554614583919600,50.325919677734376,1.3328394889831543,-0.09184646606445312,4.747263431549072
1781554614632434700,50.3744345703125,3.1680421829223633,-0.17428970336914062,0.07276666164398193
1781554614680950000,50.42294995117187,1.539642333984375,1.9228301048278809,0.15418481826782227
1781554614729465000,50.47146508789063,2.1115689277648926,2.502352237701416,1.994908332824707
1781554614777980400,50.51998046875,2.6130354404449463,0.6600513458251953,0.2936590909957886
1781554614826495500,50.56849560546875,3.025946617126465,0.25150394439697266,-1.1761271953582764
1781554614875010800,50.6170107421875,4.482334613800049,0.5016107559204102,-1.6344457864761353
1781554614923526000,50.66552587890625,4.153810977935791,-0.5579614639282227,-4.975329399108887
1781554614972041200,50.71404125976562,1.7372525930404663,-4.778338432312012,-1.97560453414917
1781554615020556300,50.76255639648438,-0.5306868553161621,0.45855045318603516,1.7613015174865723
1781554615069071600,50.811071533203126,-2.053818464279175,3.112684726715088,4.727828502655029
1781554615117586700,50.859586669921875,-5.667513847351074,-9.545812606811523,-0.2947406768798828
1781554615166101800,50.90810180664062,-2.2489871978759766,-1.361821174621582,-0.9425181150436401
1781554615214617000,50.9566171875,1.7445461750030518,5.686332702636719,-2.293680191040039
1781554615263132200,51.00513208007813,1.3486624956130981,3.5656967163085938,-0.8898459672927856
1781554615311647500,51.0536474609375,2.143911838531494,1.696828842163086,0.8456904292106628
1781554615360162600,51.10216259765625,2.802656650543213,0.9556694030761719,0.08435884118080139
1781554615408678000,51.150677978515624,1.750406265258789,-2.7376623153686523,-4.045536041259766
1781554615457193000,51.19919287109375,2.6000523567199707,-3.9072961807250977,-0.954555869102478
1781554615505708000,51.2477080078125,0.45210719108581543,-7.646352767944336,2.6372079849243164
1781554615554223400,51.296223388671876,-2.058223247528076,0.07086944580078125,0.0030184374190866947
1781554615602738400,51.344738525390625,0.6022071838378906,-0.6482992172241211,4.720553398132324
1781554615651253800,51.39325366210937,3.0406928062438965,0.8301906585693359,1.0485856533050537
1781554615699768800,51.44176879882812,2.3943581581115723,1.9785652160644531,-0.45692920684814453
1781554615748284700,51.49028466796875,1.6900348663330078,3.0123186111450195,0.6834611892700195
1781554615796799200,51.53879931640625,1.710974097251892,1.407209873199463,0.5136539936065674
1781554615845314600,51.587314453125,3.2317910194396973,-0.4336566925048828,-1.278226613998413
1781554615893829600,51.63582958984375,3.588743209838867,-0.2163543701171875,-0.6372846364974976
1781554615942345000,51.68434497070312,4.269970893859863,-0.1169290542602539,-3.0854296684265137
1781554615990860000,51.73286010742188,2.717163562774658,-3.8511581420898438,-3.392068862915039
1781554616039375400,51.78137524414063,0.6957552433013916,-2.3068294525146484,0.1061636209487915
1781554616087890400,51.829890380859375,-1.5756828784942627,5.4340715408325195,3.568753719329834
1781554616136405800,51.87840576171875,-4.203186511993408,-5.566708564758301,0.6751459836959839
1781554616184920800,51.9269208984375,-3.7001142501831055,-6.130093574523926,0.059020042419433594
1781554616233436000,51.97543579101563,0.15528154373168945,2.754854202270508,-2.0741078853607178
1781554616281951200,52.023951171875,2.1186599731445312,4.08613395690918,-1.441335678100586
1781554616330466300,52.07246630859375,1.670108675956726,2.688727855682373,0.258497416973114
1781554616378981600,52.120981689453124,2.609269618988037,2.005720615386963,0.6719352006912231
1781554616427497000,52.1694970703125,2.0876708030700684,-0.4417257308959961,-3.190591812133789
1781554616476012000,52.21801196289063,0.9615891575813293,-3.522557258605957,-2.3335328102111816
1781554616524527000,52.26652709960938,2.001946210861206,-7.581025123596191,1.1622319221496582
1781554616573042400,52.31504248046875,-0.5828967094421387,-1.572286605834961,0.840117335319519
1781554616621557500,52.3635576171875,-0.6266319751739502,-1.2196159362792969,2.937772750854492
1781554616670072800,52.41207275390625,1.6600544452667236,1.2597837448120117,2.743011951446533
1781554616718588000,52.460587890625,3.280590295791626,0.6522235870361328,-0.46110087633132935
1781554616767103200,52.50910327148438,1.9201750755310059,2.038419723510742,0.285638689994812
1781554616815618300,52.557618408203126,1.8315497636795044,2.4666967391967773,1.2749264240264893
1781554616864133600,52.606133544921875,2.840341567993164,0.42444801330566406,-0.1442093849182129
1781554616912648700,52.65464868164062,2.5359644889831543,-0.2999553680419922,-0.8690032362937927
1781554616961164000,52.7031640625,4.42280387878418,-0.5736274719238281,-0.8563860654830933
1781554617009679400,52.75167944335937,4.503419399261475,-2.4321680068969727,-5.016620635986328
1781554617058194400,52.8001943359375,1.441862940788269,-5.193792343139648,-2.6296091079711914
1781554617106709800,52.848709716796876,-1.5159871578216553,2.431222915649414,1.3534044027328491
1781554617155224800,52.897224853515624,-1.866943120956421,2.558469772338867,5.155943393707275
1781554617203740000,52.94573999023437,-5.759853839874268,-8.950358390808105,0.5257713794708252
1781554617252255200,52.99425512695313,-1.0014296770095825,0.31830692291259766,-0.8162937164306641
1781554617300770300,53.042770263671876,1.7134122848510742,6.35891580581665,-2.873230457305908
1781554617349285600,53.09128564453125,1.3833280801773071,3.566074848175049,-0.9225729703903198
1781554617397800700,53.13980078125,2.033060312271118,1.197340965270996,0.8313666582107544
1781554617446316000,53.18831591796875,2.4809980392456055,0.49892234802246094,-1.2087008953094482
1781554617494831000,53.2368310546875,1.0555129051208496,-3.8271665573120117,-4.798836708068848
1781554617543346400,53.28534643554688,2.246246814727783,-5.953237533569336,-0.5477088689804077
1781554617591861500,53.333861572265626,0.5892822742462158,-5.729082107543945,2.6354637145996094
1781554617640376800,53.382376953125,-1.408113718032837,0.5284595489501953,1.0823906660079956
1781554617688892000,53.43089184570312,0.6786153316497803,1.0348215103149414,3.9972214698791504
1781554617737407200,53.4794072265625,2.7545230388641357,-0.3271026611328125,-0.46232151985168457
1781554617785922300,53.52792236328125,1.7146540880203247,1.9394006729125977,-0.2247481346130371
1781554617834437600,53.57643774414063,1.8641436100006104,2.641679286956787,1.231077790260315
1781554617882952700,53.62495263671875,1.975908637046814,1.3417963981628418,0.45134878158569336
1781554617931468000,53.673468017578124,2.6154956817626953,-0.35625171661376953,-0.10322201251983643
1781554617979983000,53.72198315429687,3.690878391265869,-0.6103219985961914,0.11143863201141357
1781554618028498400,53.77049853515625,4.380285739898682,0.8116655349731445,-3.741684913635254
1781554618077013500,53.819013427734376,2.2907748222351074,-4.203312873840332,-3.6503522396087646
1781554618125528800,53.86752880859375,-0.33510255813598633,-2.872312545776367,-0.022498130798339844
1781554618174044200,53.916044189453125,-1.1582493782043457,5.765267372131348,3.724026679992676
1781554618222559200,53.96455932617187,-3.61883807182312,-6.777780532836914,0.47597837448120117
1781554618271074600,54.01307446289063,-3.7939653396606445,-4.541118621826172,-0.22280609607696533
1781554618319589600,54.06158959960938,0.46839606761932373,3.710812568664551,-2.333730459213257
1781554618368105000,54.11010498046875,2.0116543769836426,4.245173931121826,-1.406307578086853
1781554618416620000,54.1586201171875,1.815007209777832,2.749068260192871,0.3048957288265228
1781554618465135400,54.20713525390625,2.526458263397217,1.695939064025879,0.6531415581703186
1781554618513650400,54.255650390625,1.840970516204834,-1.508321762084961,-3.513815402984619
1781554618562165800,54.30416577148438,1.9541192054748535,-3.7895612716674805,-1.4752962589263916
1781554618610680800,54.352680908203126,1.7474420070648193,-6.382984161376953,1.1190943717956543
1781554618659196000,54.40119580078125,-1.3810704946517944,-1.381089210510254,1.1264747381210327
1781554618707711200,54.44971118164062,-0.3304269313812256,-1.4147138595581055,3.0829992294311523
1781554618756226600,54.4982265625,1.6282719373703003,0.4907808303833008,1.9011332988739014
1781554618804741600,54.54674169921875,2.7974202632904053,1.1528339385986328,-0.6689848899841309
1781554618853257000,54.59525708007813,1.6378819942474365,2.4996633529663086,1.1318528652191162
1781554618901772000,54.64377197265625,2.158139705657959,2.471355438232422,0.680268406867981
1781554618950287400,54.692287353515624,2.468059539794922,-0.04443168640136719,-0.5577442049980164
1781554618998802400,54.74080249023437,2.763411283493042,-0.9736337661743164,-0.12283980846405029
1781554619047317800,54.78931787109375,4.653944969177246,0.4998769760131836,-1.573043704032898
1781554619095833000,54.8378330078125,3.9045321941375732,-2.40090274810791,-4.604938507080078
1781554619144348200,54.88634814453125,0.9220037460327148,-4.695991516113281,-1.936513066291809
1781554619192863500,54.934863525390625,-1.4100146293640137,2.0535311698913574,2.0133936405181885
1781554619241378600,54.983378662109374,-2.362489700317383,2.447549819946289,3.926969051361084
1781554619289894000,55.03189379882812,-4.971037864685059,-8.036153793334961,0.670924186706543
1781554619338409000,55.08040893554688,-0.634224534034729,0.25841808319091797,-1.933178424835205
1781554619386924000,55.128924072265626,1.8159184455871582,4.865610599517822,-2.4488868713378906
1781554619435439400,55.177439453125,1.3708549737930298,2.515420436859131,-0.5754408836364746
1781554619483954400,55.22595434570312,1.8483827114105225,2.099327564239502,1.0253044366836548
1781554619532469800,55.2744697265625,2.344663143157959,0.7839088439941406,-1.2042150497436523
1781554619580985000,55.32298510742187,1.3678663969039917,-3.4692296981811523,-3.6431312561035156
1781554619629500200,55.37150024414063,2.8882193565368652,-4.2891998291015625,-0.8875397443771362
1781554619726530600,55.468530517578124,-1.309565782546997,-0.34972190856933594,1.208349585533142
1781554619775046000,55.5170458984375,0.8195626735687256,0.5012407302856445,4.206108093261719
1781554619823561000,55.56556103515625,2.383423089981079,0.6400976181030273,0.7094427347183228
1781554619872076300,55.614076171875,2.386638641357422,0.8949041366577148,-1.2314542531967163
1781554619920591400,55.66259130859375,1.8289347887039185,1.7991838455200195,0.4776320457458496
1781554619969106700,55.711106689453125,2.729353904724121,1.1210856437683105,-0.2615847587585449
1781554620017621800,55.75962182617187,3.758453369140625,0.18880939483642578,-0.24219143390655518
1781554620066137000,55.80813720703125,3.186434268951416,-0.13300418853759766,-0.6494712829589844
1781554620114652200,55.85665209960938,4.211146831512451,0.3847637176513672,-1.797361969947815
1781554620163167500,55.90516748046875,2.286886692047119,-2.924234390258789,-3.5599794387817383
1781554620211689500,55.953689453125,0.09921622276306152,-2.874603271484375,-0.41939401626586914
1781554620260198000,56.002197998046874,-1.9546034336090088,3.7057876586914062,3.8121819496154785
1781554620308713200,56.05071313476562,-5.113154411315918,-7.365279197692871,2.4121103286743164
1781554620357228300,56.09922827148438,-1.6165868043899536,-2.5839290618896484,0.41450631618499756
1781554620405743600,56.14774365234375,1.050206184387207,4.719882965087891,-3.013458251953125
1781554620454258700,56.1962587890625,0.8246279954910278,3.31071138381958,-1.354254961013794
1781554620502774000,56.24477392578125,2.240365505218506,2.1961545944213867,1.1492232084274292
1781554620551289000,56.2932890625,2.343890428543091,1.7126984596252441,-0.5908968448638916
1781554620599804400,56.34180444335937,1.6648855209350586,-1.5312719345092773,-3.2251710891723633
1781554620648319500,56.39031958007813,1.390599012374878,-3.612706184387207,-1.2748981714248657
1781554620696834800,56.438834716796876,0.9602349400520325,-10.01327896118164,2.599022150039673
1781554620745350000,56.487349853515624,-0.6830973625183105,1.583765983581543,-0.5148407816886902
1781554620793865200,56.535865234375,-0.5568773746490479,-1.028080940246582,5.086580753326416
1781554620842380300,56.58438037109375,2.9628288745880127,1.216771125793457,-0.43883079290390015
1781554620890895600,56.6328955078125,1.907509207725525,1.4769787788391113,-0.5954301953315735
1781554620939410700,56.68141064453125,2.2652981281280518,2.1412696838378906,0.22834300994873047
1781554620987926000,56.729926025390625,2.1971423625946045,1.9099540710449219,0.011468648910522461
1781554621036441300,56.77844140625,2.9013097286224365,-0.1514129638671875,-0.6814053058624268
1781554621084956400,56.82695629882812,3.0922045707702637,-0.1915721893310547,-0.33040452003479004
1781554621133471700,56.8754716796875,4.822363376617432,0.2586660385131836,-3.8319616317749023
1781554621181987000,56.92398706054688,2.738560199737549,-4.597967147827148,-4.123875141143799
1781554621230502100,56.97250219726563,-0.9395372867584229,-3.8348817825317383,-0.8206354975700378
1781554621279017500,57.021017578125,-1.9469716548919678,5.827486038208008,3.886122941970825
1781554621327532500,57.06953247070312,-4.937859058380127,-7.571111679077148,1.7626688480377197
1781554621376047900,57.1180478515625,-2.906393051147461,-3.8133411407470703,0.652449369430542
1781554621424563000,57.16656298828125,0.7665122151374817,4.97124719619751,-3.8973493576049805
1781554621473078300,57.21507836914063,1.5609914064407349,3.5584912300109863,-1.5382981300354004
1781554621521593300,57.26359326171875,1.908998966217041,2.740086555480957,1.2061069011688232
1781554621570108700,57.312108642578124,2.426934003829956,2.450657844543457,0.5361568927764893
1781554621618623700,57.36062377929687,1.4307546615600586,-0.9302797317504883,-3.4812490940093994
1781554621667139000,57.40913916015625,0.9006463289260864,-4.925653457641602,-2.018458366394043
1781554621715654100,57.45765405273438,2.4944891929626465,-8.327594757080078,1.2387373447418213
1781554621764169500,57.50616943359375,-1.9039628505706787,-1.2376785278320312,0.9785454869270325
1781554621812684500,57.5546845703125,-0.021531343460083008,-1.2044544219970703,2.8302817344665527
1781554621861200000,57.603199951171874,2.2338790893554688,1.7016401290893555,1.9102184772491455
1781554621909715200,57.65171508789062,3.540192127227783,1.138075828552246,-0.3259356617927551
1781554621958230300,57.70023022460938,2.495415687561035,3.24110746383667,-1.0439330339431763
1781554622006745600,57.74874560546875,1.3043508529663086,2.3192758560180664,1.8411401510238647
1781554622055260700,57.7972607421875,2.922186851501465,-0.7624187469482422,0.6009865999221802
1781554622103776000,57.84577587890625,3.4698731899261475,-0.5770111083984375,-0.5308657884597778
1781554622152291000,57.894291015625,5.060844421386719,0.8211531639099121,-3.3667030334472656
1781554622200806400,57.94280639648437,2.919637680053711,-3.927422523498535,-3.93930983543396
1781554622249321500,57.99132153320313,0.26352882385253906,-3.8025760650634766,-0.693930983543396
1781554622297836800,58.0398369140625,-1.4279322624206543,4.454604148864746,2.6330628395080566
1781554622346351900,58.088351806640624,-3.660885810852051,-3.185288429260254,2.7814154624938965
1781554622394867200,58.1368671875,-4.647502899169922,-6.600736618041992,1.5685619115829468
1781554622443382300,58.18538232421875,-0.15990841388702393,2.9977903366088867,-2.0986740589141846
1781554622491897600,58.23389770507813,2.3253462314605713,4.690036773681641,-2.6371021270751953
1781554622540412700,58.28241259765625,1.121899127960205,2.629589557647705,-0.5310191512107849
1781554622588928000,58.330927978515625,2.0363001823425293,1.8405876159667969,1.637900948524475
1781554622637443300,58.379443359375,2.135584831237793,-0.0045604705810546875,-1.7388920783996582
1781554622685958400,58.42795849609375,1.2407499551773071,-4.378788948059082,-3.427274465560913
1781554622734473700,58.4764736328125,2.326052188873291,-5.151384353637695,-0.09922629594802856
1781554622782988800,58.52498876953125,0.26737165451049805,-5.074650764465332,2.7079224586486816
1781554622831504100,58.573504150390626,-0.9786131381988525,0.6240930557250977,0.5865441560745239
1781554622880019200,58.622019287109374,0.9594861268997192,0.8994922637939453,3.596693515777588
1781554622928534500,58.67053442382812,3.4914257526397705,0.33385562896728516,-0.9203253984451294
1781554622977049600,58.71904956054688,1.3260846138000488,1.491292953491211,0.12309956550598145
1781554623025565000,58.76756494140625,2.075758934020996,2.2449522018432617,0.6005148887634277
1781554623074080000,58.816080078125,2.7571511268615723,0.7845678329467773,0.09641027450561523
1781554623122595300,58.86459521484375,3.045191526412964,0.05067634582519531,-0.41311919689178467
1781554623171110700,58.913110595703124,4.197030544281006,0.2902793884277344,-1.193901777267456
1781554623219625700,58.96162573242187,4.1851091384887695,-1.7924299240112305,-4.786559581756592
1781554623316656000,59.05865625,-1.2319869995117188,0.5120716094970703,0.5921599864959717
1781554623365171500,59.10717138671875,-2.197395086288452,1.725776195526123,3.9988012313842773
1781554623413686500,59.1556865234375,-5.061250686645508,-6.861220359802246,1.6940600872039795
1781554623462201900,59.20420190429687,-0.7616080045700073,1.125676155090332,-1.2940115928649902
1781554623510717200,59.25271728515625,1.5900992155075073,4.387855529785156,-2.16339111328125
1781554623559232300,59.30123217773438,1.046010136604309,2.7132163047790527,-1.0647205114364624
1781554623607747600,59.34974755859375,1.9460350275039673,2.2728934288024902,0.737017035484314
1781554623656262700,59.3982626953125,2.413534164428711,0.674189567565918,-1.5232911109924316
1781554623704778000,59.446778076171874,1.2020907402038574,-3.8141632080078125,-4.357053279876709
1781554623753293000,59.49529296875,3.12253999710083,-3.4889469146728516,-0.6144350171089172
1781554623801808400,59.54380834960938,-0.40962839126586914,-6.907711029052734,2.353736639022827
1781554623850323500,59.59232348632813,-1.0307244062423706,-0.5802545547485352,1.5705934762954712
1781554623898838800,59.6408388671875,0.20359301567077637,0.1404714584350586,3.9555275440216064
1781554623947353900,59.68935375976562,2.8235228061676025,0.27033519744873047,-0.21373361349105835
1781554623995869200,59.737869140625,2.3457329273223877,2.0362839698791504,-0.20737028121948242
1781554624044384300,59.78638427734375,2.1273412704467773,2.6293587684631348,1.1096068620681763
1781554624092899600,59.83489965820313,2.0929136276245117,1.5870137214660645,0.5312577486038208
1781554624141414700,59.88341455078125,2.9005470275878906,-0.30694007873535156,-0.7558323740959167
1781554624189930000,59.931929931640624,3.3249576091766357,-0.7180557250976562,-0.805970311164856
1781554624238445000,59.98044506835937,4.574402809143066,0.11059761047363281,-4.378190040588379
1781554624286960400,60.02896044921875,2.3957407474517822,-4.239741325378418,-2.8378305435180664
1781554624335475700,60.07747583007812,-0.3253357410430908,-2.1393356323242188,-0.28430473804473877
1781554624383990800,60.12599072265625,-1.6306664943695068,5.361316204071045,3.7612476348876953
1781554624432506000,60.174506103515625,-5.181980609893799,-7.21000862121582,1.987488031387329
1781554624481021200,60.223021240234374,-2.258449077606201,-3.631277084350586,0.6446356773376465
1781554624529536500,60.27153662109375,1.018855094909668,4.369796276092529,-3.158496379852295
1781554624578051600,60.32005151367188,1.4806690216064453,2.905604362487793,-1.7753515243530273
1781554624626567000,60.36856689453125,1.3456926345825195,1.90696382522583,0.48822909593582153
1781554624675082000,60.41708203125,2.383540153503418,2.1726393699645996,0.0799911618232727
1781554624723597300,60.465597412109375,2.1871705055236816,-0.7465724945068359,-3.033846378326416
1781554624772112600,60.51411254882812,1.7051244974136353,-3.927985191345215,-2.0834004878997803
1781554624820627700,60.56262768554687,1.8832848072052002,-7.287334442138672,0.8000136017799377
1781554624869143000,60.61114306640625,-1.5588515996932983,-1.7424860000610352,1.5653111934661865
1781554624917658000,60.659658203125,-0.279461145401001,-1.1189584732055664,3.3721208572387695
1781554624966173400,60.70817333984375,1.604441523551941,1.1474151611328125,1.9435828924179077
1781554625014688500,60.7566884765625,3.028826951980591,1.1399192810058594,-0.6382397413253784
