time,seconds_elapsed,z,y,x
1781554564390396000,0.13239599609375,-0.09392046183347702,-0.6207149624824524,-0.8287907838821411
1781554564487425500,0.229425537109375,-0.3585776388645172,0.3741546869277954,-1.985463261604309
1781554564535940400,0.2779404296875,-0.3995819091796875,0.005421424750238657,-1.4776818752288818
1781554564584455400,0.326455322265625,-1.1097122430801392,-0.2645808160305023,-1.293811559677124
1781554564632970200,0.37497021484375,-0.6023126840591431,0.9349285364151001,-1.4414881467819214
1781554564681485000,0.423485107421875,-0.7266236543655396,-0.2669478952884674,-0.5157225728034973
1781554564730000000,0.471999755859375,-0.6328558921813965,0.1787542998790741,-0.9230166673660278
1781554564778514700,0.5205146484375,-0.6471349000930786,0.4996110200881958,-0.901789128780365
1781554564827029800,0.56902978515625,-0.5445095896720886,0.1747073233127594,-0.3856847584247589
1781554564875544600,0.617544677734375,-0.35384342074394226,0.15920662879943848,-0.43951719999313354
1781554564924059400,0.666059326171875,-0.326583594083786,-0.14737112820148468,-0.26137375831604004
1781554564972574200,0.71457421875,-0.3698022663593292,-0.19127702713012695,-0.25961753726005554
1781554565021089300,0.76308935546875,-0.33513569831848145,-0.30451610684394836,-0.1573740392923355
1781554565069603800,0.811603759765625,-0.2086866796016693,-0.4427242577075958,-0.0423787422478199
1781554565118119000,0.860118896484375,-0.19356778264045715,-0.2514472007751465,-0.21952952444553375
1781554565166633700,0.9086337890625,-0.20861032605171204,-0.14110976457595825,-0.20349432528018951
1781554565215148500,0.9571484375,-0.1346193253993988,-0.19883649051189423,-0.21868959069252014
1781554565263663400,1.005663330078125,-0.15386156737804413,-0.14798198640346527,-0.17867794632911682
1781554565312178400,1.054178466796875,-0.15630502998828888,-0.030543239787220955,-0.1331685185432434
1781554565360693200,1.102693359375,-0.11545344442129135,-0.05070177838206291,-0.010690134018659592
1781554565409208000,1.1512080078125,-0.18814635276794434,-0.13187043368816376,0.08857539296150208
1781554565457723000,1.199722900390625,-0.2026543915271759,-0.2951240539550781,0.014431680552661419
1781554565506237700,1.24823779296875,-0.2674824297428131,-0.8862884640693665,0.18829907476902008
1781554565554752800,1.296752685546875,-0.19914191961288452,-0.7279980778694153,0.35705047845840454
1781554565603267600,1.345267578125,-0.14172062277793884,-0.22182027995586395,0.0974329337477684
1781554565651782400,1.393782470703125,-0.1049160286784172,-0.24892739951610565,0.17890702188014984
1781554565700297500,1.44229736328125,-0.17898337543010712,-0.30772313475608826,0.17592905461788177
1781554565748812000,1.49081201171875,-0.37514734268188477,-0.770529568195343,0.328645259141922
1781554565797326800,1.539326904296875,-0.16584978997707367,-0.6934842467308044,0.3249800503253937
1781554565845842000,1.587842041015625,-0.004505127668380737,-0.01802051067352295,-0.16416990756988525
1781554565894356700,1.636356689453125,-0.006337722297757864,0.24381139874458313,-0.3738492429256439
1781554565942871600,1.68487158203125,-0.06223184987902641,0.25793763995170593,-0.2637408673763275
1781554565991386400,1.733386474609375,-0.026572618633508682,0.13072505593299866,-0.2672533392906189
1781554566039901400,1.7819013671875,-0.006108647678047419,-0.26244276762008667,-0.1712712198495865
1781554566088416300,1.830416259765625,0.011606430634856224,-0.2859610617160797,-0.1101083755493164
1781554566136931000,1.87893115234375,0.005803215317428112,-0.6459131240844727,-0.007406735327094793
1781554566185446000,1.92744580078125,0.06108647957444191,-0.7419716119766235,0.16195552051067352
1781554566233960700,1.975960693359375,0.01588248461484909,-0.7226530313491821,0.14889828860759735
1781554566282475500,2.0244755859375,-0.16592614352703094,-2.135812282562256,0.6293434500694275
1781554566330990600,2.072990478515625,-0.1505018174648285,-3.108461856842041,1.0170135498046875
1781554566379505400,2.12150537109375,-0.19845469295978546,-3.5702755451202393,0.9991456866264343
1781554566428020200,2.170020263671875,0.1331685185432434,-2.2914302349090576,0.5661953091621399
1781554566476535000,2.21853515625,0.1542433500289917,-1.477987289428711,-0.11453714966773987
1781554566525050000,2.267050048828125,0.009010255336761475,-1.0961968898773193,0.23312127590179443
1781554566573564700,2.315564697265625,-0.10270164161920547,-0.4422661066055298,0.20028728246688843
1781554566622079700,2.364079833984375,-0.08032871782779694,-0.040317077189683914,-0.09498947113752365
1781554566670594600,2.412594482421875,0.021380268037319183,0.2971857190132141,-0.17913609743118286
1781554566719109400,2.461109375,-0.013286309316754341,0.3148244321346283,-0.19089524447917938
1781554566767624200,2.509624267578125,-0.01893680728971958,-0.13744457066059113,-0.01000291109085083
1781554566816139300,2.55813916015625,0.11033745110034943,0.14110976457595825,-0.30512696504592896
1781554566864654000,2.606654052734375,0.18845178186893463,0.6487383842468262,-0.49571678042411804
1781554566913169000,2.6551689453125,0.23396120965480804,0.957072377204895,-0.6869174242019653
1781554566961683700,2.70368359375,0.04558578506112099,-0.022067490965127945,-0.37781986594200134
1781554567010198500,2.752198486328125,0.06826414167881012,0.28412848711013794,-0.3098611533641815
1781554567058713300,2.80071337890625,0.2516762912273407,1.0135773420333862,-0.8296307325363159
1781554567107228400,2.849228515625,0.23182319104671478,1.3639847040176392,-0.6142245531082153
1781554567155743200,2.8977431640625,0.08529199659824371,1.00762140750885,-0.1859319657087326
1781554567204258000,2.946258056640625,-0.006108647678047419,0.9370665550231934,-0.15286891162395477
1781554567252772900,2.99477294921875,-0.03581194952130318,1.008537769317627,-0.0717766135931015
1781554567301287700,3.04328759765625,-0.013133592903614044,1.2232567071914673,-0.28901541233062744
1781554567349802500,3.091802490234375,-0.09621120244264603,0.8250492215156555,-0.4902953505516052
1781554567398317300,3.1403173828125,-0.11514800786972046,0.28993168473243713,-0.5416843295097351
1781554567446832400,3.188832275390625,-0.17661628127098083,0.11430807411670685,-0.804814338684082
1781554567495347200,3.23734716796875,-0.1490510106086731,0.1738673895597458,-0.9355394244194031
1781554567543862000,3.285862060546875,-0.039248060435056686,0.388662725687027,-0.7161626219749451
1781554567592376800,3.334376953125,0.24946190416812897,-0.02084576152265072,-0.6508764028549194
1781554567640891600,3.3828916015625,0.625067412853241,-0.781754195690155,-0.8823941946029663
1781554567689406500,3.431406494140625,0.6957749724388123,-1.0027345418930054,-1.8135048151016235
1781554567737921300,3.47992138671875,0.5616137981414795,-1.724013090133667,-2.5751004219055176
1781554567786436400,3.528436279296875,0.32192572951316833,-2.4938554763793945,-3.91281795501709
1781554567834951200,3.576951171875,0.3157407343387604,-3.165195941925049,-4.713432788848877
1781554567883466000,3.625466064453125,1.4972295761108398,-1.6658282279968262,-6.312294960021973
1781554567931980800,3.673980712890625,2.8823654651641846,-2.1145083904266357,-5.27107572555542
1781554567980495600,3.72249560546875,4.150291442871094,-0.7387645840644836,-4.462977886199951
1781554568029010400,3.771010498046875,4.597291946411133,0.7451786994934082,-2.9852962493896484
1781554568077525200,3.819525146484375,4.14746618270874,2.102214813232422,-1.1743875741958618
1781554568126040300,3.868040283203125,3.215897560119629,3.359374523162842,0.15867212414741516
1781554568174555000,3.916554931640625,2.100764036178589,3.415039539337158,0.7198277711868286
1781554568223070000,3.965070068359375,2.1319944858551025,2.5885396003723145,1.570227861404419
1781554568271584800,4.013584716796875,1.8646647930145264,1.4676026105880737,1.4425572156906128
1781554568320099600,4.062099609375,0.19410228729248047,0.4944950342178345,-0.8859066367149353
1781554568368614400,4.110614501953125,-0.4422661066055298,1.5252529382705688,-0.12247838824987411
1781554568417129200,4.159129150390625,-0.4194350242614746,0.2680169343948364,0.046425722539424896
1781554568465644000,4.20764404296875,-0.62857985496521,0.24411684274673462,-0.017562363296747208
1781554568514158800,4.256158935546875,-0.30566146969795227,0.19364413619041443,-0.2393062710762024
1781554568562673700,4.304673583984375,2.752251148223877,-0.7077631950378418,0.12171480804681778
1781554568611188500,4.3531884765625,1.1520146131515503,-0.2110537886619568,0.2992473840713501
1781554568659703600,4.40170361328125,0.8688024282455444,1.8093050718307495,-0.017715077847242355
1781554568708218000,4.450218017578125,0.975703775882721,0.5381718873977661,0.3453676700592041
1781554568756733200,4.498733154296875,1.11345374584198,0.6166679859161377,0.3614792227745056
1781554568805248000,4.547248046875,0.07643445581197739,-0.26542073488235474,0.15439607203006744
1781554568853762800,4.5957626953125,-0.4871646761894226,-2.067624568939209,0.5570323467254639
1781554568902277600,4.644277587890625,-1.2626575231552124,0.009773836471140385,0.018173227086663246
1781554568950792400,4.69279248046875,0.012751801870763302,0.8684206604957581,0.4699077308177948
1781554568999307300,4.741307373046875,1.9933280944824219,0.6963858604431152,1.2108867168426514
1781554569047822000,4.789822021484375,2.506989002227783,1.6156610250473022,1.0926079750061035
1781554569096337000,4.8383369140625,1.3909391164779663,0.3191768527030945,0.8206204771995544
1781554569144851700,4.886851806640625,0.21838416159152985,-0.13820815086364746,-0.24457497894763947
1781554569193366500,4.935366455078125,0.4053087830543518,-0.05757400393486023,-0.06490438431501389
1781554569241881300,4.98388134765625,-0.022067490965127945,-0.3228420317173004,-0.03932442143559456
1781554569290396200,5.032396240234375,-0.6976075768470764,0.025350889191031456,-0.17027856409549713
1781554569338911000,5.080910888671875,-1.7395901679992676,0.7220421433448792,-0.26946771144866943
1781554569387425800,5.12942578125,-2.2598178386688232,1.5752675533294678,-0.298331081867218
1781554569435940600,5.177940673828125,-0.4608974754810333,-0.6252964735031128,-0.1761581301689148
1781554569484455400,5.226455322265625,0.36369362473487854,-0.7363975048065186,-0.29016077518463135
1781554569532970200,5.27497021484375,0.3064250349998474,0.4915934205055237,-0.3107774555683136
1781554569581485000,5.323485107421875,-0.4172206521034241,1.151098370552063,0.40171995759010315
1781554569629999900,5.371999755859375,-1.2359321117401123,0.7832813858985901,-0.06330086290836334
1781554569678514700,5.4205146484375,-1.3855177164077759,-0.864220917224884,0.06177370250225067
1781554569727029500,5.469029541015625,-3.1135778427124023,-0.3177260458469391,-1.1532363891601562
1781554569824059100,5.56605908203125,-0.5586358308792114,0.37201663851737976,-0.714024543762207
1781554569872574000,5.614573974609375,-0.03245219215750694,-0.2885572612285614,-0.5477929711341858
1781554569921088800,5.6630888671875,0.010919207707047462,0.08743002265691757,0.9327905178070068
1781554569969603600,5.711603515625,-0.30978479981422424,-0.3749946057796478,0.30306529998779297
1781554570018118400,5.760118408203125,-0.3326922357082367,0.21204642951488495,-0.6549233794212341
1781554570066633200,5.80863330078125,-0.07864884287118912,-0.07910698652267456,-0.4119519293308258
1781554570115148000,5.85714794921875,-0.535193920135498,-0.18516838550567627,-0.5702422857284546
1781554570163662800,5.905662841796875,-0.3659079968929291,-0.40317076444625854,-0.3436114490032196
1781554570212177700,5.954177734375,0.0383317656815052,-0.15485422313213348,-0.2961167097091675
1781554570260692500,6.0026923828125,-0.022754713892936707,0.00946840364485979,0.06879864633083344
1781554570309207300,6.051207275390625,0.07414371520280838,0.36224281787872314,0.7241802215576172
1781554570357721900,6.099721923828125,-0.18310672044754028,0.40339982509613037,0.046425722539424896
1781554570406236700,6.148236572265625,0.24923282861709595,0.5193114280700684,-0.1291215419769287
1781554570454751500,6.19675146484375,-0.5633700489997864,0.3724747896194458,0.13927717506885529
1781554570503266300,6.245266357421875,-0.8126028776168823,0.2534325122833252,0.31352636218070984
1781554570551781000,6.293781005859375,0.15271618962287903,0.49884745478630066,0.0154243353754282
1781554570600296000,6.3422958984375,0.22510367631912231,0.23968806862831116,0.00007635809743078426
1781554570648810800,6.390810791015625,0.004505127668380737,-0.06566796451807022,-0.07391463965177536
1781554570697325600,6.43932568359375,0.00847574882209301,-0.23961171507835388,-0.18196134269237518
1781554570745840400,6.48784033203125,0.17134757339954376,-0.17165300250053406,-0.21029019355773926
1781554570794355200,6.536355224609375,-0.1253799945116043,-0.8253546953201294,-0.019700389355421066
1781554570842870000,6.5848701171875,-0.08941533416509628,-0.3848448097705841,-0.2473238706588745
1781554570891384600,6.633384521484375,-0.28840452432632446,-1.7865504026412964,-1.0485494136810303
1781554570939899400,6.6818994140625,0.07399099320173264,-0.032910339534282684,-0.07078395783901215
1781554570988414200,6.730414306640625,0.5988765358924866,0.5258781909942627,-0.2406807243824005
1781554571036929000,6.778928955078125,0.2153298407793045,0.6559160351753235,0.07391463965177536
1781554571085443800,6.82744384765625,0.23793183267116547,0.6866120100021362,-0.6520217657089233
1781554571133958700,6.875958740234375,0.16042836010456085,0.4929678738117218,0.11377356201410294
1781554571182473500,6.924473388671875,0.11728604137897491,0.14798198640346527,-0.45448338985443115
1781554571230988300,6.97298828125,-0.1259908676147461,-0.11369720846414566,-0.4234820008277893
1781554571279503000,7.021503173828125,0.027107125148177147,-0.19593487679958344,-0.2590830326080322
1781554571328018000,7.070017822265625,0.12301289290189743,-0.3349829614162445,-0.1542433500289917
1781554571376532500,7.118532470703125,0.058795735239982605,-0.40920305252075195,-0.24770566821098328
1781554571425047300,7.16704736328125,0.08429934084415436,-0.30245441198349,-0.274812787771225
1781554571473562000,7.21556201171875,0.081015944480896,-0.16714787483215332,-0.14981459081172943
1781554571522077000,7.264076904296875,0.004199695307761431,-0.09582941234111786,-0.11308634281158447
1781554571570591700,7.312591796875,0.021685699000954628,-0.09002619981765747,-0.09666935354471207
1781554571619106600,7.3611064453125,0.07887791097164154,-0.07941242307424545,-0.0717766135931015
1781554571667621000,7.40962109375,0.014660755172371864,-0.1130099818110466,-0.04864010959863663
1781554571716136000,7.458135986328125,-0.039248060435056686,-0.15409064292907715,-0.06215549260377884
1781554571764650800,7.506650634765625,-0.06230820715427399,-0.21067199110984802,-0.02542724646627903
1781554571813165600,7.55516552734375,-0.0009926552884280682,-0.16218459606170654,-0.004123337101191282
1781554571861680400,7.603680419921875,0.004886918235570192,-0.025274530053138733,-0.020769402384757996
1781554571910195200,7.6521953125,-0.019624030217528343,0.1003345400094986,0.00038179047987796366
1781554571958710000,7.7007099609375,-0.030925029888749123,0.13904809951782227,0.0054977829568088055
1781554572007224600,7.749224609375,-0.03474293276667595,0.11476621776819229,-0.004123337101191282
1781554572055739400,7.797739501953125,-0.025503603741526604,0.040317077189683914,-0.021609341725707054
1781554572104254200,7.846254150390625,-0.007254019379615784,-0.052687086164951324,-0.04039343446493149
1781554572152769000,7.89476904296875,0.014737112447619438,-0.061391908675432205,-0.026572618633508682
1781554572201283800,7.943283935546875,-0.010995565913617611,-0.022754713892936707,-0.039706211537122726
1781554572249798700,7.991798583984375,-0.012370011769235134,0.014660755172371864,-0.051618073135614395
1781554572298313200,8.040313232421875,-0.004886918235570192,0.02153298258781433,-0.03955349326133728
1781554572346828000,8.088828125,-0.026572618633508682,-0.05345066636800766,-0.0011453714687377214
1781554572395342800,8.1373427734375,-0.03886627033352852,-0.18669554591178894,-0.010384701192378998
1781554572443857700,8.185857666015625,0.03390299528837204,-0.2346484363079071,-0.11736239492893219
1781554572492372500,8.23437255859375,0.027488915249705315,-0.16355904936790466,-0.1766926348209381
1781554572540887300,8.28288720703125,-0.020693045109510422,-0.054214250296354294,-0.08063415437936783
1781554572589402000,8.331402099609376,-0.03787361457943916,0.041844237595796585,-0.025045456364750862
1781554572637917000,8.3799169921875,-0.037491824477910995,0.01718057133257389,-0.0654388889670372
1781554572686431500,8.428431396484376,0.012522728182375431,-0.03176496922969818,-0.06505709886550903
1781554572734946300,8.4769462890625,-0.0154243353754282,-0.060781046748161316,-0.057497646659612656
1781554572783461000,8.525461181640624,0.009162971749901772,-0.04024071618914604,-0.03497200831770897
1781554572831976000,8.573975830078124,0.022754713892936707,-0.0565049909055233,0.010919207707047462
1781554572880490800,8.62249072265625,0.00045814859913662076,-0.06246092543005943,-0.017104214057326317
1781554572929005600,8.671005615234375,-0.03298669680953026,-0.08972076326608658,-0.05299251899123192
1781554572977520400,8.719520263671875,0.0015271619195118546,-0.12950333952903748,-0.06925679743289948
1781554573026035200,8.76803515625,0.011606430634856224,-0.14538581669330597,-0.0005345066892914474
1781554573074550000,8.816550048828125,0.021227551624178886,-0.1380554437637329,-0.004046979360282421
1781554573123064600,8.865064697265625,0.030161447823047638,-0.08811724185943604,-0.01649334840476513
1781554573171579400,8.913579345703125,0.018096869811415672,0.012217295356094837,-0.011530072428286076
1781554573220094200,8.96209423828125,-0.0035888305865228176,0.05696314200758934,-0.009392046369612217
1781554573268609000,9.010609130859375,0.003741546766832471,0.03520108386874199,-0.014508038759231567
1781554573317123800,9.059123779296876,-0.0022143847309052944,-0.023365577682852745,-0.023365577682852745
1781554573365638700,9.107638671875,-0.007177661173045635,-0.04146244749426842,-0.02695440873503685
1781554573414153200,9.1561533203125,-0.020922118797898293,-0.028328854590654373,-0.04917461425065994
1781554573462668000,9.20466796875,-0.0847574844956398,-0.03352120518684387,-0.057039499282836914
1781554573511182800,9.253182861328124,-0.021685699000954628,-0.017867794260382652,-0.07971785217523575
1781554573559697700,9.30169775390625,-0.024816380813717842,0.0792597085237503,-0.028176138177514076
1781554573608212500,9.35021240234375,-0.0807105079293251,0.18203771114349365,-0.017027854919433594
1781554573656727300,9.398727294921875,-0.114460788667202,0.13828451931476593,-0.027107125148177147
1781554573705242000,9.4472421875,-0.06536252796649933,0.052916161715984344,-0.03550651669502258
1781554573753757000,9.4957568359375,-0.07498364895582199,-0.053145237267017365,0.012370011769235134
1781554573802271700,9.544271728515625,-0.061620984226465225,-0.17883066833019257,0.010995565913617611
1781554573850786300,9.592786376953125,-0.037491824477910995,-0.19914191961288452,-0.03695731982588768
1781554573899301000,9.641301025390625,-0.08521563559770584,-0.12354740500450134,-0.03733910992741585
1781554573947816000,9.68981591796875,-0.15416699647903442,-0.016798781231045723,0.022296564653515816
1781554573996330800,9.738330810546875,-0.09918916970491409,0.14080433547496796,0.03153589367866516
1781554574044845600,9.786845458984375,0.0386371985077858,0.2719111740589142,0.003359756199643016
1781554574093360400,9.8353603515625,0.009162971749901772,0.3597230017185211,0.052916161715984344
1781554574141875200,9.883875244140626,-0.09132428467273712,0.28496840596199036,0.018402300775051117
1781554574190390000,9.93239013671875,-0.004428769461810589,0.1795942485332489,-0.0019853105768561363
1781554574238904800,9.98090478515625,0.06383536756038666,0.060093823820352554,0.051389001309871674
1781554574287419600,10.029419677734374,0.029626941308379173,-0.07536543905735016,0.06299543380737305
1781554574335934500,10.0779345703125,0.0717766135931015,-0.07147117704153061,-0.004657844081521034
1781554574384449300,10.12644921875,0.1430187225341797,0.03550651669502258,0.013668099418282509
1781554574432963800,10.1749638671875,0.05108356848359108,0.0962875634431839,0.04153880476951599
1781554574481478700,10.223478759765625,0.0102319847792387,0.10827577859163284,0.014889828860759735
1781554574529993500,10.271993408203125,0.006566796451807022,0.021380268037319183,0.0021380267571657896
1781554574578508300,10.32050830078125,0.034208428114652634,-0.009850194677710533,-0.004352411720901728
1781554574627023000,10.369023193359375,0.06933315098285675,-0.02000582218170166,0.010842849500477314
1781554574675538000,10.417537841796875,0.08513928204774857,0.01824958436191082,-0.014508038759231567
1781554574724052700,10.466052734375,0.13584105670452118,0.04550942778587341,-0.020158538594841957
1781554574772567600,10.514567626953125,0.11759147047996521,0.11812597513198853,-0.028787001967430115
1781554574821082400,10.563082275390625,0.061162836849689484,0.21838416159152985,-0.004657844081521034
1781554574869597200,10.61159716796875,0.008704823441803455,0.19990549981594086,0.004428769461810589
1781554574918112000,10.660112060546876,-0.0015271619195118546,-0.00946840364485979,-0.007941242307424545
1781554574966626800,10.708626708984376,0.033368486911058426,-0.14721840620040894,-0.014049889519810677
1781554575015141600,10.7571416015625,0.0781143307685852,-0.23884813487529755,-0.03848448023200035
1781554575063656400,10.805656494140624,0.0769689604640007,-0.1156061589717865,-0.02542724646627903
1781554575112171300,10.854171142578124,0.033139415085315704,0.1311832070350647,0.002061668550595641
1781554575209200600,10.95120068359375,0.03023780696094036,0.34582582116127014,0.0022143847309052944
1781554575257715500,10.999715576171875,0.01977674663066864,0.2776380479335785,0.008704823441803455
1781554575306230300,11.048230224609375,0.05283980444073677,0.13339759409427643,0.025350889191031456
1781554575354745000,11.0967451171875,0.1043815165758133,0.10239620506763458,0.04001164436340332
1781554575403260000,11.145260009765625,0.0717766135931015,0.124845489859581,0.09407317638397217
1781554575451774700,11.193774658203125,0.06391172856092453,0.17722713947296143,0.08498656004667282
1781554575500289500,11.24228955078125,0.04329504072666168,0.23243404924869537,0.047036588191986084
1781554575548804400,11.290804443359375,0.02718348242342472,0.18906265497207642,0.000610864779446274
1781554575597319200,11.339319091796876,0.007101302966475487,0.06101011857390404,-0.04657844081521034
1781554575645834000,11.387833984375,-0.04367683082818985,-0.05917752534151077,-0.0746782198548317
1781554575694348800,11.436348876953126,0.05436696484684944,-0.17348559200763702,-0.08002328872680664
1781554575742863600,11.484863525390624,0.028405211865901947,-0.29138249158859253,-0.051847148686647415
1781554575791378400,11.53337841796875,0.030314164236187935,-0.2716057598590851,-0.060933761298656464
1781554575839893200,11.581893310546874,0.043142326176166534,-0.2070067971944809,-0.05818486958742142
1781554575888408000,11.630407958984375,0.012446369975805283,-0.08697187155485153,-0.03634645417332649
1781554575936923000,11.6789228515625,-0.024281874299049377,0.02741255611181259,-0.028405211865901947
1781554575985437700,11.727437744140625,-0.05871937796473503,0.061620984226465225,-0.04405862092971802
1781554576033952500,11.775952392578125,-0.05352702736854553,0.01206457894295454,-0.05925388261675835
1781554576082467300,11.82446728515625,-0.029932374134659767,-0.07819069176912308,-0.0654388889670372
1781554576130982100,11.872982177734375,-0.01435532234609127,-0.11942406743764877,-0.06108647957444191
1781554576179497000,11.9214970703125,-0.029626941308379173,-0.0758235901594162,-0.046883873641490936
1781554576228011800,11.97001171875,-0.012217295356094837,-0.014278964139521122,-0.025045456364750862
1781554576276526300,12.0185263671875,-0.02626718580722809,0.027030766010284424,-0.06963858753442764
1781554576325041200,12.067041259765626,-0.035735588520765305,0.03627009689807892,-0.07276926934719086
1781554576373556200,12.11555615234375,-0.04528035223484039,-0.010613775812089443,-0.04864010959863663
1781554576422071000,12.164071044921876,-0.02107483521103859,-0.09521854668855667,-0.055741410702466965
1781554576470585600,12.212585693359374,-0.007024944759905338,-0.13133592903614044,-0.04841103404760361
1781554576519100400,12.261100341796874,-0.011300998739898205,-0.09621120244264603,-0.031841326504945755
1781554576567615200,12.309615234375,-0.012217295356094837,-0.032910339534282684,-0.02932151034474373
1781554576616130300,12.35813037109375,-0.004505127668380737,0.031230462715029716,-0.04474584385752678
1781554576664645000,12.40664501953125,-0.005574141163378954,0.061850059777498245,-0.0409279391169548
1781554576713159700,12.45515966796875,-0.000610864779446274,0.037262752652168274,-0.04298960790038109
1781554576761674500,12.503674560546875,0.010690134018659592,-0.0077121676877141,-0.04634936526417732
1781554576810189300,12.552189208984375,0.0034361144062131643,-0.03390299528837204,-0.03543015569448471
1781554576858704100,12.6007041015625,-0.0022143847309052944,-0.0513126403093338,-0.02649625949561596
1781554576907219000,12.649218994140625,0.0057268571108579636,-0.06039925664663315,-0.03474293276667595
1781554576955733800,12.697733642578125,-0.006414080038666725,-0.043982263654470444,-0.03306305781006813
1781554577004248600,12.74624853515625,-0.014737112447619438,-0.027870705351233482,-0.033979352563619614
1781554577052763400,12.794763427734376,0.0006872228696011007,-0.024052800610661507,-0.039858926087617874
1781554577101278200,12.8432783203125,-0.0015271619195118546,-0.016798781231045723,-0.03535379841923714
1781554577149793000,12.89179296875,-0.008857538923621178,-0.014126247726380825,-0.029474224895238876
1781554577198307800,12.940307861328124,-0.007864884100854397,-0.024434590712189674,-0.03214675933122635
1781554577246822700,12.98882275390625,-0.003894262947142124,-0.03107774630188942,-0.03176496922969818
1781554577295337500,13.03733740234375,0.0015271619195118546,-0.01672242395579815,-0.03023780696094036
1781554577343852300,13.085852294921875,0.003665188793092966,0.0057268571108579636,-0.026343543082475662
1781554577392367000,13.1343671875,0.0016035200096666813,0.01763872057199478,-0.026190826669335365
1781554577440882000,13.1828818359375,0.0029779658652842045,0.011377356946468353,-0.028328854590654373
1781554577489396700,13.231396728515625,0.007864884100854397,-0.0038179049734026194,-0.030314164236187935
1781554577537911600,13.27991162109375,0.003359756199643016,-0.011224640533328056,-0.037033677101135254
1781554577586426400,13.32842626953125,-0.00603228947147727,-0.007941242307424545,-0.03405570983886719
1781554577634941200,13.376941162109375,-0.013515383005142212,-0.011759147047996521,-0.03527744114398956
1781554577683456000,13.4254560546875,-0.012980876490473747,-0.015806125476956367,-0.0412333719432354
1781554577731970800,13.473970703125,-0.020998476073145866,-0.013668099418282509,-0.04214967042207718
1781554577780485600,13.522485595703126,-0.01893680728971958,-0.010384701192378998,-0.03779725730419159
1781554577829000400,13.57100048828125,-0.003665188793092966,-0.007406735327094793,-0.03306305781006813
1781554577877515300,13.619515380859376,-0.0006872228696011007,-0.001221729558892548,-0.025961752980947495
1781554577926030000,13.668030029296874,-0.0030543238390237093,-0.00007635809743078426,-0.031154103577136993
1781554577974545000,13.716544921875,-0.003512472379952669,-0.014813470654189587,-0.03000873140990734
1781554578023059700,13.765059814453124,0.0009162971982732415,-0.02932151034474373,-0.041004300117492676
1781554578071574500,13.813574462890625,0.0016035200096666813,-0.026878049597144127,-0.040088001638650894
1781554578120089300,13.86208935546875,0.0021380267571657896,-0.005650499369949102,-0.033979352563619614
1781554578168604200,13.910604248046875,-0.002443459117785096,0.01107192412018776,-0.02909243479371071
1781554578217119000,13.959118896484375,-0.0034361144062131643,0.01649334840476513,-0.037262752652168274
1781554578265633800,14.0076337890625,-0.0029779658652842045,0.007941242307424545,-0.036804601550102234
1781554578314148900,14.05614892578125,-0.002825249684974551,-0.007177661173045635,-0.0345902182161808
1781554578362663400,14.104663330078125,-0.002061668550595641,-0.011224640533328056,-0.036651886999607086
1781554578411178200,14.15317822265625,-0.008093958720564842,0.0015271619195118546,-0.037033677101135254
1781554578459693000,14.201693115234375,-0.01649334840476513,0.016569707542657852,-0.036651886999607086
1781554578508208000,14.2502080078125,-0.02176205813884735,0.002901607658714056,-0.03390299528837204
1781554578556722700,14.29872265625,-0.010919207707047462,-0.023518294095993042,-0.04146244749426842
1781554578605237500,14.347237548828126,-0.004581485874950886,-0.023212861269712448,-0.03932442143559456
1781554578653752300,14.39575244140625,-0.01107192412018776,0.001832594396546483,-0.033597562462091446
1781554578702267400,14.444267333984374,-0.01183550525456667,0.016187917441129684,-0.033597562462091446
1781554578750782200,14.4927822265625,-0.010155626572668552,0.006337722297757864,-0.029474224895238876
1781554578799296800,14.541296875,-0.007330377586185932,-0.011606430634856224,-0.029626941308379173
1781554578847811800,14.589811767578125,-0.003970621153712273,-0.013973532244563103,-0.03298669680953026
1781554578896326700,14.63832666015625,-0.012217295356094837,0.006414080038666725,-0.032070402055978775
1781554578944841500,14.686841552734375,-0.019471315667033195,0.025809036567807198,-0.02871064469218254
1781554578993356000,14.73535595703125,-0.016646064817905426,0.023518294095993042,-0.028099779039621353
1781554579041871000,14.78387109375,-0.015042545273900032,0.006490438245236874,-0.0371863916516304
1781554579090386000,14.832385986328125,-0.014278964139521122,-0.0010690133785828948,-0.04046979174017906
1781554579138900700,14.880900634765625,-0.016187917441129684,0.008093958720564842,-0.04001164436340332
1781554579187415600,14.92941552734375,-0.0191658828407526,0.019471315667033195,-0.03917170315980911
1781554579235930400,14.977930419921876,-0.01779143698513508,0.03107774630188942,-0.041844237595796585
1781554579284445200,15.026445068359376,-0.021151192486286163,0.03283398225903511,-0.037033677101135254
1781554579332960000,15.0749599609375,-0.016187917441129684,0.02626718580722809,-0.0412333719432354
1781554579381474800,15.123474853515624,-0.007177661173045635,0.021227551624178886,-0.03390299528837204
1781554579429989600,15.17198974609375,-0.006108647678047419,0.02260199747979641,-0.02802342176437378
1781554579478504400,15.22050439453125,0.00045814859913662076,0.02542724646627903,-0.024052800610661507
1781554579527019300,15.269019287109375,-0.00511599238961935,0.02626718580722809,-0.025350889191031456
1781554579575534000,15.3175341796875,-0.008857538923621178,0.01282816007733345,-0.02542724646627903
1781554579624049000,15.366048828125,-0.000610864779446274,-0.0034361144062131643,-0.03023780696094036
1781554579672563700,15.414563720703125,0.002290742937475443,-0.0001527161948615685,-0.0383317656815052
1781554579721078500,15.46307861328125,-0.0102319847792387,0.025579962879419327,-0.03321577236056328
1781554579769593300,15.51159326171875,-0.01183550525456667,0.04199695214629173,-0.03138317912817001
1781554579818108200,15.560108154296875,-0.003665188793092966,0.03558287397027016,-0.036422811448574066
1781554579866623000,15.608623046875,-0.0010690133785828948,0.021380268037319183,-0.03107774630188942
1781554579915137800,15.6571376953125,-0.0019853105768561363,0.015347977168858051,-0.03237583488225937
1781554579963652600,15.705652587890626,-0.0029779658652842045,0.009392046369612217,-0.02871064469218254
1781554580012167400,15.75416748046875,-0.004886918235570192,0.0062613640911877155,-0.02825249545276165
1781554580060682200,15.80268212890625,-0.006948587018996477,-0.001221729558892548,-0.03138317912817001
1781554580109197000,15.851197021484374,-0.0009162971982732415,-0.010919207707047462,-0.03428478538990021
1781554580157712000,15.8997119140625,0.0035888305865228176,-0.008933897130191326,-0.024434590712189674
1781554580206226700,15.948226806640625,-0.0009926552884280682,-0.00923932995647192,-0.02893971838057041
1781554580254741500,15.996741455078125,0.0005345066892914474,-0.011911863461136818,-0.03810269013047218
1781554580303256300,16.04525634765625,0.000305432389723137,-0.007254019379615784,-0.03894263133406639
1781554580351771100,16.093771240234375,-0.004657844081521034,-0.002901607658714056,-0.03840812295675278
1781554580400286000,16.142285888671875,0.000610864779446274,0.0007635809597559273,-0.04306596517562866
1781554580448800800,16.19080078125,-0.0015271619195118546,0.002443459117785096,-0.03252854943275452
1781554580497315800,16.23931591796875,-0.0007635809597559273,-0.0038179049734026194,-0.028634287416934967
1781554580545830400,16.287830322265624,0.0034361144062131643,-0.009773836471140385,-0.029856016859412193
1781554580594345200,16.33634521484375,-0.001679878099821508,-0.0023671009112149477,-0.028176138177514076
1781554580642860300,16.3848603515625,-0.000839939049910754,0.010690134018659592,-0.025350889191031456
1781554580691375000,16.433375,-0.001221729558892548,0.016340631991624832,-0.029016077518463135
1781554580739889700,16.4818896484375,-0.003894262947142124,0.013133592903614044,-0.02672533318400383
1781554580788404700,16.53040478515625,-0.006185005884617567,0.007941242307424545,-0.024816380813717842
1781554580836919600,16.57891943359375,-0.009086613543331623,0.0009162971982732415,-0.028405211865901947
1781554580885434400,16.627434326171876,-0.0031306820455938578,-0.007864884100854397,-0.033597562462091446
1781554580933949200,16.67594921875,-0.015271619893610477,0.0007635809597559273,-0.030543239787220955
1781554580982464000,16.724464111328125,-0.013133592903614044,0.0012980876490473747,-0.029856016859412193
1781554581030978800,16.772978759765625,-0.004276053514331579,-0.0058795735239982605,-0.03321577236056328
1781554581079493600,16.82149365234375,-0.004810560029000044,-0.010384701192378998,-0.030390523374080658
1781554581128008400,16.870008544921873,-0.004199695307761431,-0.013362666592001915,-0.03428478538990021
1781554581176523300,16.918523193359373,0.0009162971982732415,-0.009010255336761475,-0.034895651042461395
1781554581225038000,16.9670380859375,-0.003665188793092966,-0.0021380267571657896,-0.03176496922969818
1781554581273553000,17.015552978515625,-0.0019089524867013097,0.0011453714687377214,-0.034437503665685654
1781554581322067700,17.064067626953126,0.009162971749901772,0.004276053514331579,-0.028634287416934967
1781554581370582500,17.11258251953125,0.010384701192378998,0.02412915788590908,-0.02779434807598591
1781554581419097300,17.161097412109374,-0.008017600513994694,0.043753188103437424,-0.022907428443431854
1781554581467612200,17.209612060546874,-0.016798781231045723,0.03329212963581085,-0.030085090547800064
1781554581516127000,17.258126953125,-0.009086613543331623,-0.014660755172371864,-0.030695954337716103
1781554581564641800,17.306641845703126,-0.0058795735239982605,-0.051847148686647415,-0.03520108386874199
1781554581613156600,17.355156494140626,-0.008017600513994694,-0.06505709886550903,-0.03634645417332649
1781554581661671400,17.40367138671875,-0.003894262947142124,-0.04528035223484039,-0.03543015569448471
1781554581710186200,17.452186279296875,-0.0054977829568088055,-0.007483093533664942,-0.03375028073787689
1781554581758701000,17.500701171875,-0.005803215317428112,0.018631376326084137,-0.03390299528837204
1781554581807215900,17.5492158203125,-0.005039634648710489,0.018325943499803543,-0.038789913058280945
1781554581855730700,17.597730712890623,-0.004352411720901728,0.006185005884617567,-0.033979352563619614
1781554581904245500,17.64624560546875,-0.0029779658652842045,-0.005803215317428112,-0.034666575491428375
1781554581952760300,17.69476025390625,-0.0035888305865228176,-0.008017600513994694,-0.0334448479115963
1781554582001275100,17.743275146484375,-0.0025961752980947495,0.002290742937475443,-0.030161447823047638
1781554582049790200,17.791790283203124,-0.002443459117785096,0.008628465235233307,-0.031001387163996696
1781554582098304800,17.8403046875,-0.00038179047987796366,0.013744457624852657,-0.03298669680953026
1781554582146819600,17.888819580078124,0.0016035200096666813,0.014660755172371864,-0.02916879393160343
1781554582195334400,17.93733447265625,0.002901607658714056,0.011300998739898205,-0.03145953640341759
1781554582243849500,17.985849365234376,-0.0016035200096666813,0.008857538923621178,-0.028863361105322838
1781554582292364300,18.0343642578125,-0.0027488914784044027,0.004886918235570192,-0.03145953640341759
1781554582340878800,18.08287890625,-0.004276053514331579,-0.00045814859913662076,-0.030543239787220955
1781554582389394000,18.131393798828125,-0.009926552884280682,-0.000305432389723137,-0.03481929376721382
1781554582437908700,18.17990869140625,-0.017715077847242355,-0.012217295356094837,-0.038789913058280945
1781554582486423600,18.228423583984377,-0.006108647678047419,-0.026572618633508682,-0.03848448023200035
1781554582534938400,18.2769384765625,-0.004276053514331579,-0.02412915788590908,-0.033597562462091446
1781554582583453200,18.325453125,0.00045814859913662076,-0.006337722297757864,-0.030161447823047638
1781554582631968000,18.373968017578125,0.0032070400193333626,0.01779143698513508,-0.035124726593494415
1781554582680482800,18.42248291015625,-0.0017562361899763346,0.035124726593494415,-0.025809036567807198
1781554582728997600,18.47099755859375,-0.002901607658714056,0.02588539570569992,-0.02741255611181259
1781554582777512400,18.519512451171874,0.003665188793092966,-0.004199695307761431,-0.030543239787220955
1781554582826027300,18.56802734375,0.008170315995812416,-0.028405211865901947,-0.021380268037319183
1781554582874542000,18.6165419921875,0.010613775812089443,-0.03023780696094036,-0.022296564653515816
1781554582923057000,18.665056884765626,0.007864884100854397,-0.011606430634856224,-0.022296564653515816
1781554582971571700,18.71357177734375,0.00946840364485979,0.012904518283903599,-0.023212861269712448
1781554583020086500,18.76208642578125,0.005039634648710489,0.020158538594841957,-0.032910339534282684
1781554583068601300,18.810601318359375,0.000610864779446274,0.009773836471140385,-0.037949975579977036
1781554583165631000,18.907630859375,-0.00847574882209301,-0.02237292192876339,-0.035124726593494415
1781554583214145800,18.956145751953127,-0.008399390615522861,-0.027870705351233482,-0.03520108386874199
1781554583262660600,19.00466064453125,-0.007406735327094793,-0.02283107116818428,-0.039706211537122726
1781554583311175400,19.053175537109375,-0.00045814859913662076,-0.01107192412018776,-0.03787361457943916
1781554583359690200,19.101690185546875,-0.006872228812426329,0.004046979360282421,-0.03145953640341759
1781554583408205000,19.150205078125,-0.0035888305865228176,0.001832594396546483,-0.03283398225903511
1781554583456720000,19.198719970703124,0.0007635809597559273,-0.014584396965801716,-0.032070402055978775
1781554583505234700,19.247234619140624,-0.020769402384757996,-0.010461059398949146,-0.036422811448574066
1781554583553749500,19.29574951171875,-0.0021380267571657896,-0.014431680552661419,-0.02718348242342472
1781554583602264300,19.344264404296876,0.001450803829357028,-0.0022143847309052944,-0.027488915249705315
1781554583650779400,19.392779296875,0.005803215317428112,0.008093958720564842,-0.031612250953912735
1781554583699294000,19.4412939453125,0.002061668550595641,0.01282816007733345,-0.031154103577136993
1781554583747808800,19.489808837890624,-0.013133592903614044,0.012293653562664986,-0.03390299528837204
1781554583796323600,19.538323486328125,0.002672533504664898,-0.0007635809597559273,-0.032681263983249664
1781554583844838700,19.586838623046877,0.005650499369949102,-0.007788525894284248,-0.037491824477910995
1781554583893353200,19.635353271484377,0.006185005884617567,0.0027488914784044027,-0.03375028073787689
1781554583941868000,19.683867919921877,0.0032070400193333626,0.010766491293907166,-0.03451386094093323
1781554583990382800,19.7323828125,0.004352411720901728,0.01740964688360691,-0.03894263133406639
1781554584038898000,19.78089794921875,-0.0054977829568088055,0.015042545273900032,-0.03252854943275452
1781554584087412500,19.82941259765625,-0.003359756199643016,0.0015271619195118546,-0.034895651042461395
1781554584135927300,19.87792724609375,0.001832594396546483,-0.02084576152265072,-0.033368486911058426
1781554584184442400,19.9264423828125,0.0029779658652842045,-0.02779434807598591,-0.02871064469218254
1781554584232957200,19.974957275390626,0.002443459117785096,-0.02153298258781433,-0.03237583488225937
1781554584281472000,20.023471923828126,0.0010690133785828948,-0.012675444595515728,-0.03260490670800209
1781554584329986600,20.071986572265626,-0.0023671009112149477,-0.011148282326757908,-0.03474293276667595
1781554584378501600,20.120501708984374,-0.0009926552884280682,-0.020158538594841957,-0.038789913058280945
1781554584427016400,20.169016357421874,0.0027488914784044027,-0.02764163166284561,-0.039706211537122726
1781554584475531300,20.21753125,-0.00511599238961935,-0.02718348242342472,-0.03581194952130318
1781554584524046000,20.266046142578126,-0.007864884100854397,-0.025274530053138733,-0.038789913058280945
1781554584572561000,20.314560791015627,-0.007254019379615784,-0.023441936820745468,-0.039477135986089706
1781554584621075700,20.36307568359375,-0.007024944759905338,-0.01718057133257389,-0.03817904740571976
1781554584669590500,20.411590576171875,-0.008246674202382565,-0.009773836471140385,-0.039248060435056686
1781554584718105300,20.460105224609375,-0.007024944759905338,-0.001221729558892548,-0.03611737862229347
1781554584766620200,20.5086201171875,-0.005192350596189499,0.002901607658714056,-0.039706211537122726
1781554584815135000,20.557135009765624,-0.007330377586185932,0.0019089524867013097,-0.033826638013124466
1781554584863649800,20.60564990234375,-0.009010255336761475,-0.000305432389723137,-0.030390523374080658
1781554584912164600,20.65416455078125,-0.008552107028663158,-0.008170315995812416,-0.032910339534282684
1781554584960679400,20.702679443359376,-0.003665188793092966,-0.008857538923621178,-0.02779434807598591
1781554585009194200,20.7511943359375,-0.0031306820455938578,0.003359756199643016,-0.023594651371240616
1781554585057709000,20.799708984375,-0.007024944759905338,0.006719512399286032,-0.026190826669335365
1781554585106223900,20.848223876953124,-0.0031306820455938578,0.007330377586185932,-0.027030766010284424
1781554585154738700,20.89673876953125,-0.004657844081521034,0.006719512399286032,-0.02519817277789116
1781554585203253500,20.94525341796875,-0.011911863461136818,0.0057268571108579636,-0.024205517023801804
1781554585251768300,20.993768310546876,-0.0030543238390237093,0.0016035200096666813,-0.028099779039621353
1781554585300283100,21.042283203125,0.001450803829357028,0.004428769461810589,-0.028099779039621353
1781554585348798000,21.0907978515625,-0.004734201822429895,0.012217295356094837,-0.023136503994464874
1781554585397312800,21.139312744140625,-0.002290742937475443,0.00603228947147727,-0.019242240116000175
1781554585445827600,21.18782763671875,0.004276053514331579,-0.007406735327094793,-0.0193185992538929
1781554585494342400,21.23634228515625,0.0034361144062131643,-0.010384701192378998,-0.019853105768561363
1781554585542857200,21.284857177734374,0.0007635809597559273,-0.0010690133785828948,-0.019471315667033195
1781554585591372000,21.3333720703125,-0.00045814859913662076,0.00954476185142994,-0.022296564653515816
1781554585639886800,21.381886962890626,-0.0009162971982732415,0.011224640533328056,-0.024434590712189674
1781554585688401700,21.430401611328126,0.000839939049910754,0.00847574882209301,-0.02283107116818428
1781554585736916500,21.47891650390625,-0.005268708802759647,0.000839939049910754,-0.024434590712189674
1781554585785431300,21.527431396484374,-0.007788525894284248,-0.003741546766832471,-0.03260490670800209
1781554585833946000,21.575946044921874,-0.0030543238390237093,-0.0030543238390237093,-0.030543239787220955
1781554585882461000,21.6244609375,-0.003283398225903511,0.005192350596189499,-0.02542724646627903
1781554585930975700,21.672975830078126,0.001832594396546483,0.009850194677710533,-0.026878049597144127
1781554585979490600,21.721490478515626,0.0025961752980947495,0.005192350596189499,-0.023518294095993042
1781554586028005600,21.770005615234375,0.003970621153712273,-0.0031306820455938578,-0.01779143698513508
1781554586125035000,21.867034912109375,0.010461059398949146,-0.000305432389723137,-0.020769402384757996
1781554586173549800,21.9155498046875,0.006719512399286032,0.007024944759905338,-0.02023489587008953
1781554586222065000,21.96406494140625,0.008552107028663158,-0.001221729558892548,-0.023747367784380913
1781554586270579500,22.012579345703124,0.01259908638894558,-0.010079269297420979,-0.03283398225903511
1781554586319094300,22.06109423828125,0.0057268571108579636,0.000610864779446274,-0.03352120518684387
1781554586367609300,22.109609375,-0.002901607658714056,0.0154243353754282,-0.02741255611181259
1781554586416124200,22.158124267578124,0.004428769461810589,0.010461059398949146,-0.03283398225903511
1781554586464639000,22.206638916015624,0.005192350596189499,-0.0009926552884280682,-0.024740023538470268
1781554586513163000,22.2551630859375,0.005421424750238657,-0.007177661173045635,-0.016875140368938446
1781554586561668600,22.303668701171876,0.012217295356094837,-0.009162971749901772,-0.017944153398275375
1781554586658698200,22.4006982421875,0.0013744457392022014,0.012980876490473747,-0.02130390889942646
1781554586707213000,22.449213134765625,0.0066431546583771706,0.004276053514331579,-0.027488915249705315
1781554586755728000,22.497727783203125,0.009697478264570236,-0.006414080038666725,-0.026343543082475662
1781554586804242700,22.54624267578125,0.004581485874950886,-0.004352411720901728,-0.024663666263222694
1781554586852757500,22.594757568359373,0.004123337101191282,0.000839939049910754,-0.02695440873503685
1781554586901272300,22.643272216796873,0.001450803829357028,0.0030543238390237093,-0.022754713892936707
1781554586949787100,22.691787109375,-0.0016035200096666813,0.001679878099821508,-0.024205517023801804
1781554586998302000,22.740302001953125,-0.0005345066892914474,-0.008628465235233307,-0.03000873140990734
1781554587046816800,22.788816650390626,-0.002290742937475443,-0.011300998739898205,-0.030695954337716103
1781554587095331600,22.83733154296875,-0.010690134018659592,-0.014508038759231567,-0.032681263983249664
1781554587143846400,22.885846435546874,-0.007330377586185932,-0.016416991129517555,-0.03932442143559456
1781554587192361200,22.934361328125,-0.012522728182375431,-0.010384701192378998,-0.03237583488225937
1781554587240876000,22.9828759765625,-0.021685699000954628,0.002901607658714056,-0.029245151206851006
1781554587289390800,23.031390869140626,-0.028863361105322838,0.011911863461136818,-0.028557928279042244
1781554587337905700,23.07990576171875,-0.02306014485657215,0.01282816007733345,-0.05306887626647949
1781554587386420500,23.12842041015625,-0.02237292192876339,0.03130681812763214,-0.0539088174700737
1781554587434935300,23.176935302734375,-0.02176205813884735,0.043371398001909256,-0.05894844979047775
1781554587483450000,23.2254501953125,-0.016875140368938446,0.048792824149131775,-0.06902772188186646
1781554587531965000,23.27396484375,-0.03023780696094036,0.060781046748161316,-0.05108356848359108
1781554587580479700,23.322479736328123,-0.039706211537122726,0.05192350596189499,-0.0409279391169548
1781554587628994600,23.37099462890625,-0.03634645417332649,0.03153589367866516,-0.05871937796473503
1781554587677509400,23.41950927734375,-0.02802342176437378,0.04108065739274025,-0.06291907280683517
1781554587726024200,23.468024169921875,-0.02764163166284561,0.08681915700435638,-0.0720820426940918
1781554587774539000,23.5165390625,-0.03779725730419159,0.12140937149524689,-0.06131555140018463
1781554587823054000,23.56505419921875,-0.03481929376721382,0.12247838824987411,-0.06963858753442764
1781554587871568600,23.613568603515624,-0.008399390615522861,0.10476330667734146,-0.07803797721862793
1781554587920083500,23.66208349609375,0.02756527252495289,0.1104138121008873,-0.06085740402340889
1781554587968598500,23.7105986328125,0.045738499611616135,0.10170898586511612,-0.0409279391169548
1781554588017113300,23.75911328125,0.09544762223958969,0.09346231073141098,-0.030925029888749123
1781554588065628200,23.807628173828125,0.2911534309387207,0.0795651376247406,0.030543239787220955
1781554588114143000,23.85614306640625,0.39225155115127563,0.025503603741526604,0.08170316368341446
1781554588162657800,23.90465771484375,0.4175260663032532,-0.03527744114398956,0.08254310488700867
1781554588211172600,23.953172607421877,0.38934993743896484,-0.08032871782779694,0.03237583488225937
1781554588259687400,24.0016875,0.25381430983543396,-0.14278964698314667,-0.04604393243789673
1781554588308202200,24.0502021484375,0.2559523284435272,-0.08414662629365921,-0.09590577334165573
1781554588356717000,24.098717041015625,0.18837542831897736,0.020311253145337105,-0.07864884287118912
1781554588405231900,24.14723193359375,0.1190422773361206,0.08277218043804169,-0.041004300117492676
1781554588453746700,24.19574658203125,0.12392919510602951,0.1493564397096634,-0.07513637095689774
1781554588502261500,24.244261474609374,0.011911863461136818,0.06704241037368774,-0.026878049597144127
1781554588550776300,24.2927763671875,-0.027947064489126205,-0.06597339361906052,-0.09796743839979172
1781554588599291100,24.341291015625,-0.03436114266514778,-0.27259841561317444,-0.24694208800792694
1781554588647806000,24.389805908203126,-0.0948367565870285,-0.48189595341682434,-0.2669478952884674
1781554588696320800,24.43832080078125,0.036193739622831345,-0.5400808453559875,-0.3949240744113922
1781554588744835600,24.486835693359374,0.007483093533664942,-0.3306305706501007,0.07651081681251526
1781554588793350400,24.535350341796875,-0.15752676129341125,-0.1343138962984085,0.053756099194288254
1781554588841865200,24.583865234375,-0.39248061180114746,-0.06444623321294785,-0.599334716796875
1781554588890380000,24.632380126953127,-0.446007639169693,0.07567087560892105,-0.2980256676673889
1781554588938895000,24.68089501953125,-0.5900954008102417,0.17913609743118286,-0.24495677649974823
1781554588987409700,24.72940966796875,-0.5584067702293396,0.23182319104671478,-0.07192932814359665
1781554589035924500,24.777924560546875,-0.36193737387657166,0.24236060678958893,-0.04993819445371628
1781554589084439600,24.826439453125,-0.404468834400177,0.15760311484336853,-0.1646280586719513
1781554589132954400,24.874954345703124,-0.6410261988639832,0.11140646785497665,-0.4172206521034241
1781554589181469200,24.92346923828125,-0.600785493850708,0.03023780696094036,-0.7538834810256958
1781554589229984000,24.97198388671875,-0.16905683279037476,-0.19036073982715607,-0.3121519088745117
1781554589278498800,25.020498779296876,-0.11972949653863907,0.023976443335413933,-0.12873975932598114
1781554589327013600,25.069013671875,-0.07658717036247253,0.000610864779446274,0.2548833191394806
1781554589375528400,25.117528564453124,0.19020801782608032,-0.0668896958231926,0.7518981695175171
1781554589424043300,25.166043212890624,0.2733619809150696,-0.30634868144989014,1.1556798219680786
1781554589472558000,25.21455810546875,0.3836230933666229,-0.3340666890144348,0.6369028687477112
1781554589521073000,25.263072998046876,1.0739766359329224,0.05497783049941063,0.3084103465080261
1781554589569587700,25.311587646484377,1.1278854608535767,0.4612792730331421,0.5283980369567871
1781554589618102500,25.3601025390625,0.6600393652915955,0.4679224193096161,0.7031053900718689
1781554589666617600,25.40861767578125,0.31322091817855835,0.40981391072273254,0.2450331300497055
1781554589715132400,25.45713232421875,-0.20906847715377808,0.2590830326080322,0.032070402055978775
1781554589763647200,25.505647216796874,-0.24556763470172882,-0.051618073135614395,-0.11369720846414566
1781554589812162000,25.554162109375,0.4871646761894226,-0.3646099269390106,-0.7296016216278076
1781554589860676900,25.6026767578125,0.3402516841888428,-1.0459532737731934,0.10980294644832611
1781554589909191700,25.651191650390626,0.14546217024326324,-0.8481857180595398,0.11575887352228165
1781554589957706500,25.69970654296875,0.35094180703163147,-0.46143198013305664,-0.46311184763908386
1781554590006221300,25.74822119140625,-0.20395247638225555,-0.11239911615848541,-0.5400808453559875
1781554590054736100,25.796736083984374,-0.544891357421875,0.3246746361255646,-0.2467893660068512
1781554590103251000,25.8452509765625,-0.6029235124588013,0.464486300945282,-0.3689623177051544
1781554590151765800,25.893765869140626,-0.8328377604484558,0.5048797130584717,-0.38263043761253357
1781554590200280600,25.942280517578126,-0.665842592716217,0.2162461280822754,-0.7434224486351013
1781554590248795400,25.99079541015625,-0.7483093738555908,0.170965775847435,-0.7968730926513672
1781554590297310200,26.039310302734375,-0.8702532649040222,-0.27175846695899963,-0.21991132199764252
1781554590345825300,26.0878251953125,-0.3523162603378296,-0.1279761642217636,0.10567960888147354
1781554590394340000,26.136340087890623,-0.15668681263923645,0.33055421710014343,0.4615846872329712
1781554590442855000,26.18485498046875,0.029703300446271896,-0.4356229603290558,0.8744529485702515
1781554590491369700,26.23336962890625,-0.03306305781006813,-0.7609084248542786,1.4743984937667847
1781554590539884500,26.281884521484375,0.2799287736415863,-0.8923971056938171,0.9053016304969788
1781554590588399400,26.3303994140625,0.9161444306373596,-0.519769549369812,0.13530655205249786
1781554590636914200,26.3789140625,1.4464514255523682,0.054672397673130035,0.30115634202957153
1781554590685429000,26.427428955078124,0.8457422852516174,0.3148244321346283,0.6892845630645752
1781554590733944000,26.475944091796876,-0.0001527161948615685,0.3529271185398102,0.3251327872276306
1781554590782458600,26.524458740234376,-0.5217548608779907,0.05925388261675835,-0.13309216499328613
1781554590830973700,26.5729736328125,0.6892845630645752,-0.23426663875579834,-0.8573487401008606
1781554590879488500,26.621488525390625,0.5533671379089355,-1.17499840259552,-0.08116865903139114
1781554590928003300,26.67000341796875,0.5761218667030334,-1.3038908243179321,-0.11209368705749512
1781554590976518100,26.71851806640625,1.0372483730316162,-0.9337068200111389,-0.4783071279525757
1781554591025033000,26.767032958984377,0.3283398151397705,-0.20624321699142456,-0.7202095985412598
1781554591073547800,26.8155478515625,-0.7891609072685242,0.31009024381637573,-0.5487856268882751
1781554591122062600,26.8640625,-1.3987276554107666,0.8521563410758972,-0.5903244614601135
1781554591170577400,26.912577392578125,-0.8980475664138794,1.2201260328292847,-0.6780598759651184
1781554591219092200,26.96109228515625,-0.9064469933509827,0.8732311725616455,-0.7686969637870789
1781554591267607300,27.009607177734374,-1.0139591693878174,0.4402044415473938,-1.0136537551879883
1781554591316121900,27.058121826171874,-0.6950113773345947,0.0206166859716177,-0.5154935121536255
1781554591364637000,27.106636962890626,-0.23098324239253998,-0.2260199636220932,-0.1516471803188324
1781554591413151700,27.15515185546875,-0.15179990231990814,1.163468360900879,0.2900844216346741
1781554591461666600,27.20366650390625,-0.09162971377372742,0.20952661335468292,1.1322379112243652
1781554591510181400,27.252181396484374,-0.0295505840331316,-1.0147227048873901,1.6084070205688477
1781554591558696200,27.3006962890625,0.0027488914784044027,-1.7291290760040283,1.1316269636154175
1781554591607211300,27.349211181640626,0.9542471170425415,-0.9858593940734863,0.15241076052188873
1781554591655725800,27.397725830078127,1.292437195777893,0.031154103577136993,0.3375791609287262
1781554591704241000,27.446240966796875,0.690048098564148,0.29940009117126465,0.6385827660560608
1781554591752755700,27.494755615234375,0.19593487679958344,0.4520399272441864,0.29596397280693054
1781554591801270500,27.5432705078125,-0.4477638900279999,0.38988444209098816,-0.1700494885444641
1781554591849785300,27.591785400390624,0.2931387424468994,0.12461641430854797,-0.5584831237792969
1781554591898300200,27.640300048828124,0.7921388745307922,-0.6858484148979187,-0.13141228258609772
1781554591946815000,27.68881494140625,0.43340855836868286,-1.2132538557052612,-0.1395062506198883
1781554591995329800,27.737329833984376,0.936684787273407,-0.9831868410110474,-0.3479638397693634
1781554592043844600,27.7858447265625,0.647516667842865,-0.3520108163356781,-0.7166207432746887
1781554592092359700,27.834359619140624,-0.5293906927108765,0.03497200831770897,-0.5555815100669861
1781554592140874500,27.88287451171875,-1.2118029594421387,0.691575288772583,-0.4540252387523651
1781554592189389300,27.931389404296876,-1.0687079429626465,0.9681442975997925,-0.6837103962898254
1781554592237904100,27.979904052734376,-0.7328850030899048,1.0170135498046875,-0.7256309986114502
1781554592286419000,28.0284189453125,-1.0751984119415283,0.47754353284835815,-1.0435097217559814
1781554592334933800,28.076933837890625,-0.7063124179840088,0.008781181648373604,-0.47983428835868835
1781554592383448600,28.125448486328125,-0.060933761298656464,-0.035124726593494415,0.0243582334369421
1781554592431963600,28.173963623046873,-0.11392628401517868,1.4114030599594116,0.488004595041275
1781554592480478200,28.222478271484373,-0.046425722539424896,0.11423171311616898,1.1646137237548828
1781554592528993300,28.2709931640625,-0.07574722915887833,-0.7560978531837463,1.6818634271621704
1781554592577508000,28.319508056640625,-0.019242240116000175,-1.4058289527893066,1.265482783317566
1781554592626022700,28.368022705078126,0.9847903847694397,-0.7079159021377563,0.0058795735239982605
1781554592674537700,28.416537841796874,1.7079778909683228,0.21800236403942108,0.18142683804035187
1781554592723052800,28.465052734375,0.9635628461837769,0.5577195286750793,0.744796872138977
1781554592771567600,28.513567626953126,0.23587016761302948,0.6826413869857788,0.32994332909584045
1781554592820082400,28.56208251953125,-0.48357582092285156,0.43944084644317627,-0.30779948830604553
1781554592868597200,28.61059716796875,0.18570289015769958,0.08155044913291931,-0.6603448390960693
1781554592917112000,28.659112060546875,0.7904590368270874,-0.7185297012329102,-0.5432878732681274
1781554592965627000,28.707626953125,0.41210466623306274,-1.4120138883590698,-0.13515383005142212
1781554593014142000,28.756141845703127,0.9227112531661987,-0.9470694661140442,-0.5207622051239014
1781554593062656800,28.80465673828125,0.5526798963546753,-0.4067595899105072,-0.8165735006332397
1781554593111171600,28.853171630859375,-0.524503767490387,0.4340957701206207,-0.6772963404655457
1781554593159686400,28.901686279296875,-1.3151918649673462,1.214322805404663,-0.44837474822998047
1781554593208201200,28.950201171875,-1.0174716711044312,1.2681553363800049,-0.5560396909713745
1781554593256716000,28.998716064453124,-0.4993056058883667,1.4343105554580688,-0.615293562412262
1781554593305230800,29.04723095703125,-0.773202121257782,0.6346884965896606,-0.8664353489875793
1781554593353746000,29.095745849609376,-0.9239329695701599,0.2386954128742218,-0.6727148294448853
1781554593402260700,29.1442607421875,-0.12118030339479446,-0.24205516278743744,-0.004581485874950886
1781554593450775600,29.192775634765624,-0.10567960888147354,1.4791326522827148,0.609948456287384
1781554593499290400,29.241290283203124,0.03138317912817001,1.3871212005615234,1.1772891283035278
1781554593547805200,29.28980517578125,0.16714787483215332,-0.616209864616394,1.8025856018066406
1781554593596330800,29.338330810546875,0.2882518172264099,-1.556101679801941,1.3383283615112305
1781554593644835000,29.3868349609375,1.1533126831054688,-0.9960150122642517,0.05436696484684944
1781554593693350000,29.435349853515625,1.5667154788970947,0.0021380267571657896,0.2070067971944809
1781554593741864700,29.48386474609375,0.7544943690299988,0.5655080676078796,0.7806851863861084
1781554593790379800,29.5323798828125,0.09491311758756638,0.9511164426803589,0.42248934507369995
1781554593838894600,29.58089453125,-0.4315759539604187,0.5263363718986511,-0.36247187852859497
1781554593887409400,29.629409423828125,0.505032479763031,-0.0007635809597559273,-0.7728966474533081
1781554593935924200,29.67792431640625,0.4560105502605438,-0.6037634611129761,0.14973822236061096
1781554593984439000,29.72643896484375,0.778241753578186,-0.9283617734909058,-0.11247547715902328
1781554594032954400,29.774954345703126,1.0986403226852417,-0.6562978625297546,-0.5333613157272339
1781554594081469000,29.823468994140626,0.22006404399871826,-0.235793799161911,-0.7737365961074829
1781554594129983700,29.871983642578126,-1.1536180973052979,0.38988444209098816,-0.6461422443389893
1781554594178498600,29.92049853515625,-1.9062799215316772,0.8002328872680664,-0.6509527564048767
1781554594227013600,29.969013671875,-1.2428044080734253,0.910952091217041,-0.7880155444145203
1781554594275528400,30.017528564453126,-0.8475748896598816,0.48533207178115845,-0.805425226688385
1781554594324043300,30.066043212890627,-0.6707295179367065,-0.028863361105322838,-0.8069523572921753
1781554594372558000,30.11455810546875,-0.5808560252189636,-0.33544111251831055,-0.16768237948417664
1781554594421073000,30.163072998046875,-0.23021966218948364,0.1945604383945465,0.03138317912817001
1781554594469588000,30.211587890625,0.01611155830323696,0.94523686170578,0.5190060138702393
1781554594518102800,30.260102783203124,0.013209951110184193,-0.09918916970491409,1.1451424360275269
1781554594566617600,30.30861767578125,-0.03962985426187515,-1.3865866661071777,1.7934989929199219
1781554594615132700,30.357132568359376,0.4079813063144684,-1.6245185136795044,1.1074978113174438
1781554594663647500,30.4056474609375,1.313130259513855,-0.6769908666610718,-0.11751510947942734
1781554594712162300,30.454162353515624,1.2675443887710571,0.3594939112663269,0.3692677617073059
1781554594760677000,30.502677001953124,0.6107884049415588,0.8608611822128296,0.625907301902771
1781554594809192200,30.551192138671876,-0.08666644245386124,1.254563570022583,0.24457497894763947
1781554594857707000,30.59970703125,-0.2929096519947052,0.6401099562644958,-0.09216422587633133
1781554594906221800,30.648221923828125,0.9318742156028748,0.17119485139846802,-0.7421243786811829
1781554595003251700,30.745251708984377,0.9317215085029602,-0.8966731429100037,-0.31871870160102844
1781554595051766500,30.7937666015625,1.1712568998336792,-0.5002219080924988,-0.6462185978889465
1781554595100281300,30.84228125,0.007635809946805239,0.005955931730568409,-0.7411317229270935
1781554595148796200,30.890796142578125,-1.2289835214614868,0.6145299673080444,-0.5329795479774475
1781554595197311200,30.939311279296874,-1.3091596364974976,0.8192460536956787,-0.6039161682128906
1781554595245826000,30.987825927734374,-0.6795107126235962,1.2733476161956787,-0.6210203766822815
1781554595294340900,31.0363408203125,-0.643393337726593,0.4999164640903473,-0.7604503035545349
1781554595342856000,31.08485595703125,-0.9585232138633728,-0.032910339534282684,-0.711046576499939
1781554595391370800,31.133370849609374,-0.591622531414032,0.2375500351190567,-0.2946659028530121
1781554595439885600,31.181885498046874,-0.2931387424468994,0.32994332909584045,0.16745330393314362
1781554595488400600,31.230400634765626,-0.08162680268287659,1.437822937965393,0.8197805285453796
1781554595536915500,31.27891552734375,0.12247838824987411,-0.5864301919937134,1.3667335510253906
1781554595585430300,31.32743017578125,0.1450040340423584,-1.2238675355911255,1.5721368789672852
1781554595633945000,31.375945068359375,0.31436628103256226,-1.3658173084259033,0.7730493545532227
1781554595682460200,31.424460205078127,1.2922080755233765,-0.39446592330932617,-0.10545053333044052
1781554595730975000,31.47297509765625,1.097800374031067,0.4682278633117676,0.6124683022499084
1781554595779489800,31.52148974609375,0.5148062705993652,0.8011491298675537,0.6706531643867493
1781554595828004900,31.5700048828125,-0.12186752259731293,0.8311578631401062,0.027870705351233482
1781554595876519700,31.618519775390624,-0.3274235129356384,0.4125627875328064,-0.4114174246788025
1781554595925034500,31.667034423828124,0.7001274228096008,-0.20288346707820892,-0.7163153290748596
1781554595973549600,31.715549560546876,0.09392046183347702,-0.8134428262710571,0.4018726646900177
1781554596022064400,31.764064453125,0.5710058808326721,-0.8943824172019958,-0.1951712965965271
1781554596070579200,31.8125791015625,0.878728985786438,-0.4361574649810791,-0.4764745235443115
1781554596119094300,31.86109423828125,0.16470441222190857,0.2801578640937805,-0.6672170758247375
1781554596167609000,31.909609130859376,-0.998153030872345,0.7547997832298279,-0.4410443603992462
1781554596216124000,31.9581240234375,-1.1772891283035278,0.20914483070373535,-0.528092622756958
1781554596264639000,32.006638916015625,-0.5778780579566956,0.7476984858512878,-0.6302597522735596
1781554596313153800,32.05515380859375,-0.6946296095848083,0.5661189556121826,-0.902400016784668
1781554596361668900,32.1036689453125,-0.8408553600311279,-0.010461059398949146,-0.8429933786392212
1781554596410183700,32.15218359375,-0.7150171995162964,0.2300669401884079,-0.48823368549346924
1781554596458698500,32.20069848632812,-0.4883100390434265,0.06146826967597008,0.00038179047987796366
1781554596507213300,32.24921337890625,-0.2548833191394806,0.9962440729141235,0.5749000906944275
1781554596555728400,32.297728271484374,-0.024052800610661507,-0.17745621502399445,1.2171480655670166
1781554596604243200,32.3462431640625,-0.0409279391169548,-1.3820815086364746,1.4790563583374023
1781554596652758300,32.39475830078125,0.11720968037843704,-2.1838417053222656,1.0415244102478027
1781554596701273000,32.443273193359374,0.9175952672958374,-1.6399428844451904,-0.14194969832897186
1781554596749788000,32.49178784179688,1.3978877067565918,-0.14813470840454102,0.29993459582328796
1781554596798303000,32.540302978515626,0.5980366468429565,0.7030289769172668,0.7360920310020447
1781554596846817800,32.58881787109375,0.025274530053138733,0.984866738319397,0.5439751148223877
1781554596895332600,32.63733251953125,-0.3860665261745453,0.6921098232269287,-0.07757982611656189
1781554596943847700,32.68584765625,0.499381959438324,-0.24984370172023773,-0.6368265151977539
1781554596992362500,32.73436254882812,0.29275694489479065,-0.7975603342056274,-0.25182899832725525
1781554597040877600,32.78287768554687,0.09185878932476044,-1.1229221820831299,-0.16676609218120575
1781554597089392400,32.831392333984375,0.5427533388137817,-0.10125083476305008,-0.5367210507392883
1781554597137907200,32.8799072265625,0.22266021370887756,0.3393353819847107,-0.7334958910942078
1781554597186422300,32.92842236328125,-0.7562506198883057,0.17508912086486816,-0.5900954008102417
1781554597234937000,32.97693701171875,-1.128878116607666,0.26794055104255676,-0.6756927967071533
1781554597283452200,33.0254521484375,-0.8368847370147705,0.1706603467464447,-0.7279980778694153
1781554597331967000,33.07396704101563,-0.36827510595321655,0.7365502119064331,-0.8568142056465149
1781554597380481800,33.122481689453124,-0.5257254838943481,-0.09506583213806152,-1.0641264915466309
1781554597428996900,33.17099682617187,-0.7079922556877136,-0.5386300086975098,-0.4211149215698242
1781554597477511700,33.21951171875,-0.40950846672058105,0.5992583632469177,0.07971785217523575
1781554597526026200,33.26802612304687,-0.3326158821582794,0.6216312646865845,0.328645259141922
1781554597574541600,33.31654150390625,0.03130681812763214,-0.010461059398949146,0.6674461364746094
1781554597623056400,33.36505639648438,-0.06520981341600418,-0.8981239199638367,1.408272385597229
1781554597671571500,33.413571533203125,0.03321577236056328,-1.842979073524475,1.5304453372955322
1781554597720086300,33.46208618164062,0.7354812026023865,-1.665522813796997,0.40408703684806824
1781554597768601300,33.51060131835938,1.2749511003494263,0.7663298845291138,0.3484983444213867
1781554597817116200,33.5591162109375,0.5519927144050598,2.129474639892578,1.0039563179016113
1781554597865631200,33.60763134765625,0.1989128440618515,2.366795539855957,1.275485634803772
1781554597914146000,33.65614599609375,-0.2617555558681488,2.0345613956451416,0.1104138121008873
1781554597962661000,33.7046611328125,0.3113119602203369,0.6102539300918579,-0.5541307330131531
1781554598011176000,33.75317602539062,0.6163625717163086,-0.711046576499939,-0.16523891687393188
1781554598059690800,33.801690673828126,-0.02626718580722809,-1.5318198204040527,-0.310166597366333
1781554598108205800,33.850205810546875,0.28412848711013794,0.3035998046398163,-0.15729768574237823
1781554598156720600,33.898720703125,0.19814926385879517,1.6282600164413452,0.07200568914413452
1781554598205235700,33.94723559570313,-0.8748347163200378,-0.2395353466272354,-0.8380300998687744
1781554598253750500,33.99575048828125,-0.8507055640220642,-0.925460159778595,-0.991968035697937
1781554598302265600,34.044265625,-0.6319395899772644,-0.09246965497732162,-0.9371429085731506
1781554598350780400,34.09278051757813,-0.8561269640922546,-0.05757400393486023,-1.39849853515625
1781554598399295500,34.14129541015625,-0.6438514590263367,-1.1115448474884033,-1.1485021114349365
1781554598447810300,34.18981030273437,-0.722347617149353,-1.4843250513076782,-0.3480401933193207
1781554598496325400,34.23832543945313,-0.21227550506591797,-0.5813905596733093,-0.11346813291311264
1781554598544840000,34.28683984375,0.02367101050913334,0.2412915825843811,0.7422007322311401
1781554598593354800,34.33535473632813,-0.45883581042289734,-1.5933644771575928,1.426598310470581
1781554598641869800,34.383869873046876,-0.427528977394104,-0.9476040005683899,1.8335870504379272
1781554598690384600,34.43238452148437,0.5129737257957458,-0.35239261388778687,1.409799575805664
1781554598738899700,34.48089965820313,0.7718276381492615,1.7427972555160522,0.8214604258537292
1781554598787414500,34.52941455078125,1.1507165431976318,2.8914520740509033,0.6246855854988098
1781554598835929600,34.5779296875,0.9579886794090271,1.6719368696212769,0.517707884311676
1781554598884444400,34.6264443359375,-0.00923932995647192,1.5907682180404663,-0.28153231739997864
1781554598932959500,34.67495947265625,-0.5348120927810669,0.6327031850814819,-0.8302416205406189
1781554598981474300,34.723474365234374,0.5792525410652161,-0.19990549981594086,-0.32795801758766174
1781554599029989400,34.7719892578125,-0.11384992301464081,-0.5181660652160645,0.1781434416770935
1781554599078504200,34.820504150390626,-0.04344775900244713,0.17806708812713623,-0.4298960864543915
1781554599127019300,34.869019287109374,0.6777544617652893,1.6280310153961182,-0.4889208972454071
1781554599175534000,34.9175341796875,-0.4058432877063751,1.6371939182281494,-0.30978479981422424
1781554599224049200,34.966049072265626,-1.300607442855835,-0.21021384000778198,-0.8698714375495911
1781554599272564000,35.01456396484375,-0.9169080257415771,-0.9368374943733215,-0.9476803541183472
1781554599321079000,35.0630791015625,-0.5485565662384033,0.46952593326568604,-0.6533198952674866
1781554599369593900,35.11159375,-0.5321395993232727,-0.2574795186519623,-1.1987457275390625
1781554599418109000,35.16010888671875,-0.6902772188186646,-1.1695005893707275,-0.970969557762146
1781554599466623700,35.20862377929687,-0.7109702229499817,-1.0143409967422485,-0.3635408878326416
1781554599515138800,35.25713891601563,-0.3393353819847107,-0.1453094631433487,0.11468986421823502
1781554599563654000,35.30565380859375,-0.056199558079242706,-0.5725330114364624,1.0244202613830566
1781554599612168700,35.35416870117187,-0.4607447683811188,-0.8892664313316345,1.4433207511901855
1781554599660683800,35.40268383789063,-0.47028952836990356,-0.8226057887077332,1.7605886459350586
1781554599709198600,35.451198486328124,0.49663305282592773,-0.6508764028549194,1.2494475841522217
1781554599757713700,35.49971362304687,0.7101303339004517,2.8916049003601074,0.45990481972694397
1781554599806228500,35.548228515625,1.0506874322891235,2.3519821166992188,0.8759800791740417
1781554599854743600,35.59674365234375,0.7443387508392334,1.521206021308899,0.35758498311042786
1781554599903258400,35.64525830078125,-0.19822561740875244,1.0246492624282837,-0.528092622756958
1781554599951773400,35.6937734375,-0.48991355299949646,0.38301220536231995,-0.4860192835330963
1781554600000288500,35.74228857421875,0.5447386503219604,-0.07422006875276566,-0.006948587018996477
1781554600048803300,35.79080322265625,-0.18417572975158691,-0.28504478931427,0.26794055104255676
1781554600097318400,35.839318359375,0.08239039033651352,0.21380266547203064,-0.408592164516449
1781554600145833200,35.887833251953126,0.5962040424346924,0.8697187304496765,-0.48617202043533325
1781554600194348300,35.936348388671874,-0.6950877904891968,0.12553271651268005,-1.0081559419631958
1781554600242863000,35.98486303710938,-1.1600322723388672,-0.32620179653167725,-0.6783653497695923
1781554600291378200,36.033378173828126,-0.7649554014205933,-0.6080395579338074,-0.7845794558525085
1781554600339893000,36.08189306640625,-0.40546149015426636,-0.4171442985534668,-0.7244856357574463
1781554600388408000,36.13040795898438,-0.5525271892547607,-1.2608249187469482,-1.0105230808258057
1781554600436923000,36.1789228515625,-0.6097193956375122,-1.230892539024353,-0.6856957077980042
1781554600485438000,36.22743798828125,-0.3720930218696594,-0.518318772315979,-0.16065743565559387
1781554600533953000,36.275953125,-0.1418733447790146,0.1383608728647232,0.4321868419647217
1781554600582468000,36.32446801757813,-0.129426971077919,-0.7569378018379211,0.9827287197113037
1781554600630983000,36.37298291015625,-0.547029435634613,-1.0974185466766357,1.6712496280670166
1781554600679498000,36.421498046875,-0.10934479534626007,-0.8674280047416687,2.029674530029297
1781554600728012800,36.4700126953125,0.8931606411933899,-0.04657844081521034,0.7318923473358154
1781554600776528000,36.51852783203125,0.8658244609832764,3.2406375408172607,0.30398157238960266
1781554600825042700,36.56704272460937,1.1305580139160156,1.6630029678344727,0.9496656656265259
1781554600873557800,36.61555786132813,0.45883581042289734,1.6392556428909302,-0.05581776797771454
1781554600922072600,36.664072509765624,-0.6075050234794617,0.6181951761245728,-0.5761982202529907
1781554600970587600,36.71258764648437,-0.3384190797805786,0.19967642426490784,-0.27313292026519775
1781554601019102700,36.76110278320313,0.4232529401779175,-0.06085740402340889,-0.03260490670800209
1781554601067617800,36.80961767578125,-0.1698204129934311,-0.05994110554456711,-0.1496618688106537
1781554601116132600,36.85813256835937,0.47494736313819885,0.37003132700920105,-0.6914989352226257
1781554601164647700,36.90664770507812,0.4535670876502991,1.0564906597137451,-0.47952884435653687
1781554601213162500,36.95516259765625,-0.8967494964599609,-0.019853105768561363,-0.9648609161376953
1781554601261677600,37.003677490234374,-1.263039231300354,-0.7421243786811829,-0.7749583125114441
1781554601310192400,37.0521923828125,-0.7312051653862,-0.45249807834625244,-0.5984947681427002
1781554601358707500,37.10070751953125,-0.5333613157272339,-0.2770271897315979,-0.9619593024253845
1781554601407222500,37.149222412109374,-0.5163334608078003,-1.2046253681182861,-1.0464876890182495
1781554601455737600,37.19773754882812,-0.5157989263534546,-1.1230748891830444,-0.568562388420105
1781554601504252400,37.24625244140625,-0.3133736252784729,-0.5192350745201111,-0.023365577682852745
1781554601552767500,37.294767578125,-0.14569124579429626,-0.1291215419769287,0.5187005400657654
1781554601601282300,37.3432822265625,-0.4127918779850006,-1.0273218154907227,1.175074815750122
1781554601649797400,37.39179736328125,-0.5758927464485168,-0.9174425601959229,1.8711551427841187
1781554601698312400,37.4403125,0.12202023714780807,-1.0442733764648438,2.023336887359619
1781554601746827300,37.4888271484375,0.9610430002212524,0.2367101013660431,0.6590467095375061
1781554601795342300,37.53734228515625,0.8860593438148499,2.90519642829895,0.4276053309440613
1781554601843857200,37.585857177734376,1.0270928144454956,1.3539817333221436,0.6199513673782349
1781554601892372200,37.634372314453124,0.2406807243824005,1.3434443473815918,-0.41210466623306274
1781554601940887300,37.68288720703125,-0.6006327867507935,0.7856484651565552,-0.53931725025177
1781554601989402400,37.73140234375,0.1591302752494812,0.16653701663017273,-0.19784383475780487
1781554602037917400,37.77991748046875,0.39309149980545044,-0.045967575162649155,0.04818195849657059
1781554602086432300,37.82843237304687,0.11552979797124863,0.12347104400396347,-0.1450040340423584
1781554602134947000,37.876947021484376,0.8273400068283081,0.6869937777519226,-0.4679224193096161
1781554602183462100,37.925462158203125,-0.15775582194328308,0.8683443069458008,-0.6503419280052185
1781554602231977200,37.97397729492187,-1.190422773361206,-0.4156934916973114,-0.8533017635345459
1781554602280492000,38.02249194335938,-1.0094540119171143,-0.9269872903823853,-0.686535656452179
1781554602329007000,38.071007080078125,-0.6338485479354858,-0.4153880476951599,-0.4606684148311615
1781554602377522200,38.119522216796874,-0.5467239618301392,-0.7696132659912109,-0.8616247773170471
1781554602426037000,38.168037109375,-0.43890634179115295,-1.0974949598312378,-0.9685261249542236
1781554602474552000,38.216552001953126,-0.4718930423259735,-1.1438442468643188,-0.6270527243614197
1781554602523067100,38.265067138671874,-0.2419024556875229,-0.7280744314193726,-0.164322629570961
1781554602571582000,38.31358203125,-0.2110537886619568,0.16737695038318634,0.34490951895713806
1781554602620097000,38.362096923828126,-0.20311254262924194,-0.554665207862854,1.0344995260238647
1781554602668612000,38.410612060546875,-0.5196168422698975,-1.0125083923339844,1.8010584115982056
1781554602717127000,38.459126953125,-0.229150652885437,-0.8940005898475647,1.7845650911331177
1781554602765642000,38.50764208984375,0.6935606002807617,0.4797579348087311,0.6324741244316101
1781554602814157000,38.556156982421875,1.0986403226852417,2.8687736988067627,0.25870123505592346
1781554602862672000,38.604671875,1.155450701713562,1.3188570737838745,0.5436696410179138
1781554602911187000,38.65318701171875,0.49663305282592773,1.334434151649475,-0.11140646785497665
1781554602959702000,38.701701904296876,-0.45020735263824463,0.6804270148277283,-0.3407098352909088
1781554603008216800,38.750216796875,-0.38469210267066956,0.49632763862609863,-0.10995566099882126
1781554603056732000,38.79873193359375,0.5863538384437561,-0.15378521382808685,-0.33971717953681946
1781554603105247000,38.8472470703125,0.0409279391169548,-0.305585116147995,0.11514800786972046
1781554603153761800,38.89576171875,0.5215258002281189,0.2683223485946655,-0.43340855836868286
1781554603202276900,38.94427685546875,0.5481747984886169,1.3199260234832764,-0.2822958827018738
1781554603250792000,38.9927919921875,-0.8420007228851318,0.047723811119794846,-1.0707695484161377
1781554603299306800,39.041306640625,-1.0178533792495728,-0.4311941862106323,-0.6828704476356506
1781554603347821800,39.08982177734375,-0.61117023229599,-0.4633409380912781,-0.7281508445739746
1781554603396337000,39.1383369140625,-0.48594292998313904,-0.18417572975158691,-0.9060651659965515
1781554603444852000,39.18685205078125,-0.5858193039894104,-1.0819942951202393,-0.9592867493629456
1781554603493366800,39.23536669921875,-0.5525271892547607,-1.2038617134094238,-0.6536253094673157
1781554603541881900,39.2838818359375,-0.2755763828754425,-0.643927812576294,-0.2513708472251892
1781554603590397000,39.33239697265625,-0.17715078592300415,0.25587597489356995,0.26656612753868103
1781554603638911700,39.380911865234374,-0.21746785938739777,-0.3072649836540222,0.8029817342758179
1781554603687426800,39.4294267578125,-0.5655844211578369,-0.804814338684082,1.5763366222381592
1781554603735942000,39.47794189453125,-0.42791077494621277,-0.9621120095252991,1.9053635597229004
1781554603784456700,39.526456787109375,0.7115047574043274,-0.0022143847309052944,0.942258894443512
1781554603832971800,39.5749716796875,0.8830050230026245,2.9512405395507812,0.3281107544898987
1781554603881486800,39.62348681640625,1.0527490377426147,1.4868448972702026,0.8537598848342896
1781554603930001700,39.672001708984375,0.6185769438743591,1.33695387840271,0.07941242307424545
1781554603978516700,39.72051684570312,-0.3053560256958008,0.5446622967720032,-0.43340855836868286
1781554604027031800,39.76903173828125,-0.4673115611076355,0.5322923064231873,-0.33452481031417847
1781554604075546600,39.817546630859376,0.5067123174667358,0.28527384996414185,-0.2378554791212082
1781554604124061700,39.866061767578124,0.21258094906806946,-0.2713003158569336,0.08689551800489426
1781554604172576800,39.91457666015625,0.22869250178337097,0.03413207083940506,-0.5394699573516846
1781554604221091800,39.963091796875,0.7114284038543701,0.9392045736312866,-0.37583455443382263
1781554604269606700,40.011606689453124,-0.7076104879379272,0.3992764949798584,-0.927521824836731
1781554604318121700,40.06012182617187,-1.2754093408584595,-0.5464185476303101,-0.7502183318138123
1781554604366636800,40.10863671875,-0.8021417856216431,-0.8213077187538147,-0.6829468011856079
1781554604415151900,40.15715185546875,-0.5258781909942627,-0.13164135813713074,-0.6681333780288696
1781554604463667000,40.2056669921875,-0.4848739206790924,-0.9181297421455383,-0.8804852366447449
1781554604512181800,40.254181640625,-0.24816381931304932,-1.2568542957305908,-0.7727439403533936
1781554604560696800,40.30269677734375,-0.4108065664768219,-0.5787943601608276,-0.33231043815612793
1781554604609212000,40.3512119140625,-0.21746785938739777,-0.07147117704153061,0.064598947763443
1781554604657732000,40.39973217773438,-0.14133884012699127,-0.02626718580722809,0.5409207344055176
1781554604706242000,40.44824194335938,-0.45562875270843506,-0.8584177494049072,1.2825106382369995
1781554604754756900,40.4967568359375,-0.39797839522361755,-0.9259182810783386,1.7416518926620483
1781554604803272000,40.54527197265625,0.4036289155483246,-0.4658607542514801,1.4840959310531616
1781554604851787000,40.593787109375,0.768467903137207,1.549382209777832,0.26939135789871216
1781554604900302000,40.64230200195313,0.9679152369499207,2.4718642234802246,0.4633409380912781
1781554604948817000,40.69081689453125,0.9140827655792236,0.9170607328414917,0.3500255048274994
1781554604997332000,40.73933203125,0.20830489695072174,0.8912517428398132,-0.33322674036026
1781554605045847000,40.78784692382813,-0.5248855352401733,0.5897135734558105,-0.41408994793891907
1781554605094362000,40.836362060546875,0.1450040340423584,0.13416117429733276,-0.14508038759231567
1781554605142877200,40.884877197265624,0.11056652665138245,-0.2023489624261856,0.41958773136138916
1781554605191392000,40.93339208984375,0.23197589814662933,0.0784197673201561,-0.20448698103427887
1781554605239907000,40.981906982421876,0.9798271059989929,0.7453314065933228,-0.3436878025531769
1781554605288422100,41.030422119140624,-0.33803731203079224,0.6206386089324951,-0.7936660647392273
1781554605336937200,41.07893725585937,-1.173776626586914,-0.4021017551422119,-0.7641918659210205
1781554605385452300,41.12745239257813,-0.8038216829299927,-1.0611485242843628,-0.844444215297699
1781554605433967400,41.17596728515625,-0.47845983505249023,-0.1029307171702385,-0.6937133073806763
1781554605482482200,41.22448217773437,-0.5946768522262573,-0.9758564829826355,-1.0208313465118408
1781554605530997200,41.27299731445312,-0.5659661889076233,-1.444618821144104,-0.8471167087554932
1781554605579512300,41.32151220703125,-0.5100721120834351,-0.6950113773345947,-0.30596688389778137
1781554605628027400,41.37002734375,-0.21655155718326569,-0.05940660089254379,0.05299251899123192
1781554605676542500,41.41854248046875,-0.08452841639518738,0.17883066833019257,0.5711585879325867
1781554605725057500,41.4670576171875,-0.4453967809677124,-1.1048252582550049,1.195691466331482
1781554605773572600,41.515572509765626,-0.48678287863731384,-1.0175479650497437,1.8589378595352173
1781554605822087700,41.564087646484374,0.42882707715034485,-0.5871937870979309,1.573282241821289
1781554605870602800,41.61260278320312,1.021289587020874,1.6284128427505493,0.14798198640346527
1781554605919117600,41.66111767578125,1.0045671463012695,3.0458481311798096,0.5836049318313599
1781554605967633000,41.7096328125,0.8132901191711426,1.48776113986969,0.4581485986709595
1781554606016147700,41.75814770507812,0.07635809481143951,0.9169843792915344,-0.3972148299217224
1781554606064662800,41.80666284179687,-0.5891790986061096,0.5045742988586426,-0.282524973154068
1781554606113177900,41.855177734375,0.13194678723812103,0.10881029069423676,-0.168904110789299
1781554606161693000,41.90369287109375,0.3597230017185211,-0.4794524908065796,0.11698060482740402
1781554606210208000,41.9522080078125,0.020998476073145866,-0.0256563201546669,-0.17653992772102356
1781554606258723000,42.00072314453125,0.8149699568748474,0.4841103255748749,-0.6401863098144531
1781554606307238100,42.049238037109376,-0.10384701192378998,0.8075632452964783,-0.8248201608657837
1781554606355753200,42.097753173828124,-1.0777181386947632,-0.08498656004667282,-0.7807615399360657
1781554606404268300,42.14626831054687,-1.0167080163955688,-0.4667007029056549,-0.7600684762001038
1781554606452783400,42.19478344726563,-0.6157516837120056,-0.037720900028944016,-0.6743947267532349
1781554606501298400,42.24329833984375,-0.6753110289573669,-0.716697096824646,-0.9045380353927612
1781554606549813500,42.2918134765625,-0.5758927464485168,-1.3762019872665405,-0.833219587802887
1781554606598328600,42.34032861328125,-0.4301251769065857,-1.0649664402008057,-0.4269944727420807
1781554606646843600,42.38884375,-0.22479823231697083,-0.42042768001556396,0.012522728182375431
1781554606695358700,42.437358642578126,-0.07994692772626877,0.013439024798572063,0.46624255180358887
1781554606743873800,42.485873779296874,-0.3174206018447876,-0.8142827749252319,1.1389573812484741
1781554606792388900,42.53438891601562,-0.49823659658432007,-0.8907935619354248,1.8469496965408325
1781554606840904000,42.58290405273438,0.1029307171702385,-0.6821832656860352,1.932241678237915
1781554606889419000,42.6314189453125,0.9692896604537964,0.9138537049293518,0.41218101978302
1781554606937934000,42.67993408203125,1.1294126510620117,3.388085126876831,0.43004879355430603
1781554606986449200,42.72844921875,0.9727258086204529,1.1932480335235596,0.6207913160324097
1781554607034964200,42.77696411132813,0.21166464686393738,0.9889137148857117,-0.38820457458496094
1781554607083479300,42.825479248046875,-0.5577958822250366,0.5349648594856262,-0.4369973838329315
1781554607131994400,42.87399438476562,-0.0870482325553894,0.24701844155788422,-0.18669554591178894
1781554607180509400,42.92250952148437,0.5555051565170288,0.14698933064937592,-0.10018182545900345
1781554607229024500,42.9710244140625,0.10155627131462097,-0.36651885509490967,0.08636100590229034
1781554607277539600,43.01953955078125,0.6764563918113708,0.10911571979522705,-0.6365974545478821
1781554607326054700,43.0680546875,0.537255585193634,0.9930370450019836,-0.4062250852584839
1781554607374569700,43.11656982421875,-0.7736602425575256,0.2687041461467743,-0.8998801708221436
1781554607423084800,43.165084716796876,-1.3660463094711304,-0.48823368549346924,-0.7060069441795349
1781554607471599900,43.213599853515625,-0.6625592112541199,-0.7942769527435303,-0.5276344418525696
1781554607520115000,43.26211499023437,-0.4868592321872711,-0.3854556679725647,-0.7974839806556702
1781554607568630000,43.31063012695312,-0.39332056045532227,-1.205465316772461,-0.9607375860214233
1781554607617145000,43.35914501953125,-0.45654505491256714,-1.4143810272216797,-0.5326740741729736
1781554607665660200,43.40766015625,-0.39339691400527954,-0.957072377204895,-0.15118902921676636
1781554607714175200,43.45617529296875,-0.3840048611164093,0.09246965497732162,0.19043709337711334
1781554607811205400,43.553205322265626,-0.5524508357048035,-0.8179479241371155,1.5196788311004639
1781554607859720700,43.601720703125,-0.5696313977241516,-0.7739656567573547,1.9346851110458374
1781554607908235800,43.65023583984375,0.5784889459609985,-0.1660788655281067,1.423925757408142
1781554607956750800,43.69875073242188,0.9173662066459656,2.1216859817504883,0.26022839546203613
1781554608005266000,43.74726586914063,0.9769254922866821,2.087324857711792,0.5254964232444763
1781554608053781000,43.795781005859375,0.6837103962898254,0.7334195375442505,0.1496618688106537
1781554608102296000,43.84429614257812,-0.10881029069423676,0.41355544328689575,-0.4007273018360138
1781554608150811100,43.89281103515625,-0.6407971382141113,0.5216785073280334,-0.23777911067008972
1781554608199326200,43.941326171875,0.3400989770889282,-0.021685699000954628,-0.29161158204078674
1781554608247841500,43.989841552734376,0.31551164388656616,-0.29856017231941223,0.09712749719619751
1781554608296356600,44.038356689453124,0.09292780607938766,-0.31604617834091187,-0.2551124095916748
1781554608344871700,44.08687158203125,0.8888082504272461,0.14859285950660706,-0.4845684766769409
1781554608393386800,44.13538671875,-0.08109229803085327,0.5164861679077148,-0.7189878225326538
1781554608441901800,44.18390185546875,-0.860708475112915,0.006719512399286032,-0.6432406306266785
1781554608490417000,44.2324169921875,-1.0390809774398804,-0.7021890878677368,-0.7137954831123352
1781554608538932000,44.28093188476562,-0.6885973215103149,-0.5890263915061951,-0.7222712635993958
1781554608587447000,44.32944702148438,-0.40805765986442566,-0.9666171669960022,-0.8949168920516968
1781554608635962400,44.37796240234375,-0.44501498341560364,-1.2663227319717407,-0.8987348079681396
1781554608684477400,44.4264775390625,-0.58039790391922,-1.0552688837051392,-0.5338957905769348
1781554608732992500,44.47499243164062,-0.19104796648025513,-0.41386088728904724,-0.21517711877822876
1781554608781507600,44.52350756835938,-0.20708316564559937,0.38209593296051025,0.4070650041103363
1781554608830023000,44.57202294921875,-0.38728827238082886,-0.5607738494873047,0.8851430416107178
1781554608878538000,44.6205380859375,-0.6059014797210693,-1.1762964725494385,1.6796491146087646
1781554608927053000,44.66905297851562,-0.35277441143989563,-0.8153517842292786,1.7909791469573975
1781554608975568100,44.71756811523438,0.8946114778518677,0.28779366612434387,0.5494728684425354
1781554609024083200,44.76608325195313,1.065959095954895,3.0190465450286865,0.19792018830776215
1781554609072598300,44.814598388671875,1.0555742979049683,1.2389864921569824,0.7299070358276367
1781554609121113300,44.86311328125,0.4456258714199066,0.980132520198822,-0.053985174745321274
1781554609169628400,44.91162841796875,-0.3926333487033844,0.22754712402820587,-0.5115992426872253
1781554609218143700,44.96014379882813,-0.2530507445335388,0.189444437623024,-0.29451319575309753
1781554609266658800,45.008658935546876,0.5589412450790405,0.052916161715984344,0.005192350596189499
1781554609315174000,45.057173828125,0.11209368705749512,-0.5438223481178284,0.1862373948097229
1781554609363689000,45.10568896484375,0.47494736313819885,-0.0910952091217041,-0.4693732261657715
1781554609412204000,45.1542041015625,0.6792816519737244,0.8861356973648071,-0.3069595396518707
1781554609460719400,45.20271923828125,-0.7004328370094299,0.19211697578430176,-0.9447787404060364
1781554609509234400,45.251234375,-1.234939455986023,-0.22327107191085815,-0.5597048401832581
1781554609557749500,45.29974951171875,-0.9211840629577637,-0.7819832563400269,-0.7729730010032654
1781554609606264600,45.3482646484375,-0.7568614482879639,-0.9193515181541443,-0.8204677700996399
1781554609654779600,45.396779541015626,-0.5351175665855408,-1.3981167078018188,-1.0004438161849976
1781554609703295000,45.445294921875,-0.47372564673423767,-1.2815942764282227,-0.7589231133460999
1781554609751810000,45.49381005859375,-0.48594292998313904,-0.5423715710639954,-0.21181736886501312
1781554609800325000,45.5423251953125,-0.17913609743118286,-0.02649625949561596,0.29359689354896545
1781554609848840200,45.590840087890626,-0.18555018305778503,-0.7806088328361511,0.7583122849464417
1781554609897355300,45.639355224609375,-0.5452731847763062,-1.2599849700927734,1.5624394416809082
1781554609945870600,45.68787060546875,-0.24006985127925873,-1.1070396900177002,2.0058507919311523
1781554609994385700,45.7363857421875,0.9185115694999695,-0.10567960888147354,1.204014539718628
1781554610042900700,45.78490063476563,0.9455423355102539,3.187797784805298,0.19181154668331146
1781554610091415800,45.833415771484376,1.0948224067687988,1.855349063873291,0.986928403377533
1781554610139931100,45.88193115234375,0.5887209177017212,1.454469084739685,-0.10514509677886963
1781554610188446200,45.9304462890625,-0.33689191937446594,0.7947350740432739,-0.66645348072052
1781554610236961300,45.97896118164063,-0.252210795879364,0.46028661727905273,-0.4353175163269043
1781554610285476400,46.027476318359376,0.4615083336830139,0.18272492289543152,-0.023441936820745468
1781554610333991700,46.07599169921875,-0.143553227186203,-0.3090212345123291,0.25389066338539124
1781554610382506800,46.1245068359375,0.46364638209342957,0.17058399319648743,-0.4534907341003418
1781554610431021800,46.17302172851562,0.7108175158500671,1.0216712951660156,-0.36682429909706116
1781554610479537000,46.22153686523438,-0.7873283624649048,0.22563818097114563,-0.9688315391540527
1781554610528052200,46.27005224609375,-1.2106575965881348,-0.36712974309921265,-0.5433642268180847
1781554610576567300,46.3185673828125,-0.728532612323761,-1.1392627954483032,-0.6249146461486816
1781554610625082400,46.36708227539062,-0.5708531141281128,-0.7642682194709778,-0.84177166223526
1781554610673597700,46.41559765625,-0.7150171995162964,-1.486692190170288,-1.1585050821304321
1781554610722112800,46.46411279296875,-0.6204095482826233,-1.4198788404464722,-0.880256175994873
1781554610770627800,46.5126279296875,-0.4935023784637451,-0.6507236957550049,-0.33979353308677673
1781554610819143000,46.56114282226562,-0.23014330863952637,0.129197895526886,0.3488801419734955
1781554610867658000,46.60965795898438,-0.09651663154363632,-0.45799586176872253,1.1991275548934937
1781554610916173300,46.65817333984375,-0.41706791520118713,-1.1994329690933228,1.6184862852096558
1781554610964688400,46.7066884765625,-0.37110036611557007,-1.4758492708206177,2.0119595527648926
1781554611013203700,46.75520361328125,0.7467058300971985,0.06895136088132858,1.1523964405059814
1781554611061718800,46.80371875,1.083903193473816,3.296837329864502,0.11461350321769714
1781554611110233900,46.85223388671875,1.2067633867263794,2.2510366439819336,0.8106175661087036
1781554611158749000,46.9007490234375,0.5078576803207397,1.2495238780975342,-0.031001387163996696
1781554611207264300,46.94926416015625,-0.3555232882499695,0.7973312735557556,-0.6441569328308105
1781554611255779300,46.997779296875,-0.4516581594944,0.3124573230743408,-0.5420661568641663
1781554611304294400,47.04629443359375,0.6094139814376831,0.13041962683200836,-0.2331976294517517
1781554611352809500,47.0948095703125,0.039706211537122726,-0.015577051788568497,0.28550294041633606
1781554611401324500,47.143324462890625,0.09407317638397217,0.3154352903366089,-0.4156171381473541
1781554611449839900,47.19183984375,0.8432988524436951,0.8693369626998901,-0.4463130831718445
1781554611498355000,47.24035498046875,-0.5765036344528198,0.49418962001800537,-0.9531017541885376
1781554611546870300,47.28887036132812,-1.3167190551757812,-0.21983496844768524,-0.5910117030143738
1781554611595385300,47.33738525390625,-0.988990068435669,-1.28556489944458,-0.7186060547828674
1781554611643900400,47.385900390625,-0.6178897023200989,-0.6597339510917664,-0.6344594359397888
1781554611692415500,47.43441552734375,-0.6174315810203552,-1.37078058719635,-1.0225876569747925
1781554611740930800,47.48293090820312,-0.6574432253837585,-1.518609881401062,-0.8255837559700012
1781554611789446000,47.53144580078125,-0.6569850444793701,-0.7703768610954285,-0.3107774555683136
1781554611837961200,47.57996118164063,-0.19120067358016968,-0.017944153398275375,0.08949168771505356
1781554611886476300,47.628476318359375,-0.16959133744239807,0.04917461425065994,0.9015600681304932
1781554611934991400,47.676991455078124,-0.5167152285575867,-1.0060179233551025,1.485164999961853
1781554611983506400,47.72550634765625,-0.5465712547302246,-1.0270164012908936,2.118479013442993
1781554612032021800,47.77402172851563,0.4099666178226471,-0.8354339599609375,1.4489712715148926
1781554612080536800,47.822536865234376,1.0664935111999512,1.6841541528701782,0.16875138878822327
1781554612129052000,47.871052001953124,1.143997073173523,2.556469202041626,0.6482039093971252
1781554612177567200,47.91956713867187,0.7692314982414246,1.26731538772583,0.35934120416641235
1781554612226082300,47.96808227539063,-0.1951712965965271,0.7159335017204285,-0.6258309483528137
1781554612274597400,48.01659741210938,-0.5064069032669067,0.31009024381637573,-0.4548651874065399
1781554612323112700,48.06511279296875,0.5838339924812317,0.12209659814834595,0.008552107028663158
1781554612371627800,48.113627685546874,0.29940009117126465,-0.030161447823047638,0.12759438157081604
1781554612420142800,48.16214282226562,0.28496840596199036,0.3243691921234131,-0.39339691400527954
1781554612468658200,48.210658203125,0.9120211005210876,1.043357014656067,-0.27458372712135315
1781554612517173200,48.25917333984375,-0.538706362247467,0.35613417625427246,-1.0515273809432983
1781554612565688300,48.307688232421874,-1.4078905582427979,-0.30772313475608826,-0.8216131329536438
1781554612614203600,48.35620361328125,-1.0077741146087646,-0.8941532969474792,-0.7809142470359802
1781554612662718700,48.40471875,-0.7426588535308838,-0.547563910484314,-0.6549233794212341
1781554612711234000,48.45323413085937,-0.5632936954498291,-0.9013310074806213,-0.9285908341407776
1781554612759749000,48.5017490234375,-0.44096800684928894,-1.5379284620285034,-0.9275981783866882
1781554612808264200,48.55026416015625,-0.5439751148223877,-0.9828814268112183,-0.2383899837732315
1781554612856779500,48.598779541015624,-0.2564868628978729,-0.2456440031528473,0.08651372790336609
1781554612905294600,48.64729467773437,-0.15027274191379547,-0.15722131729125977,0.6114756464958191
1781554612953809700,48.6958095703125,-0.526870846748352,-1.4132356643676758,1.451491117477417
1781554613002325000,48.744324951171876,-0.5128209590911865,-0.9540180563926697,2.0169992446899414
1781554613050840000,48.792840087890625,0.6387354731559753,-0.4468475878238678,1.5663336515426636
1781554613099355400,48.84135546875,1.0461822748184204,2.0598361492156982,-0.08758273720741272
1781554613147870500,48.88987036132813,1.108185052871704,2.8095197677612305,0.5826122760772705
1781554613196385500,48.93838549804688,0.7692314982414246,1.5405246019363403,0.388051837682724
1781554613244900600,48.986900634765625,-0.12179116904735565,0.858646810054779,-0.3946950137615204
1781554613293416000,49.035416015625,-0.5125155448913574,0.3358992636203766,-0.3894262909889221
1781554613341931000,49.08393090820312,0.4728093445301056,-0.0017562361899763346,-0.11552979797124863
1781554613390446300,49.1324462890625,0.09804379940032959,-0.04978547990322113,0.19326233863830566
1781554613438961400,49.18096142578125,-0.03283398225903511,-0.12492185086011887,-0.38560840487480164
1781554613487476500,49.2294765625,1.0732131004333496,0.6836340427398682,-0.29817837476730347
1781554613535991800,49.27799169921875,-0.1905898153781891,0.8176425099372864,-0.7935133576393127
1781554613584507000,49.3265068359375,-1.2467750310897827,-0.07330377399921417,-0.7509055137634277
1781554613633022000,49.37502197265625,-1.0728312730789185,-0.8849903345108032,-0.7277690172195435
1781554613681537300,49.42353735351563,-0.6056724190711975,-0.6287325620651245,-0.6331613659858704
1781554613730052400,49.47205224609375,-0.6440805792808533,-0.9613484740257263,-1.109101414680481
1781554613778567700,49.520567626953124,-0.6141481995582581,-1.563584804534912,-1.01304292678833
1781554613827082800,49.56908276367187,-0.7043271064758301,-0.9119447469711304,-0.3514763116836548
1781554613875598000,49.61759814453125,-0.34781113266944885,-0.3667479455471039,0.09040798991918564
1781554613924113200,49.666113037109376,-0.007406735327094793,-0.5059487819671631,0.7828232049942017
1781554613972628500,49.71462841796875,-0.5144245028495789,-0.9645555019378662,1.3690242767333984
1781554614021143600,49.7631435546875,-0.32704174518585205,-0.9484439492225647,1.9288055896759033
1781554614069658600,49.81165869140625,0.3695732057094574,-1.2427279949188232,1.7569234371185303
1781554614118174000,49.86017407226562,1.1184170246124268,2.5586071014404297,0.008781181648373604
1781554614166689000,49.90868896484375,1.1685079336166382,3.360978126525879,0.7147117853164673
1781554614215204400,49.957204345703126,0.581008791923523,1.6695698499679565,0.7573959827423096
1781554614263719400,50.005719482421874,-0.16279546916484833,0.9556979537010193,-0.7271581888198853
1781554614312234500,50.054234375,-0.48525571823120117,0.20196716487407684,-0.8875865340232849
1781554614360749800,50.10274975585938,0.5879573225975037,-0.0409279391169548,-0.06566796451807022
1781554614409265000,50.151264892578126,-0.02779434807598591,0.3707185685634613,0.3833940029144287
1781554614457780000,50.199780029296875,0.11728604137897491,0.017944153398275375,-0.3386481702327728
1781554614506295300,50.24829541015625,1.0012073516845703,0.7617483735084534,-0.11804962158203125
1781554614554810400,50.29681030273437,-0.3087157905101776,0.5822305083274841,-0.862159252166748
1781554614603325700,50.34532568359375,-1.1282672882080078,-0.2747364342212677,-0.6832522749900818
1781554614651841000,50.39384106445313,-0.9082031846046448,-1.1325433254241943,-0.737695574760437
1781554614700356000,50.442356201171876,-0.5466476082801819,-0.7047088742256165,-0.7389172911643982
1781554614748871200,50.49087109375,-0.8064178824424744,-1.349400281906128,-1.1091777086257935
1781554614797386500,50.53938647460937,-0.6837867498397827,-1.6813288927078247,-0.9537126421928406
1781554614845901600,50.58790161132813,-0.6633228063583374,-0.9298125505447388,-0.34720027446746826
1781554614894417000,50.6364169921875,-0.22701261937618256,-0.33460119366645813,0.06666062027215958
1781554614942932000,50.684931884765625,-0.01977674663066864,-0.18089233338832855,0.8469640016555786
1781554614991447000,50.73344702148437,-0.40714138746261597,-0.950581967830658,1.3735294342041016
1781554615039962400,50.78196240234375,-0.3320813775062561,-1.0056360960006714,1.9520183801651
1781554615088477700,50.83047778320312,0.4960985481739044,-0.5462658405303955,1.7343214750289917
1781554615136992800,50.87899267578125,0.9275981783866882,1.9381211996078491,0.16180281341075897
1781554615185507800,50.9275078125,1.2772419452667236,3.136408805847168,0.5907825827598572
1781554615234023200,50.976023193359374,0.9309579133987427,1.4535527229309082,0.4889972507953644
1781554615282538200,51.02453833007812,0.04153880476951599,0.9402735829353333,-0.5104538798332214
1781554615331053600,51.07305346679688,-0.6133846044540405,0.6068941354751587,-0.5745946764945984
1781554615379568600,51.12156860351563,0.2600756883621216,0.23182319104671478,-0.21991132199764252
1781554615428083700,51.170083740234375,0.05558869615197182,0.16584978997707367,0.22739441692829132
1781554615476599000,51.21859912109375,-0.08888082206249237,-0.25732678174972534,-0.3119991719722748
1781554615525114400,51.2671142578125,0.7606030106544495,0.6534726023674011,-0.3407098352909088
1781554615573629400,51.31562939453125,0.03993528336286545,1.1307107210159302,-0.6934842467308044
1781554615622144500,51.36414453125,-1.1139882802963257,-0.09208786487579346,-0.7472403645515442
1781554615670659800,51.412659912109376,-1.311908483505249,-1.2176061868667603,-0.8400917649269104
1781554615719175000,51.4611748046875,-0.4892263412475586,-0.6927206516265869,-0.31230461597442627
1781554615767690200,51.50969018554687,-0.4923570156097412,-0.7095194458961487,-0.9541707634925842
1781554615816205300,51.55820532226563,-0.4338667094707489,-1.1827869415283203,-1.046105980873108
1781554615864720600,51.606720703125,-0.5279398560523987,-1.1939351558685303,-0.47777262330055237
1781554615913235700,51.655235595703125,-0.2646571695804596,-0.7202095985412598,-0.06001746281981468
1781554615961751000,51.7037509765625,-0.26473352313041687,0.2193768173456192,0.42997244000434875
1781554616010266000,51.75226611328125,-0.3720930218696594,-0.8101593852043152,1.077183723449707
1781554616058781400,51.80078149414062,-0.44157886505126953,-1.1133774518966675,1.7719659805297852
1781554616107296500,51.84929663085938,-0.16730059683322906,-0.7476984858512878,1.8403828144073486
1781554616155811800,51.897811767578126,0.9761618971824646,0.5433642268180847,0.6529380679130554
1781554616204327000,51.946326904296875,1.0882556438446045,3.4162611961364746,0.24946190416812897
1781554616252842200,51.99484228515625,1.0409899950027466,1.602603793144226,0.6524035930633545
1781554616301357300,52.043357421875,0.4017963111400604,1.0858120918273926,-0.2680932879447937
1781554616349872400,52.09187231445313,-0.4042397737503052,0.4337903559207916,-0.6038398146629333
1781554616398387700,52.1403876953125,-0.23709189891815186,0.48823368549346924,-0.24312418699264526
1781554616446902800,52.18890283203125,0.5114465355873108,0.20799945294857025,-0.21456626057624817
1781554616495418000,52.237418212890624,0.04780016839504242,-0.3539961278438568,0.18639011681079865
1781554616543933200,52.28593310546875,0.43310311436653137,0.05070177838206291,-0.43493571877479553
1781554616592448500,52.33444848632813,0.5917752385139465,0.7790052890777588,-0.37377288937568665
1781554616640963800,52.3829638671875,-0.6877573728561401,0.3016144931316376,-0.9425643682479858
1781554616689479000,52.43147900390625,-1.0823760032653809,-0.3136027157306671,-0.7183006405830383
1781554616737994000,52.47999389648437,-0.7918334603309631,-0.9024763703346252,-0.6852375864982605
1781554616786509300,52.52850927734375,-0.6609556674957275,-0.3568213880062103,-0.8190932869911194
1781554616835024400,52.5770244140625,-0.7473167181015015,-1.2661700248718262,-0.9536362886428833
1781554616883539700,52.62553979492188,-0.46036297082901,-1.6588796377182007,-0.7757982611656189
1781554616932054800,52.6740546875,-0.4269944727420807,-0.8361974954605103,-0.27580544352531433
1781554616980570000,52.722570068359374,-0.2767217457294464,0.12095122784376144,0.17073670029640198
1781554617029085200,52.77108520507812,-0.24862197041511536,-0.0066431546583771706,0.8220712542533875
1781554617077600500,52.8196005859375,-0.3494146466255188,-0.21609342098236084,1.3781108856201172
1781554617126115600,52.86811547851563,-0.35269805788993835,-0.9047670960426331,1.9620976448059082
1781554617174631000,52.916630859375,0.5047270059585571,-0.11621702462434769,1.4826451539993286
1781554617223146200,52.965146240234375,0.8200859427452087,2.1599414348602295,0.03940077871084213
1781554617271661300,53.013661376953124,1.2860230207443237,2.149022340774536,0.40317076444625854
1781554617320176600,53.0621767578125,0.9140827655792236,1.179198145866394,0.24953825771808624
1781554617368691700,53.11069165039063,-0.0058795735239982605,0.6677515506744385,-0.33910632133483887
1781554617417206800,53.159206787109376,-0.5694023370742798,0.4816668927669525,-0.26679518818855286
1781554617465722000,53.20772216796875,0.5040398240089417,0.12583814561367035,-0.04917461425065994
1781554617514237200,53.2562373046875,0.25534147024154663,0.15645773708820343,0.1000291109085083
1781554617562752500,53.30475244140625,-0.0066431546583771706,-0.010155626572668552,-0.37751442193984985
1781554617611267600,53.353267578125,0.7984002828598022,0.3249036967754364,-0.3582721948623657
1781554617659783000,53.40178295898438,-0.2331976294517517,0.43256860971450806,-0.6630173325538635
1781554617708298000,53.450298095703126,-0.9078214168548584,-0.11133010685443878,-0.7003564834594727
1781554617756813300,53.498813232421874,-0.9496656656265259,-0.5352702736854553,-0.6924152374267578
1781554617805328600,53.54732861328125,-0.6657662391662598,-0.4243219494819641,-0.677067220211029
1781554617853843700,53.59584375,-0.49418962001800537,-0.9967786073684692,-0.9256128668785095
1781554617902359000,53.64435913085938,-0.5231293439865112,-1.5187625885009766,-0.9418007731437683
1781554617950874000,53.6928740234375,-0.694247841835022,-1.2458586692810059,-0.4143190383911133
1781554617999389400,53.741389404296875,-0.25411975383758545,-0.7508291602134705,-0.04260781779885292
1781554618047904500,53.78990454101562,-0.2697731554508209,0.04428769648075104,0.43172869086265564
1781554618144935000,53.88693481445313,-0.5755109786987305,-0.9416480660438538,1.5820634365081787
1781554618193450200,53.9354501953125,-0.19417864084243774,-0.9519563913345337,1.806250810623169
1781554618241965300,53.98396533203125,0.9772309064865112,0.6386591196060181,0.5490147471427917
1781554618290480400,54.03248046875,1.1429280042648315,3.17435884475708,0.22418737411499023
1781554618338995700,54.08099560546875,1.0103703737258911,1.4618757963180542,0.6596575975418091
1781554618387510800,54.1295107421875,0.37056586146354675,1.1281908750534058,-0.15668681263923645
1781554618436026000,54.17802612304688,-0.4125627875328064,0.3341430425643921,-0.488004595041275
1781554618484541400,54.22654150390625,0.03520108386874199,0.08888082206249237,-0.2395353466272354
1781554618533056500,54.27505639648437,0.3592648506164551,0.2257145345211029,0.054443322122097015
1781554618581571800,54.32357177734375,-0.10239620506763458,-0.3476584255695343,0.2112828493118286
1781554618630087000,54.3720869140625,0.6206386089324951,0.3039052188396454,-0.37369653582572937
1781554618678602200,54.42060229492188,0.5424479246139526,0.7919098138809204,-0.476321816444397
1781554618727117300,54.469117431640626,-0.903239905834198,0.06902772188186646,-0.9879974126815796
1781554618775632600,54.517632568359375,-1.1812597513198853,-0.21410810947418213,-0.6528617143630981
1781554618824147700,54.56614770507812,-0.8962913751602173,-0.8025236129760742,-0.7681624889373779
1781554618872663000,54.6146630859375,-0.5857429504394531,-0.6495019793510437,-0.69096440076828
1781554618921178000,54.66317822265625,-0.48220139741897583,-1.170798659324646,-0.880179762840271
1781554618969693400,54.711693359375,-0.4154644012451172,-1.547855019569397,-0.7629700899124146
1781554619018208500,54.76020849609375,-0.3796524703502655,-0.8194751143455505,-0.33192864060401917
1781554619066723800,54.808723876953124,-0.32704174518585205,0.015042545273900032,0.1380554437637329
1781554619115239000,54.85723901367187,-0.20127993822097778,-0.2343430072069168,0.6918043494224548
1781554619163754200,54.90575415039063,-0.48823368549346924,-0.7428115606307983,1.3674207925796509
1781554619212269600,54.95426953125,-0.6044507026672363,-0.5528326034545898,1.8836779594421387
1781554619260784600,55.00278466796875,0.569173276424408,-0.2514472007751465,1.177899956703186
1781554619309300000,55.051300048828125,0.9932661056518555,2.1781911849975586,0.17562362551689148
1781554619357815000,55.09981494140625,1.1892009973526,1.9317835569381714,0.5243510603904724
1781554619406330400,55.14833032226562,0.9033926725387573,0.97600919008255,0.1951712965965271
1781554619454845400,55.19684545898438,0.10231985151767731,0.6343830823898315,-0.30245441198349
1781554619503360800,55.24536083984375,-0.517707884311676,0.7051670551300049,-0.15668681263923645
1781554619551875800,55.293875732421874,0.30978479981422424,0.04405862092971802,-0.13797907531261444
1781554619600391200,55.34239111328125,0.14248420298099518,0.10483966767787933,-0.07819069176912308
1781554619648906200,55.39090625,-0.01893680728971958,-0.3796524703502655,-0.3929387629032135
1781554619697421300,55.43942138671875,1.0055598020553589,0.4514290690422058,-0.4474584460258484
1781554619745936600,55.4879365234375,0.22937972843647003,0.8808670043945312,-0.5661953091621399
1781554619794452000,55.536451904296875,-0.9516509771347046,-0.025961752980947495,-0.8560506105422974
1781554619842967000,55.584967041015624,-0.9508110284805298,-0.5465712547302246,-0.7337249517440796
1781554619891482400,55.633482421875,-0.599334716796875,-0.11713331937789917,-0.7662535309791565
1781554619939997400,55.68199755859375,-0.6374374032020569,-0.010690134018659592,-0.9098830819129944
1781554619988512800,55.7305126953125,-0.6565269231796265,-0.804814338684082,-0.9059888124465942
1781554620037028000,55.779028076171876,-0.45478883385658264,-0.9267582297325134,-0.4874700903892517
1781554620085543200,55.827543212890625,-0.0651334598660469,-0.5653553605079651,-0.129197895526886
1781554620134058500,55.87605859375,-0.041157014667987823,0.24236060678958893,0.5584067702293396
1781554620182573600,55.92457348632813,-0.2556469142436981,-0.019394956529140472,1.305112600326538
1781554620231089000,55.9730888671875,-0.3669770061969757,-0.2987128794193268,1.8180099725723267
1781554620279604000,56.02160400390625,0.324063777923584,-0.18921536207199097,1.4592796564102173
1781554620328119300,56.070119384765626,0.7235693335533142,1.739437460899353,0.31528258323669434
1781554620376634400,56.11863427734375,1.3528363704681396,2.2449281215667725,0.2568686306476593
1781554620425149700,56.16714965820312,1.0512982606887817,1.1737003326416016,-0.024892739951610565
1781554620473664800,56.21566479492188,0.12606722116470337,0.9851721525192261,-0.2271653413772583
1781554620522180000,56.26418017578125,-0.5394699573516846,0.5088503360748291,-0.19982914626598358
1781554620570695200,56.312695068359375,0.10239620506763458,-0.1969275325536728,-0.1943313628435135
1781554620619210500,56.36121044921875,0.27947062253952026,-0.13385574519634247,-0.0772743970155716
1781554620667725800,56.40972583007812,0.049861837178468704,-0.754570722579956,0.14133884012699127
1781554620716241000,56.45824096679687,0.6193405389785767,0.268169641494751,-0.3162752389907837
1781554620764756000,56.506755859375,-0.12736530601978302,0.6969203352928162,-0.55672687292099
1781554620813271300,56.555271240234376,-0.9410371780395508,-0.34666576981544495,-0.8587231636047363
1781554620861786600,56.60378662109375,-1.1908808946609497,-0.7649554014205933,-0.6866120100021362
1781554620910301700,56.6523017578125,-0.8674280047416687,-0.4990001618862152,-0.4702131748199463
1781554620958817000,56.70081713867187,-0.6255255341529846,-0.8005383014678955,-0.7967203855514526
1781554621007332000,56.74933203125,-0.5335903763771057,-1.4013237953186035,-0.9291253089904785
1781554621055847400,56.79784741210938,-0.5675697326660156,-1.4368302822113037,-0.5261073112487793
1781554621104362500,56.846362548828125,-0.32123851776123047,-0.6499601006507874,-0.22663083672523499
1781554621152877800,56.8948779296875,-0.2712239623069763,0.09086613357067108,0.5108356475830078
1781554621201393000,56.94339282226562,-0.2367101013660431,-0.2887863218784332,1.2076033353805542
1781554621249908200,56.991908203125,-0.5133554935455322,-0.3525453209877014,1.8241949081420898
1781554621298423300,57.04042333984375,-0.002825249684974551,-0.45875945687294006,1.909716010093689
1781554621346938600,57.088938720703126,0.9903645515441895,1.072983980178833,0.3181841969490051
1781554621395454000,57.137453857421875,1.2815942764282227,2.888474225997925,0.26389357447624207
1781554621443969000,57.18596899414062,1.153923511505127,1.204319953918457,0.4258491098880768
1781554621492484400,57.234484375,0.45761406421661377,0.924238383769989,-0.2675587832927704
1781554621540999400,57.28299951171875,-0.4615083336830139,0.42943793535232544,-0.28519749641418457
1781554621589514800,57.3315146484375,-0.1911243200302124,0.2280052751302719,-0.10766492038965225
1781554621638029800,57.38002978515625,0.38156139850616455,-0.004657844081521034,-0.20799945294857025
1781554621686545200,57.428545166015624,-0.29901832342147827,-0.4682278633117676,-0.039477135986089706
1781554621735060200,57.47706030273437,0.3462076187133789,-0.07368556410074234,-0.6159043908119202
1781554621783575600,57.52557543945313,0.735633909702301,0.617355227470398,-0.4114174246788025
1781554621832090600,57.574090576171876,-0.7157807946205139,0.16210824251174927,-0.9602794051170349
1781554621880606000,57.62260595703125,-1.3108394145965576,-0.4231765866279602,-0.7162389755249023
1781554621929121000,57.67112109375,-0.6783653497695923,-1.1651482582092285,-0.6214785575866699
1781554621977636400,57.71963623046875,-0.4165334105491638,-0.47609272599220276,-0.7568614482879639
1781554622026151400,57.7681513671875,-0.5232820510864258,-1.4721840620040894,-1.0140355825424194
1781554622074666800,57.81666674804688,-0.6200277805328369,-1.4403427839279175,-0.5787943601608276
1781554622123182000,57.86518212890625,-0.3975202441215515,-0.41874781250953674,-0.2112828493118286
1781554622171697200,57.913697265625,-0.11178825795650482,0.2427423894405365,0.4353175163269043
1781554622268727800,58.01072778320312,-0.4344012141227722,-0.5048797130584717,1.51616632938385
1781554622317243000,58.05924291992188,-0.13912445306777954,-0.41187557578086853,1.9447643756866455
1781554622365758200,58.10775830078125,0.789466381072998,0.3436878025531769,0.9389755129814148
1781554622414273300,58.156273193359375,0.8862884640693665,3.0359978675842285,-0.02718348242342472
1781554622462788600,58.20478857421875,1.173471212387085,1.8451933860778809,0.5676460862159729
1781554622511303700,58.2533037109375,0.6429351568222046,1.3530654907226562,0.00022907429956831038
1781554622559819000,58.30181909179687,-0.16638429462909698,0.5739074349403381,-0.42187848687171936
1781554622608334000,58.350333984375,-0.5015199780464172,0.4298960864543915,-0.17776164412498474
1781554622656849400,58.398849365234376,0.38881543278694153,0.002443459117785096,-0.19990549981594086
1781554622705364500,58.447364501953125,0.007941242307424545,-0.048563748598098755,0.27282747626304626
1781554622753879600,58.49587963867187,0.15607595443725586,-0.023212861269712448,-0.318871408700943
1781554622802395000,58.54439477539062,0.7196750640869141,0.43371400237083435,-0.3875173330307007
1781554622850910000,58.59290991210938,-0.4797579348087311,0.4018726646900177,-0.8194751143455505
1781554622899425300,58.64142529296875,-1.02655827999115,-0.1997527778148651,-0.6722567081451416
1781554622947940600,58.689940673828126,-0.9335541129112244,-0.9193515181541443,-0.880179762840271
1781554622996455700,58.73845556640625,-0.5327504277229309,-0.24495677649974823,-0.7022654414176941
1781554623044971000,58.78697094726562,-0.5529853701591492,-1.049312949180603,-1.0900882482528687
1781554623093486300,58.835486328125,-0.5348120927810669,-1.554650902748108,-0.8274927139282227
1781554623142001400,58.88400146484375,-0.541378915309906,-0.886441171169281,-0.2998582422733307
1781554623190516700,58.93251684570313,-0.22724169492721558,-0.28924447298049927,0.002825249684974551
1781554623239031800,58.98103173828125,-0.0386371985077858,-0.20204351842403412,0.6565269231796265
1781554623287547100,59.029547119140624,-0.4053851366043091,-0.1493564397096634,1.2996147871017456
1781554623336062200,59.07806225585937,-0.3566686809062958,-0.18677189946174622,1.8366413116455078
1781554623384577500,59.12657763671875,0.5787943601608276,0.060093823820352554,1.201341986656189
1781554623433092600,59.175092529296876,0.7521272301673889,2.118860960006714,0.16310089826583862
1781554623481608000,59.22360791015625,1.1448369026184082,1.5567889213562012,0.44470956921577454
1781554623530123000,59.272123046875,0.8168789148330688,0.822834849357605,0.20082180202007294
1781554623578638300,59.32063842773437,-0.005803215317428112,0.5464185476303101,-0.20219624042510986
1781554623627153400,59.3691533203125,-0.49144071340560913,0.4287507236003876,-0.1297324001789093
1781554623675668700,59.41766870117188,0.4384481906890869,0.11323905736207962,-0.11117739230394363
1781554623724184800,59.46618481445312,0.15790854394435883,0.11148282140493393,0.17799071967601776
1781554623772699100,59.51469921875,0.29474225640296936,0.015729768201708794,-0.24022257328033447
1781554623821214500,59.56321435546875,0.9033926725387573,0.40347617864608765,-0.4310414493083954
1781554623869729500,59.6117294921875,-0.17676898837089539,0.5464949011802673,-0.7728966474533081
1781554623918244900,59.66024487304688,-1.0528254508972168,-0.037720900028944016,-0.7691551446914673
