time,seconds_elapsed,z,y,x
1781554564386545000,0.128544921875,3.438486099243164,7.362117290496826,1.8161523342132568
1781554564444763000,0.186762939453125,6.488736629486084,8.052446365356445,1.8059829473495483
1781554564502980600,0.244980712890625,6.365506649017334,7.63609504699707,3.067000389099121
1781554564580604400,0.3226044921875,4.861617565155029,5.773880958557129,1.4787644147872925
1781554564658228200,0.400228271484375,8.947959899902344,6.138786315917969,0.7920243144035339
1781554564716446200,0.4584462890625,7.6636128425598145,5.928217887878418,0.6400800347328186
1781554564813475800,0.555475830078125,9.064610481262207,4.982454776763916,-0.026919255033135414
1781554564871693600,0.613693603515625,8.609375953674316,4.764708042144775,-0.4049852192401886
1781554564929911600,0.67191162109375,8.882756233215332,4.560719966888428,-0.17527425289154053
1781554565026941200,0.768941162109375,8.902496337890625,4.289134502410889,-0.19381862878799438
1781554565143377000,0.885376953125,8.882157325744629,4.215555191040039,0.08554340898990631
1781554565221000700,0.963000732421875,9.072386741638184,4.110270977020264,0.09870393574237823
1781554565298624500,1.04062451171875,9.136993408203125,4.048655986785889,0.3128615617752075
1781554565376248300,1.118248291015625,9.19023323059082,4.103092670440674,0.2793620526790619
1781554565453872000,1.1958720703125,8.85763168334961,4.129413604736328,0.0526420995593071
1781554565531496000,1.273495849609375,9.134600639343262,4.109074592590332,0.519242525100708
1781554565609119700,1.35111962890625,8.706883430480957,4.493721008300781,0.7926225066184998
1781554565686743600,1.42874365234375,8.582456588745117,4.4512481689453125,0.8536394834518433
1781554565764367000,1.5063671875,8.549555778503418,4.680959224700928,1.1593226194381714
1781554565822585000,1.564585205078125,7.878368377685547,4.948357105255127,1.622931957244873
1781554565880802800,1.622802734375,8.431110382080078,4.975874900817871,1.5140584707260132
1781554565939020800,1.681020751953125,8.475378036499023,4.850849628448486,1.5212370157241821
1781554566036050400,1.778050537109375,8.759525299072266,4.541577339172363,1.1389836072921753
1781554566094268400,1.836268310546875,8.616554260253906,4.339982032775879,1.4231312274932861
1781554566171892000,1.91389208984375,8.680562019348145,4.404588222503662,1.7204394340515137
1781554566249515800,1.991515869140625,8.940781593322754,4.5786662101745605,2.386242389678955
1781554566327139600,2.0691396484375,7.6013994216918945,5.119443893432617,3.5306098461151123
1781554566424169500,2.16616943359375,4.829314231872559,5.868995666503906,5.851647853851318
1781554566482387200,2.22438720703125,5.139782905578613,5.441278457641602,6.530013084411621
1781554566579417000,2.3214169921875,3.881756544113159,5.905486106872559,6.602993965148926
1781554566637634800,2.379634765625,3.7812578678131104,5.96590518951416,6.419943332672119
1781554566734664400,2.47666455078125,4.627718925476074,5.767899036407471,6.394818305969238
1781554566831694300,2.5736943359375,4.179663181304932,5.643472194671631,6.453442573547363
1781554566889912000,2.631912109375,4.551746845245361,5.438885688781738,6.560521602630615
1781554566986941700,2.728941650390625,5.132604598999023,5.30129861831665,6.314659118652344
1781554567064565500,2.8065654296875,5.870790481567383,5.149354457855225,6.465406894683838
1781554567142189300,2.884189208984375,7.016354084014893,4.448855400085449,5.935994625091553
1781554567239219000,2.981218994140625,6.985845565795898,4.122235298156738,5.3216376304626465
1781554567375060700,3.117060791015625,7.007979393005371,3.924229145050049,3.87876558303833
1781554567433278500,3.175278564453125,7.415955543518066,3.858426570892334,3.861417531967163
1781554567491496400,3.233496337890625,8.346763610839844,3.2757742404937744,3.5479576587677
1781554567588526000,3.330526123046875,6.787241458892822,1.3968101739883423,3.4277184009552
1781554567704961500,3.44696142578125,3.779463291168213,-2.179263114929199,5.563910961151123
1781554567782585300,3.52458544921875,3.242872953414917,-6.7310099601745605,7.646264553070068
1781554567860209200,3.602209228515625,5.281557559967041,-13.082159996032715,6.679564476013184
1781554567937833000,3.6798330078125,8.839086532592773,-18.2769775390625,4.563711166381836
1781554568015456800,3.757456787109375,10.340582847595215,-16.741981506347656,4.399204254150391
1781554568093080300,3.835080322265625,11.087143898010254,-12.008978843688965,5.861817359924316
1781554568170704100,3.9127041015625,7.6013994216918945,-10.28315544128418,3.727419376373291
1781554568248328000,3.990327880859375,4.121636867523193,-10.578668594360352,2.2671995162963867
1781554568325951700,4.06795166015625,-5.518447399139404,-6.282954216003418,7.434499740600586
1781554568384169500,4.12616943359375,2.0338993072509766,-13.914263725280762,-1.0223335027694702
1781554568442387200,4.18438720703125,1.0019944906234741,-9.185447692871094,-3.4713873863220215
1781554568539417000,4.2814169921875,0.23270200192928314,-15.225530624389648,-18.26800537109375
1781554568597634800,4.339634765625,0.7543373107910156,-8.006982803344727,1.179661512374878
1781554568694664400,4.43666455078125,-1.5637096166610718,-8.697312355041504,-7.1856465339660645
1781554568791694000,4.533694091796875,-2.5405795574188232,-6.293721675872803,-6.448657035827637
1781554568888723700,4.6307236328125,4.435096740722656,-14.662618637084961,-0.8279166221618652
1781554568985753300,4.72775341796875,5.138586521148682,-13.986048698425293,-10.192228317260742
1781554569043971300,4.785971435546875,0.8638089895248413,-6.171687602996826,-3.4031920433044434
1781554569141001000,4.8830009765625,4.244867324829102,-7.4949188232421875,-5.101497650146484
1781554569199218700,4.94121875,1.8616160154342651,-7.7838521003723145,-7.067201614379883
1781554569296248300,5.038248291015625,0.5401797294616699,-4.88554573059082,-4.821537494659424
1781554569393278000,5.13527783203125,2.117648124694824,-8.901898384094238,-4.834099769592285
1781554569490307600,5.2323076171875,1.435693621635437,-6.748956203460693,-5.076971530914307
1781554569548525300,5.290525390625,1.552343726158142,-10.433902740478516,-2.9796624183654785
1781554569645555000,5.387554931640625,-0.753140926361084,-9.242876052856445,-9.140582084655762
1781554569742584600,5.48458447265625,3.1579277515411377,-11.404192924499512,-4.257429599761963
1781554569800802300,5.54280224609375,-1.4733805656433105,-12.303296089172363,-0.8297112584114075
1781554569897832000,5.63983203125,-0.7040880918502808,-9.003593444824219,-2.062613010406494
1781554569994861600,5.736861572265625,0.48873403668403625,-10.3621187210083,-0.641276478767395
1781554570091891200,5.83389111328125,-0.41934216022491455,-9.865009307861328,-1.098305583000183
1781554570169515000,5.911514892578125,-0.09032905846834183,-9.940383911132812,-0.5168496966362
1781554570266544400,6.00854443359375,-1.3609179258346558,-9.862018585205078,-0.8560323119163513
1781554570363574000,6.105573974609375,-0.8392825126647949,-6.799205780029297,-1.1186445951461792
1781554570441197800,6.18319775390625,-0.6610172390937805,-13.292728424072266,-0.5868397355079651
1781554570499415600,6.24141552734375,-0.833898663520813,-12.180065155029297,-1.1120643615722656
1781554570596445200,6.338445068359375,-0.46779683232307434,-12.0604248046875,1.4524433612823486
1781554570674068700,6.41606884765625,-0.23988047242164612,-11.410773277282715,0.9110672473907471
1781554570732286500,6.474286376953125,0.2548356056213379,-8.426324844360352,0.3678964674472809
1781554570790504200,6.532504150390625,-0.5162515044212341,-10.696515083312988,-1.2562319040298462
1781554570926345700,6.668345703125,-7.151548862457275,-10.321440696716309,1.841277003288269
1781554571023375400,6.765375244140625,-0.3601198196411133,-9.401400566101074,-0.8793623447418213
1781554571120405000,6.862405029296875,0.29850462079048157,-10.527223587036133,-0.7908278703689575
1781554571198028500,6.940028564453125,-2.1655044555664062,-11.120044708251953,1.048654556274414
1781554571295058200,7.03705810546875,-1.2430713176727295,-9.500103950500488,-0.08374879509210587
1781554571353276000,7.09527587890625,-2.9042885303497314,-9.848857879638672,-0.41874396800994873
1781554571411493600,7.15349365234375,-2.1655044555664062,-9.445667266845703,-1.5720844268798828
1781554571508523000,7.25052294921875,-2.520838737487793,-9.486943244934082,-1.3280165195465088
1781554571605552600,7.347552734375,-2.35872483253479,-9.55753231048584,-0.8757730722427368
1781554571663770400,7.405770263671875,-2.565704107284546,-9.856036186218262,-0.7393822073936462
1781554571760800000,7.502800048828125,-2.2570300102233887,-9.486943244934082,-1.1156535148620605
1781554571877235500,7.6192353515625,-2.263011932373047,-10.103693962097168,-1.2729816436767578
1781554571974265000,7.71626513671875,-2.200200319290161,-9.362516403198242,-0.656829833984375
1781554572071294500,7.81329443359375,-2.4388844966888428,-9.565906524658203,-1.038485050201416
1781554572129512200,7.87151220703125,-2.258824586868286,-9.488140106201172,-0.9559326171875
1781554572226541800,7.968541748046875,-2.503490686416626,-9.701101303100586,-0.9110672473907471
1781554572284759600,8.026759521484376,-2.2887349128723145,-9.518648147583008,-0.9415757060050964
1781554572342977300,8.084977294921876,-2.365903377532959,-9.111868858337402,-0.900897741317749
1781554572440007000,8.1820068359375,-2.472383975982666,-10.405189514160156,-0.7076773047447205
1781554572498224600,8.240224609375,-2.4406790733337402,-8.930013656616211,-0.9840483069419861
1781554572595254300,8.337254150390624,-2.5148565769195557,-9.851848602294922,-1.1665010452270508
1781554572692283600,8.43428369140625,-2.2815563678741455,-9.539586067199707,-0.9002995491027832
1781554572828125200,8.570125244140625,-2.6709883213043213,-9.161520004272461,-0.7597211599349976
1781554572886343000,8.628343017578125,-2.2331018447875977,-10.25623607635498,-0.5742774605751038
1781554572983372300,8.725372314453125,-2.348555326461792,-9.387042999267578,-1.3992030620574951
1781554573041590300,8.78359033203125,-2.4705893993377686,-9.671789169311523,-1.0426725149154663
1781554573099808000,8.84180810546875,-2.575275421142578,-9.588040351867676,-0.9427721500396729
1781554573196837400,8.93883740234375,-2.406581401824951,-9.668798446655273,-1.1682956218719482
1781554573255055000,8.99705517578125,-2.4921247959136963,-9.606584548950195,-0.8536394834518433
1781554573313272800,9.05527294921875,-2.3371894359588623,-9.5802640914917,-1.0492527484893799
1781554573410302500,9.152302490234375,-2.266601324081421,-10.183255195617676,-1.0097711086273193
1781554573526738000,9.268738037109374,-2.335394859313965,-9.174081802368164,-0.9876375198364258
1781554573623767600,9.365767578125,-2.551945447921753,-10.305887222290039,-1.0606186389923096
1781554573759608800,9.50160888671875,-1.9680966138839722,-9.900303840637207,-0.9373882412910461
1781554573817826800,9.559826904296875,-2.355135679244995,-9.710672378540039,-0.9798609018325806
1781554573876044500,9.61804443359375,-2.2301106452941895,-10.138389587402344,-0.4097708761692047
1781554573973074200,9.71507421875,-2.7529425621032715,-9.278767585754395,-0.7381857633590698
1781554574031291600,9.773291748046875,-2.3952155113220215,-8.877969741821289,-1.0719845294952393
1781554574128321300,9.8703212890625,-2.513660192489624,-9.973882675170898,-0.5904290080070496
1781554574244757000,9.986757080078124,-2.266003131866455,-9.607182502746582,-0.49172505736351013
1781554574341786400,10.083786376953125,-2.4095723628997803,-9.396614074707031,-0.5880361795425415
1781554574400004400,10.14200439453125,-2.2444677352905273,-9.92124080657959,-0.3326023519039154
1781554574458222000,10.20022216796875,-2.162513494491577,-9.783055305480957,-0.6137589812278748
1781554574516439800,10.258439697265626,-2.1003000736236572,-9.41635513305664,-0.9224331378936768
1781554574613469400,10.355469482421874,-1.8747764825820923,-9.806983947753906,-0.9361918568611145
1781554574710499000,10.4524990234375,-1.999801516532898,-9.836296081542969,-1.2299108505249023
1781554574807528400,10.549528564453125,-1.8652052879333496,-9.661619186401367,-0.388235479593277
1781554574865746400,10.607746337890624,-1.8340985774993896,-9.803394317626953,-0.6293123364448547
1781554574943370000,10.685369873046875,-1.828116536140442,-9.682557106018066,-0.8183453679084778
1781554575040399600,10.782399658203126,-2.1092731952667236,-9.843474388122559,-1.2580264806747437
1781554575098617300,10.840617431640625,-2.280359983444214,-9.728020668029785,-1.3782658576965332
1781554575176241200,10.9182412109375,-1.9782661199569702,-9.704689979553223,-0.8757730722427368
1781554575273270500,11.0152705078125,-2.011765718460083,-9.411569595336914,-0.9409775137901306
1781554575409112000,11.151112060546875,-1.85383939743042,-9.69093132019043,-1.1527422666549683
1781554575486736000,11.22873583984375,-1.8759729862213135,-9.945767402648926,-1.0426725149154663
1781554575544953600,11.28695361328125,-1.8424733877182007,-10.068399429321289,-0.9577272534370422
1781554575603171300,11.34517138671875,-1.9680966138839722,-9.776474952697754,-0.8626125454902649
1781554575661389000,11.40338916015625,-1.618146300315857,-9.652647018432617,-0.9756734371185303
1781554575758418700,11.500418701171874,-1.953141450881958,-9.864411354064941,-1.1012966632843018
1781554575855448300,11.5974482421875,-1.8963119983673096,-9.741181373596191,-1.3519448041915894
1781554575913666000,11.655666015625,-2.011765718460083,-9.685547828674316,-1.1276177167892456
1781554576010695700,11.75269580078125,-1.8131613731384277,-9.852447509765625,-1.179661512374878
1781554576107725300,11.849725341796875,-1.862214207649231,-9.708877563476562,-1.1078768968582153
1781554576204755000,11.9467548828125,-1.8323038816452026,-9.765707015991211,-1.2472587823867798
1781554576262972700,12.00497265625,-2.111665964126587,-9.742377281188965,-1.1473584175109863
1781554576360002300,12.102002197265625,-1.7928223609924316,-9.690333366394043,-1.0217353105545044
1781554576457032000,12.199031982421875,-1.8975083827972412,-9.641879081726074,-1.1820544004440308
1781554576554061600,12.2960615234375,-2.039283037185669,-9.759725570678711,-1.2675977945327759
1781554576612279300,12.354279296875,-2.0584256649017334,-9.656235694885254,-1.1174482107162476
1781554576670497000,12.4124970703125,-1.944766640663147,-9.718449592590332,-1.1623135805130005
1781554576767526700,12.509526611328125,-1.9992033243179321,-9.633503913879395,-1.0444670915603638
1781554576825744400,12.567744384765625,-1.9537396430969238,-9.67777156829834,-1.077966570854187
1781554576922774300,12.664774169921875,-2.008774518966675,-9.731609344482422,-1.1102696657180786
1781554577039209700,12.781209716796875,-2.029113531112671,-9.682557106018066,-1.262213945388794
1781554577097427500,12.839427490234375,-1.9956140518188477,-9.701101303100586,-1.164108157157898
1781554577194457000,12.93645703125,-2.0159530639648438,-9.66102123260498,-1.1868400573730469
1781554577272081000,13.014080810546876,-2.0033907890319824,-9.66102123260498,-1.2089736461639404
1781554577330298600,13.072298583984375,-2.0297117233276367,-9.631111145019531,-1.2005987167358398
1781554577427328300,13.169328369140626,-1.9800606966018677,-9.708877563476562,-1.1635099649429321
1781554577543763700,13.285763671875,-2.008774518966675,-9.689735412597656,-1.1234302520751953
1781554577640793300,13.38279345703125,-2.0063817501068115,-9.668798446655273,-1.1850453615188599
1781554577737823000,13.479822998046876,-1.9657038450241089,-9.70349407196045,-1.1443674564361572
1781554577796040700,13.538040771484376,-1.9836499691009521,-9.604191780090332,-1.2550355195999146
1781554577893070300,13.6350703125,-2.004587173461914,-9.67238712310791,-1.1647064685821533
1781554578009506000,13.751506103515625,-2.0057835578918457,-9.77408218383789,-1.1479566097259521
1781554578106535700,13.84853564453125,-2.0309081077575684,-9.627521514892578,-1.2041879892349243
1781554578222971100,13.96497119140625,-2.0207388401031494,-9.701699256896973,-1.1497513055801392
1781554578320000800,14.062000732421875,-2.038684844970703,-9.67657470703125,-1.1521440744400024
1781554578455842300,14.19784228515625,-2.052443504333496,-9.67238712310791,-1.1018948554992676
1781554578552872000,14.294871826171875,-2.042274236679077,-9.644271850585938,-1.2089736461639404
1781554578649901600,14.391901611328125,-2.060220241546631,-9.66640567779541,-1.1108678579330444
1781554578708119300,14.450119384765625,-2.042274236679077,-9.681360244750977,-1.1527422666549683
1781554578805149200,14.547149169921875,-2.0446670055389404,-9.708877563476562,-1.1772687435150146
1781554578863367000,14.605366943359375,-2.070389747619629,-9.68076229095459,-1.114457130432129
1781554578960396500,14.702396484375,-2.0572292804718018,-9.664610862731934,-1.0893324613571167
1781554579057426200,14.79942626953125,-2.0656042098999023,-9.714859962463379,-1.073180913925171
1781554579154455800,14.896455810546875,-2.0614166259765625,-9.711869239807129,-1.1389836072921753
1781554579212673500,14.954673583984375,-2.0757737159729004,-9.67657470703125,-1.0701899528503418
1781554579309703200,15.051703125,-2.080559253692627,-9.652048110961914,-1.0636097192764282
1781554579387327000,15.129326904296875,-2.0315065383911133,-9.689735412597656,-1.0917253494262695
1781554579445544700,15.187544677734374,-2.101496458053589,-9.704092025756836,-1.0456634759902954
1781554579542574300,15.28457421875,-2.108076810836792,-9.630513191223145,-0.9810572862625122
1781554579620198100,15.3621982421875,-2.1128623485565186,-9.738189697265625,-1.0079765319824219
1781554579678416000,15.420415771484375,-2.1337995529174805,-9.655637741088867,-1.0001999139785767
1781554579775445500,15.517445556640626,-2.070389747619629,-9.718449592590332,-1.0253244638442993
1781554579833663200,15.575663330078125,-2.076970100402832,-9.664012908935547,-1.0049854516983032
1781554579891881000,15.633880859375,-2.0656042098999023,-9.69093132019043,-0.9589236974716187
1781554579988910800,15.730910888671875,-2.108675003051758,-9.65803050994873,-0.9565308690071106
1781554580085940200,15.827940185546876,-2.134995937347412,-9.613164901733398,-0.9978070259094238
1781554580182970000,15.92497021484375,-2.1469600200653076,-9.688538551330566,-0.9708877801895142
1781554580279999700,16.021999755859376,-2.104487419128418,-9.66819953918457,-1.0205388069152832
1781554580338217500,16.080217529296874,-2.146361827850342,-9.707083702087402,-1.0510473251342773
1781554580435247000,16.1772470703125,-2.0829520225524902,-9.640084266662598,-1.0205388069152832
1781554580493464800,16.23546484375,-2.0823538303375244,-9.686744689941406,-1.0612168312072754
1781554580590494500,16.332494384765624,-2.1032910346984863,-9.661619186401367,-1.012762188911438
1781554580648712200,16.390712158203126,-2.101496458053589,-9.69511890411377,-1.0037890672683716
1781554580745742000,16.4877421875,-2.103889226913452,-9.665806770324707,-0.9864411354064941
1781554580823365600,16.56536572265625,-2.1194427013397217,-9.737591743469238,-0.9744769930839539
1781554580900989400,16.642989501953124,-2.09431791305542,-9.704689979553223,-0.9840483069419861
1781554580959207200,16.701207275390626,-2.122433662414551,-9.634101867675781,-0.9768698215484619
1781554581056236800,16.79823681640625,-2.0919251441955566,-9.675378799438477,-0.9990034699440002
1781554581114454500,16.85645458984375,-2.1134605407714844,-9.69212818145752,-1.0139585733413696
1781554581211484200,16.953484130859376,-2.1062822341918945,-9.66640567779541,-0.9912267923355103
1781554581269702100,17.0117021484375,-2.093719720840454,-9.707681655883789,-1.0121639966964722
1781554581327919900,17.069919921875,-2.135594129562378,-9.663414001464844,-1.0247262716293335
1781554581386137600,17.1281376953125,-2.1122641563415527,-9.686744689941406,-0.9499505758285522
1781554581483167200,17.225167236328126,-2.1236300468444824,-9.677172660827637,-0.9439685344696045
1781554581580196900,17.32219677734375,-2.1242282390594482,-9.655637741088867,-0.9379864931106567
1781554581638414600,17.38041455078125,-2.1445672512054443,-9.69093132019043,-1.0528420209884644
1781554581735444500,17.477444580078124,-2.1445672512054443,-9.691530227661133,-1.0414760112762451
1781554581793662200,17.535662109375,-2.121237277984619,-9.699904441833496,-0.9864411354064941
1781554581890691800,17.63269189453125,-2.132603168487549,-9.694520950317383,-0.9667003750801086
1781554581948909600,17.69090966796875,-2.1308085918426514,-9.67777156829834,-1.0139585733413696
1781554582007127300,17.749127197265626,-2.14935302734375,-9.675378799438477,-1.0217353105545044
1781554582104157000,17.846156982421874,-2.121835470199585,-9.675976753234863,-0.9936196208000183
1781554582201186600,17.9431865234375,-2.138585329055786,-9.67238712310791,-0.9720842242240906
1781554582259404500,18.001404541015624,-2.1475582122802734,-9.674779891967773,-0.97926265001297
1781554582356434200,18.09843408203125,-2.1571295261383057,-9.675378799438477,-0.9296116232872009
1781554582453463800,18.1954638671875,-2.155334949493408,-9.669994354248047,-0.9858429431915283
1781554582550493400,18.292493408203125,-2.146361827850342,-9.721440315246582,-1.0091729164123535
1781554582608711200,18.350711181640627,-2.179263114929199,-9.644869804382324,-1.0289137363433838
1781554582686335000,18.4283349609375,-2.1170499324798584,-9.704689979553223,-0.9595218896865845
1781554582744552700,18.486552734375,-2.1678972244262695,-9.623932838439941,-0.9320043921470642
1781554582841582300,18.583582275390626,-2.1296122074127197,-9.66939640045166,-0.9864411354064941
1781554582958017800,18.700017822265625,-2.1828525066375732,-9.712467193603516,-1.0037890672683716
1781554583055047700,18.797047607421874,-2.1194427013397217,-9.678369522094727,-0.908674418926239
1781554583152077300,18.894077392578126,-2.1343977451324463,-9.674181938171387,-0.9553344249725342
1781554583249107000,18.99110693359375,-2.1361923217773438,-9.67657470703125,-1.0289137363433838
1781554583346136600,19.088136474609374,-2.103889226913452,-9.69212818145752,-1.0360921621322632
1781554583404354300,19.146354248046876,-2.139183521270752,-9.675378799438477,-0.9852447509765625
1781554583540195800,19.28219580078125,-2.148754835128784,-9.631111145019531,-1.0660024881362915
1781554583637225500,19.3792255859375,-2.1786649227142334,-9.658628463745117,-1.0259226560592651
1781554583734255000,19.476255126953124,-2.1379871368408203,-9.772886276245117,-0.9625129103660583
1781554583792472800,19.534472900390625,-2.1643080711364746,-9.68794059753418,-1.0085747241973877
1781554583870096600,19.6120966796875,-2.1445672512054443,-9.661619186401367,-0.9936196208000183
1781554583928314400,19.670314453125,-2.1846470832824707,-9.680164337158203,-1.0414760112762451
1781554584025344000,19.767343994140624,-2.169692039489746,-9.677172660827637,-0.9667003750801086
1781554584141779500,19.883779541015624,-2.155933141708374,-9.675976753234863,-1.0157532691955566
1781554584219403300,19.9614033203125,-2.224726915359497,-9.671789169311523,-1.0055837631225586
1781554584277621000,20.01962109375,-2.194218397140503,-9.641879081726074,-1.0145567655563354
1781554584335839000,20.0778388671875,-2.186441659927368,-9.707083702087402,-1.0342975854873657
1781554584432868600,20.17486865234375,-2.181057929992676,-9.65503978729248,-1.0211371183395386
1781554584529898200,20.271898193359377,-2.213959217071533,-9.677172660827637,-1.038485050201416
1781554584588116000,20.330115966796875,-2.1960129737854004,-9.656235694885254,-1.0761719942092896
1781554584646333700,20.388333740234376,-2.2133610248565674,-9.660423278808594,-1.0552347898483276
1781554584704551400,20.446551513671874,-2.2025933265686035,-9.661619186401367,-1.058824062347412
1781554584782175200,20.52417529296875,-2.2229323387145996,-9.617352485656738,-1.0432707071304321
1781554584879204900,20.621204833984375,-2.213959217071533,-9.674779891967773,-1.0414760112762451
1781554584937422600,20.679422607421873,-2.217548370361328,-9.589237213134766,-1.069591760635376
1781554585053858300,20.7958583984375,-2.23848557472229,-9.681958198547363,-1.0055837631225586
1781554585150888000,20.892887939453125,-2.2259232997894287,-9.623932838439941,-0.9840483069419861
1781554585247917600,20.98991748046875,-2.231905221939087,-9.651450157165527,-1.043868899345398
1781554585306135300,21.04813525390625,-2.1924238204956055,-9.652647018432617,-0.9756734371185303
1781554585403165000,21.1451650390625,-2.1816561222076416,-9.669994354248047,-1.0163514614105225
1781554585500194600,21.242194580078124,-2.183450698852539,-9.682557106018066,-1.0019944906234741
1781554585558412300,21.300412353515625,-2.191227436065674,-9.665806770324707,-0.9900303483009338
1781554585655442000,21.39744189453125,-2.1571295261383057,-9.641879081726074,-0.9756734371185303
1781554585733065700,21.475065673828126,-2.1816561222076416,-9.718449592590332,-0.9559326171875
1781554585791283500,21.533283447265624,-2.1750757694244385,-9.670592308044434,-0.9996016621589661
1781554585888313000,21.63031298828125,-2.160120725631714,-9.68794059753418,-0.9996016621589661
1781554585946530800,21.68853076171875,-2.1433708667755127,-9.648459434509277,-0.9882357716560364
1781554586004748800,21.746748779296876,-2.1134605407714844,-9.663414001464844,-0.9912267923355103
1781554586062966500,21.804966552734374,-2.1607189178466797,-9.68913745880127,-1.031306505203247
1781554586159996200,21.90199609375,-2.1415762901306152,-9.674779891967773,-0.9888339638710022
1781554586257025800,21.99902587890625,-2.172683000564575,-9.705288887023926,-1.0474581718444824
1781554586354055400,22.096055419921875,-2.1373889446258545,-9.689735412597656,-1.0432707071304321
1781554586412273200,22.154273193359376,-2.1439690589904785,-9.671789169311523,-1.052243709564209
1781554586509302800,22.251302734375,-2.097907304763794,-9.702896118164062,-1.0528420209884644
1781554586606332400,22.34833251953125,-2.1481566429138184,-9.677172660827637,-1.0187442302703857
1781554586664550400,22.40655029296875,-2.108675003051758,-9.728020668029785,-1.0606186389923096
1781554586761579800,22.503579833984375,-2.0919251441955566,-9.714859962463379,-1.0342975854873657
1781554586858609700,22.600609619140624,-2.121835470199585,-9.623334884643555,-1.083350419998169
1781554586936233200,22.678233154296876,-2.0865414142608643,-9.734002113342285,-1.0971091985702515
1781554587033262800,22.775262939453125,-2.087737798690796,-9.675378799438477,-1.0612168312072754
1781554587130292500,22.87229248046875,-2.1056840419769287,-9.69631576538086,-1.0839486122131348
1781554587188510500,22.930510498046875,-2.0865414142608643,-9.650253295898438,-1.098903775215149
1781554587285540000,23.0275400390625,-2.107478618621826,-9.70229721069336,-1.0474581718444824
1781554587343757800,23.0857578125,-2.066202402114868,-9.692726135253906,-1.1222338676452637
1781554587401975600,23.1439755859375,-2.028515338897705,-9.720243453979492,-1.0809576511383057
1781554587499005200,23.241005126953127,-1.9986051321029663,-9.632308006286621,-0.9523434042930603
1781554587615441000,23.35744091796875,-1.9866410493850708,-9.781859397888184,-0.9924231767654419
1781554587673658600,23.41565869140625,-2.0476579666137695,-9.640682220458984,-0.9457631707191467
1781554587751282400,23.493282470703125,-1.994417667388916,-9.693922996520996,-0.9194421172142029
1781554587809500200,23.551500244140627,-2.018944025039673,-9.714262008666992,-0.9110672473907471
1781554587867718000,23.6097177734375,-2.094916343688965,-9.711869239807129,-1.0660024881362915
1781554587925935600,23.667935546875,-2.1535403728485107,-9.979267120361328,-1.0187442302703857
1781554588022965500,23.764965576171875,-2.2612173557281494,-9.153742790222168,-1.1012966632843018
1781554588119995000,23.861994873046875,-2.1684954166412354,-9.747162818908691,-1.51166570186615
1781554588217024800,23.959024658203123,-1.6815561056137085,-9.698110580444336,-2.366501569747925
1781554588275242500,24.017242431640625,-1.85383939743042,-9.694520950317383,-2.268994092941284
1781554588372272000,24.114272216796873,-1.451246976852417,-9.09272575378418,-2.613560438156128
1781554588430490000,24.172489990234375,-1.5278172492980957,-9.025128364562988,-3.3786656856536865
1781554588527519500,24.26951953125,-1.3453645706176758,-9.072386741638184,-3.6670007705688477
1781554588585737500,24.327737548828125,-1.667797327041626,-9.769296646118164,-4.377070903778076
1781554588682767000,24.42476708984375,-2.982055187225342,-10.923833847045898,-4.886143684387207
1781554588740984800,24.48298486328125,-0.6879364848136902,-12.019746780395508,-3.0933215618133545
1781554588799202600,24.54120263671875,-3.2787652015686035,-10.24905776977539,-1.5014961957931519
1781554588857420300,24.599420166015626,-1.9351953268051147,-8.59322452545166,-0.9026923179626465
1781554588954450200,24.6964501953125,-1.6959130764007568,-8.97787094116211,-0.4540380835533142
1781554589051479800,24.793479736328123,-1.7635103464126587,-8.197212219238281,-1.6977076530456543
1781554589109697500,24.851697509765625,-1.5152549743652344,-9.4390869140625,-0.5048855543136597
1781554589206727200,24.94872705078125,-0.4205385744571686,-9.662816047668457,-0.24466611444950104
1781554589303756800,25.0457568359375,-1.2711870670318604,-12.52582836151123,-3.493520975112915
1781554589400786400,25.142786376953126,-5.8474602699279785,-4.810171604156494,2.709871530532837
1781554589517222100,25.25922216796875,-3.858426570892334,-8.602197647094727,-2.7942185401916504
1781554589614251800,25.356251708984374,-1.5487544536590576,-8.190631866455078,-1.5068800449371338
1781554589672469500,25.414469482421875,-1.170688509941101,-7.378866672515869,-1.6564314365386963
1781554589730687500,25.4726875,0.13698910176753998,-7.731209754943848,-2.995215654373169
1781554589788905200,25.5309052734375,-3.090928554534912,-10.762317657470703,-4.479363918304443
1781554589885934800,25.627934814453123,-2.3503501415252686,-17.04407501220703,-0.8189435601234436
1781554589944152800,25.68615283203125,-4.929812908172607,-9.476774215698242,-0.37507495284080505
1781554590041182500,25.783182373046873,-1.0390832424163818,-9.617950439453125,-1.6241283416748047
1781554590138212000,25.880212158203125,-1.2783654928207397,-6.909275531768799,-1.5080764293670654
1781554590235241700,25.97724169921875,-0.9212366938591003,-9.068798065185547,-1.2693923711776733
1781554590332271400,26.074271240234374,-1.0612168312072754,-7.142575740814209,-4.84606409072876
1781554590390489000,26.132489013671876,-1.495514154434204,-12.786645889282227,-3.6233317852020264
1781554590506924800,26.2489248046875,-5.850451469421387,-14.161322593688965,1.9770697355270386
1781554590584548600,26.326548583984376,-3.867997884750366,-9.740582466125488,-2.1930220127105713
1781554590681578200,26.423578125,-0.21774685382843018,-5.910272121429443,-2.0823538303375244
1781554590739796000,26.4817958984375,0.5276173949241638,-8.657232284545898,-1.1473584175109863
1781554590836825600,26.57882568359375,-1.9525432586669922,-11.700304985046387,-4.862215518951416
1781554590933855500,26.67585546875,-3.10528564453125,-13.417154312133789,-1.317248821258545
1781554591030885000,26.772885009765623,-1.8813568353652954,-9.22253704071045,0.5437689423561096
1781554591089102800,26.831102783203125,-1.8592232465744019,-8.362317085266113,-0.1866401731967926
1781554591166726700,26.9087265625,-1.8999011516571045,-6.395416736602783,-1.7222341299057007
1781554591263756300,27.00575634765625,-1.4554343223571777,-8.35274600982666,-1.7928223609924316
1781554591360786000,27.102785888671875,-1.0630114078521729,-8.922237396240234,-4.817350387573242
1781554591419004000,27.16100390625,-2.853440999984741,-13.326227188110352,-3.5647075176239014
1781554591477221600,27.2192216796875,-4.793421745300293,-6.351149559020996,4.321437835693359
1781554591574251300,27.316251220703126,-6.623931407928467,-13.544572830200195,0.30927231907844543
1781554591671281200,27.41328125,-0.1704886108636856,-7.028916358947754,-1.5296118259429932
1781554591768310800,27.510310791015623,0.1740778535604477,-7.6528449058532715,-2.011765718460083
1781554591826528500,27.568528564453125,0.48095735907554626,-9.838688850402832,-5.90668249130249
1781554591923558100,27.66555810546875,-3.510869026184082,-16.1246337890625,-3.0759735107421875
1781554592020588000,27.762588134765625,-3.889533281326294,-9.279964447021484,-1.3411771059036255
1781554592137023500,27.8790234375,-2.0991036891937256,-7.096513748168945,-0.31046873331069946
1781554592195241500,27.937241455078127,-1.5397813320159912,-7.035496711730957,-1.4171491861343384
1781554592253459200,27.995459228515625,-1.1647064685821533,-10.735997200012207,-0.9296116232872009
1781554592350488800,28.09248876953125,1.1383854150772095,-5.069194793701172,-2.5782663822174072
1781554592466924500,28.208924560546876,-0.3846462368965149,-11.033903121948242,0.6227321028709412
1781554592544548400,28.28654833984375,-4.270590305328369,-14.451452255249023,4.948955535888672
1781554592602766000,28.34476611328125,-6.216553211212158,-13.309477806091309,1.7808582782745361
1781554592699796000,28.4417958984375,1.1240284442901611,-6.727420806884766,-2.475973129272461
1781554592758013700,28.500013671875,-0.35114672780036926,-7.0995049476623535,-0.42711883783340454
1781554592855043300,28.597043212890625,0.36311084032058716,-9.486345291137695,-6.700501441955566
1781554592952073200,28.6940732421875,-2.788834810256958,-19.725831985473633,-2.8450660705566406
1781554593049102800,28.791102783203126,-3.2512478828430176,-9.632308006286621,-1.153340458869934
1781554593107320800,28.84932080078125,-0.8913264274597168,-9.579665184020996,-0.6705885529518127
1781554593204350500,28.9463505859375,-1.9232312440872192,-5.674578666687012,-0.8745766878128052
1781554593301380000,29.043380126953124,-1.4829518795013428,-11.59262752532959,0.33738797903060913
1781554593359598000,29.10159814453125,0.5330012440681458,-7.11984395980835,-1.5978072881698608
1781554593456627700,29.198627685546874,-3.4672000408172607,-13.00499153137207,-3.3613176345825195
1781554593553657600,29.29565771484375,-3.9768712520599365,-12.43968677520752,6.689733982086182
1781554593650687200,29.392687255859375,-3.060420274734497,-7.4464640617370605,-4.942375183105469
1781554593708905200,29.4509052734375,0.544965386390686,-4.402793884277344,-2.472383975982666
1781554593805934800,29.547934814453125,0.03409772366285324,-8.295916557312012,-0.43549370765686035
1781554593902964500,29.644964599609374,-0.04785645380616188,-12.693923950195312,-3.3960134983062744
1781554593999994400,29.741994384765626,-2.2504496574401855,-11.702098846435547,-2.2779672145843506
1781554594058212000,29.800212158203124,-3.373281717300415,-9.961320877075195,-0.2392822653055191
1781554594135836000,29.8778359375,-1.721037745475769,-8.711668968200684,0.7447660565376282
1781554594194053600,29.9360537109375,-2.148754835128784,-5.90369176864624,-0.1788634955883026
1781554594252271600,29.994271728515624,-1.6211373805999756,-6.532405853271484,-1.8586249351501465
1781554594310489600,30.052489501953126,-1.5996019840240479,-10.431509971618652,-1.0007981061935425
1781554594407519200,30.149519287109374,-1.710868239402771,-9.996614456176758,-6.0400824546813965
1781554594485143000,30.22714306640625,-2.9276185035705566,-9.952945709228516,0.373878538608551
1781554594543360800,30.28536083984375,-4.244867324829102,-5.974878311157227,7.477570533752441
1781554594601578800,30.343578857421875,-7.11565637588501,-18.619749069213867,-6.004190444946289
1781554594659796700,30.401796630859376,-2.7936203479766846,-8.171489715576172,-4.636094093322754
1781554594756826400,30.498826416015625,0.3026920557022095,-5.874379634857178,-1.8143577575683594
1781554594853856300,30.595856201171873,0.9846464991569519,-9.322437286376953,-3.277568817138672
1781554594912074000,30.654073974609375,-0.3170489966869354,-13.1635160446167,-2.1481566429138184
1781554595009104000,30.751103759765623,-2.3844478130340576,-8.24686336517334,-2.581855535507202
1781554595106133500,30.848133544921875,-1.1892328262329102,-9.499505996704102,0.5676971673965454
1781554595203163400,30.945163330078124,-1.8999011516571045,-5.842674732208252,-0.4624129831790924
1781554595261381000,31.003381103515625,-1.4069796800613403,-7.558328628540039,-1.638485312461853
1781554595358411000,31.100410888671874,-1.2957134246826172,-8.862417221069336,-0.09451649338006973
1781554595494252800,31.236252685546877,-0.5216353535652161,-12.223135948181152,-0.9619147181510925
1781554595552470500,31.294470458984375,-4.506283283233643,-4.278964996337891,7.294519901275635
1781554595610688500,31.3526884765625,-6.686144828796387,-19.889141082763672,-6.878767013549805
1781554595707718100,31.44971826171875,0.24945175647735596,-3.716651678085327,-1.8167506456375122
1781554595804748000,31.546748046875,-0.4666004180908203,-7.351349353790283,-0.33918261528015137
1781554595862966000,31.604966064453127,0.7692924737930298,-8.809774398803711,-3.218346357345581
1781554595959995600,31.70199560546875,0.6023930907249451,-13.326826095581055,-2.791825771331787
1781554596057025500,31.799025634765623,-3.7812578678131104,-9.872187614440918,-2.469393014907837
1781554596154055400,31.896055419921876,-0.8691928386688232,-8.550751686096191,0.7627122402191162
1781554596212273200,31.954273193359374,-1.6821542978286743,-6.98405122756958,0.2231307178735733
1781554596309303000,32.05130297851562,-1.470389485359192,-10.052248001098633,-1.7341982126235962
1781554596406333000,32.1483330078125,-0.5413761138916016,-7.069594383239746,-1.6612170934677124
1781554596464550700,32.20655053710937,-0.2225325107574463,-12.801002502441406,-4.062414646148682
1781554596561580500,32.30358056640625,-4.856233596801758,-5.877370834350586,3.838087558746338
1781554596658610400,32.4006103515625,-6.4947190284729,-16.652250289916992,-3.8362929821014404
1781554596755640000,32.49764013671875,-0.1579262912273407,-3.4707891941070557,-3.2213375568389893
1781554596813858000,32.55585815429688,0.582054078578949,-6.466004848480225,-0.4893322288990021
1781554596910888000,32.65288793945312,1.1330015659332275,-9.572486877441406,-4.7264227867126465
1781554597007917800,32.749917724609375,-3.204587697982788,-17.406587600708008,-2.946761131286621
1781554597104947500,32.84694750976563,-4.121038913726807,-11.186446189880371,-0.29312077164649963
1781554597163165400,32.90516552734375,-1.1407781839370728,-9.437891006469727,0.5605186820030212
1781554597260195300,33.0021953125,-2.3084757328033447,-6.892525672912598,0.5569294691085815
1781554597357225000,33.09922485351562,-1.4763715267181396,-10.234700202941895,-0.05742774158716202
1781554597415443000,33.15744287109375,0.32721850275993347,-8.077570915222168,-0.048454657196998596
1781554597531878700,33.273878662109375,-1.648654818534851,-12.965509414672852,-2.5740790367126465
1781554597609502700,33.351502685546876,-4.446462631225586,-3.8638103008270264,3.7716867923736572
1781554597706532600,33.44853271484375,-5.803791522979736,-12.138789176940918,0.7489534616470337
1781554597784156400,33.52615649414062,-0.41156548261642456,-3.704089403152466,-3.3278181552886963
1781554597861780200,33.6037802734375,-0.008374879136681557,-7.502695560455322,-1.0863415002822876
1781554597958810000,33.70081005859375,-0.5832505226135254,-11.866605758666992,-4.257429599761963
1781554598017028000,33.75902807617187,3.3613176345825195,-11.793025970458984,1.0402796268463135
1781554598075245800,33.81724584960938,-5.423930644989014,-16.639089584350586,-0.2350948303937912
1781554598152870000,33.89486987304687,1.7928223609924316,-7.968697547912598,4.024727821350098
1781554598211088000,33.953087890625,0.13878370821475983,-11.012368202209473,-0.48873403668403625
1781554598308117500,34.05011743164062,-2.746960401535034,-6.668796539306641,1.3722838163375854
1781554598366335500,34.10833544921875,-0.2554338276386261,-8.97248649597168,0.3846462368965149
1781554598463365400,34.205365478515624,0.7034898400306702,-5.911468505859375,-2.7834508419036865
1781554598579801000,34.32180102539063,-2.8187451362609863,-7.71386194229126,2.726621389389038
1781554598657425000,34.3994248046875,-6.963712215423584,-20.388643264770508,-0.4540380835533142
1781554598715643000,34.457642822265626,-2.272583246231079,-12.846467018127441,-0.3242274820804596
1781554598812672800,34.5546728515625,0.1579262912273407,-3.9182469844818115,-2.5710878372192383
1781554598909702700,34.65170263671875,1.0654042959213257,-10.444072723388672,0.2787638306617737
1781554598967920400,34.70992041015625,-0.01375873014330864,-11.788839340209961,-6.007181167602539
1781554599064950300,34.8069501953125,-2.4370899200439453,-15.329020500183105,-0.2925225794315338
1781554599161980200,34.90398022460938,0.3278166949748993,-10.028319358825684,7.613363265991211
1781554599259010300,35.00101025390625,-2.550748825073242,-8.291130065917969,0.4372883439064026
1781554599317228000,35.05922802734375,-2.548356056213379,-6.451648235321045,0.1818545162677765
1781554599394852000,35.13685205078125,-1.1419745683670044,-10.798210144042969,0.7884350419044495
1781554599453070000,35.19507006835938,0.5742774605751038,-7.618747234344482,0.4941178858280182
1781554599511288000,35.2532880859375,-0.4695914387702942,-13.214961051940918,-5.109872817993164
1781554599569505800,35.311505859375,-3.5264222621917725,-13.068999290466309,0.8973084688186646
1781554599666535700,35.40853564453125,-5.956333637237549,-19.878374099731445,1.3160524368286133
1781554599763565800,35.50556591796875,-0.7980063557624817,-3.985844373703003,-2.7559335231781006
1781554599860595700,35.602595703125,0.5641079545021057,-7.098308563232422,0.24227328598499298
1781554599918813400,35.6608134765625,1.1324033737182617,-8.670392990112305,0.6119644045829773
1781554600015843600,35.75784350585938,-0.8668000102043152,-15.092130661010742,0.18005990982055664
1781554600074061300,35.816061279296875,-1.4931213855743408,-10.187442779541016,1.420140266418457
1781554600171091500,35.91309155273437,-0.7896314859390259,-8.00100040435791,3.4917263984680176
1781554600268121300,36.010121337890624,-1.8837496042251587,-7.028318405151367,1.252044439315796
1781554600365151200,36.107151123046876,-1.262213945388794,-9.701101303100586,1.9196419715881348
1781554600462181000,36.20418115234375,0.4001995921134949,-7.140780925750732,-2.410768747329712
1781554600520399000,36.26239916992188,-0.534795880317688,-13.265809059143066,-2.480160713195801
1781554600617429000,36.35942895507812,-4.167698860168457,-4.244269371032715,4.429114818572998
1781554600714459100,36.45645922851563,-5.60399055480957,-15.456438064575195,1.5481562614440918
1781554600811489000,36.55348901367187,0.9804590940475464,-5.767899036407471,-2.472982168197632
1781554600869706800,36.61170678710938,0.9308080077171326,-7.6043901443481445,0.9337990283966064
1781554600966737000,36.70873681640625,0.25782662630081177,-12.108879089355469,-5.182853698730469
1781554601083172900,36.8251728515625,-2.6560330390930176,-9.829715728759766,1.5230315923690796
1781554601160796700,36.90279663085938,-0.24466611444950104,-9.56471061706543,5.73978328704834
1781554601219014700,36.9610146484375,0.8297112584114075,-9.077771186828613,0.9804590940475464
1781554601316044500,37.05804443359375,-1.5798611640930176,-6.165107727050781,1.4261223077774048
1781554601413074400,37.155074462890624,-1.5206388235092163,-9.037093162536621,0.14356936514377594
1781554601471292700,37.213292724609374,0.6502495408058167,-7.784450054168701,-1.994417667388916
1781554601568322600,37.310322509765626,-2.8384859561920166,-13.47159194946289,0.4336991012096405
1781554601665352400,37.4073525390625,-3.4097721576690674,-12.738191604614258,4.050450325012207
1781554601762382600,37.504382568359375,-1.6588243246078491,-6.638886451721191,-1.339382529258728
1781554601820600300,37.56260034179687,1.1395817995071411,-5.857629776000977,-2.1068804264068604
1781554601917630500,37.65963037109375,1.9680966138839722,-8.166703224182129,1.7078771591186523
1781554602014660400,37.75666040039062,-0.06580262631177902,-14.43889045715332,-0.7417750358581543
1781554602092284200,37.8342841796875,-1.3812568187713623,-8.838488578796387,1.4003994464874268
1781554602169908200,37.911908203125,-1.6947166919708252,-9.412766456604004,7.652246952056885
1781554602266938000,38.008938232421876,-2.0093727111816406,-7.6630144119262695,0.5557330846786499
1781554602383374000,38.1253740234375,-1.1491531133651733,-8.58185863494873,0.3068794906139374
1781554602480404200,38.222404296875,-0.24107688665390015,-8.904889106750488,0.6999006271362305
1781554602538622200,38.280622314453126,-0.038285162299871445,-10.713265419006348,-3.7567315101623535
1781554602596840200,38.338840087890624,-2.709273338317871,-14.620146751403809,-0.3236292600631714
1781554602674464300,38.41646435546875,-3.5988051891326904,-3.8530426025390625,7.325028419494629
1781554602732682000,38.47468188476562,-6.814758777618408,-16.98604965209961,2.544168710708618
1781554602829712100,38.57171215820313,0.4731806814670563,-4.683351993560791,-2.593221426010132
1781554602887930000,38.62993017578125,-0.07836493849754333,-7.504489898681641,0.06400800496339798
1781554602984960000,38.7269599609375,1.3022937774658203,-9.427123069763184,-2.5764718055725098
1781554603081990000,38.823989990234374,0.4163511395454407,-18.470197677612305,2.857030153274536
1781554603179020000,38.92102001953125,-3.2883365154266357,-11.376076698303223,1.1371889114379883
1781554603237238000,38.979238037109376,-0.47557350993156433,-8.897710800170898,0.6927221417427063
1781554603334268000,39.07626782226563,-1.7084753513336182,-7.21316385269165,2.478964328765869
1781554603431297800,39.1732978515625,-1.1168500185012817,-9.251250267028809,1.0217353105545044
1781554603489516000,39.23151611328125,-0.9032905697822571,-8.98086166381836,1.3202399015426636
1781554603567139800,39.30913989257812,-0.3194418251514435,-11.47956657409668,-3.933800458908081
1781554603625357800,39.36735791015625,-3.5712878704071045,-13.941183090209961,0.008973085321485996
1781554603683575800,39.42557592773438,-3.3780672550201416,-2.7523441314697266,5.680561065673828
1781554603741794000,39.4837939453125,-7.611568927764893,-22.484756469726562,-2.699103832244873
1781554603838824000,39.58082397460937,-0.06999006122350693,-4.122833251953125,-2.079961061477661
1781554603935853800,39.677853759765625,0.41156548261642456,-8.541778564453125,1.1994023323059082
1781554604032884000,39.77488403320312,0.7728816866874695,-12.235100746154785,-4.132404804229736
1781554604091102000,39.83310205078125,0.6927221417427063,-14.063217163085938,-0.29730820655822754
1781554604168726000,39.91072607421875,-3.6604204177856445,-6.38883638381958,-1.1084750890731812
1781554604226943700,39.96894384765625,-1.5804593563079834,-10.816754341125488,5.913262844085693
1781554604285161700,40.02716162109375,1.0971091985702515,-8.617751121520996,1.296311616897583
1781554604382191900,40.12419189453125,-1.2562319040298462,-6.219544410705566,1.1784651279449463
1781554604440409900,40.18240991210938,-1.0558329820632935,-8.598608016967773,0.9170492887496948
1781554604537440000,40.27943994140625,-0.09511470049619675,-9.147162437438965,-0.11126625537872314
1781554604653876000,40.3958759765625,-1.8699909448623657,-12.835699081420898,0.5694918036460876
1781554604731500000,40.4735,-3.5192439556121826,-3.721437454223633,4.893920421600342
1781554604789718000,40.53171801757812,-7.7700934410095215,-19.074983596801758,0.3720839321613312
1781554604886748200,40.628748046875,0.43609192967414856,-5.078167915344238,-1.5194423198699951
1781554604983778000,40.72577807617188,0.355932354927063,-7.630113124847412,0.9804590940475464
1781554605041996000,40.78399609375,0.7674978375434875,-9.954142570495605,-0.7483552694320679
1781554605139026200,40.88102612304687,-0.5623133182525635,-15.580265998840332,1.25144624710083
1781554605236056300,40.97805639648438,-3.7034912109375,-13.560126304626465,2.915654420852661
1781554605294274300,41.0362744140625,-0.0771685317158699,-8.85523796081543,1.1312068700790405
1781554605391304400,41.13330444335938,-0.18005990982055664,-6.778866767883301,1.0157532691955566
1781554605488334300,41.23033422851562,-0.6915257573127747,-9.4390869140625,0.802193820476532
1781554605585372200,41.3273720703125,0.6364908218383789,-7.664809226989746,-2.7696921825408936
1781554605643582500,41.38558251953125,-1.174277663230896,-14.21994686126709,-1.1371889114379883
1781554605701800700,41.44380078125,-2.923431158065796,-8.82233715057373,2.6195425987243652
1781554605779424800,41.5214248046875,-4.865206718444824,-14.624333381652832,3.6849467754364014
1781554605837642800,41.579642822265626,-5.021936416625977,-15.110674858093262,1.1665010452270508
1781554605895860700,41.63786083984375,-0.22552353143692017,-3.4648072719573975,-3.0352954864501953
1781554605992891000,41.73489086914063,0.4259224236011505,-8.00937557220459,1.1724830865859985
1781554606089921000,41.831921142578125,0.6011967062950134,-11.660224914550781,-3.7782669067382812
1781554606206357000,41.94835693359375,-0.5234299302101135,-8.516056060791016,2.252244234085083
1781554606283981000,42.02598095703125,-1.3160524368286133,-11.105090141296387,6.457031726837158
1781554606342199300,42.08419921875,0.6945167779922485,-8.370692253112793,0.6735795736312866
1781554606439229400,42.1812294921875,-1.140179991722107,-6.7106709480285645,1.669592022895813
1781554606536259300,42.27825927734375,-1.6468602418899536,-8.763712882995605,1.76051926612854
1781554606594477600,42.3364775390625,1.1060823202133179,-8.709874153137207,0.4899304509162903
1781554606710913800,42.45291381835938,-2.8420751094818115,-12.981660842895508,1.3818551301956177
1781554606788537900,42.53053784179688,-3.76570463180542,-5.959922790527344,5.483152866363525
1781554606846755800,42.588755859375,-7.16650390625,-16.506887435913086,3.0005996227264404
1781554606943786200,42.6857861328125,0.8273184299468994,-4.96211576461792,-1.7982062101364136
1781554607040816000,42.78281616210938,0.8350951075553894,-8.247461318969727,1.8843477964401245
1781554607137846300,42.87984619140625,-0.3068794906139374,-13.900505065917969,-4.229912281036377
1781554607196064500,42.938064453125,2.65842604637146,-14.574084281921387,0.364905446767807
1781554607273688600,43.0156884765625,-3.679563045501709,-10.233504295349121,0.22372891008853912
1781554607331906600,43.07390649414062,-1.7437695264816284,-9.262018203735352,5.528018474578857
1781554607390124800,43.13212475585937,0.97148597240448,-8.873184204101562,1.168893814086914
1781554607487155000,43.22915502929688,-2.1230318546295166,-5.9886369705200195,3.04307222366333
1781554607545373200,43.287373291015626,-1.2149556875228882,-9.249456405639648,0.529412031173706
1781554607642403300,43.3844033203125,0.4061816334724426,-8.546564102172852,1.1934202909469604
1781554607758839600,43.50083959960938,-2.679363250732422,-12.429516792297363,0.16689938306808472
1781554607836463600,43.57846362304687,-3.614956855773926,-4.027718544006348,5.109872817993164
1781554607894681900,43.63668188476562,-7.0654072761535645,-16.333406448364258,4.728217601776123
1781554607991712000,43.7337119140625,1.29810631275177,-4.862813949584961,-1.8729819059371948
1781554608088742100,43.8307421875,0.6065805554389954,-7.974679470062256,1.3639088869094849
1781554608146960400,43.88896044921875,1.0031908750534058,-9.663414001464844,-2.596810817718506
1781554608243993300,43.98599340820312,1.7024933099746704,-16.403396606445312,2.142174482345581
1781554608341020700,44.08302075195313,-2.827120065689087,-9.93978500366211,0.31405797600746155
1781554608399239000,44.14123901367188,-1.423729419708252,-9.057432174682617,2.2857437133789062
1781554608496269000,44.23826904296875,-1.0378868579864502,-7.558926582336426,2.328814744949341
1781554608593299200,44.33529931640625,-1.3926228284835815,-8.609973907470703,0.23808585107326508
1781554608690329300,44.432329345703124,0.48514479398727417,-8.362317085266113,-0.41874396800994873
1781554608748547600,44.490547607421874,-0.8368897438049316,-12.655040740966797,-2.669193744659424
1781554608845578000,44.58757788085938,-3.3822548389434814,-5.705087184906006,4.718646049499512
1781554608942608100,44.684608154296875,-7.358527660369873,-16.852649688720703,2.8755745887756348
1781554609039638300,44.78163818359375,1.4009976387023926,-3.8865420818328857,-2.0099709033966064
1781554609097856500,44.8398564453125,0.1256231814622879,-6.839285373687744,-0.23210379481315613
1781554609194886700,44.93688671875,0.5814558863639832,-10.423135757446289,-2.4083759784698486
1781554609291917000,45.0339169921875,0.851844847202301,-15.458232879638672,0.6634100675582886
1781554609388947200,45.130947265625,-2.5645077228546143,-10.384251594543457,0.0323031060397625
1781554609447165200,45.189165283203124,-1.4069796800613403,-10.353743553161621,2.7810580730438232
1781554609544195600,45.28619555664063,-1.8472590446472168,-7.396214962005615,2.9796624183654785
1781554609641225700,45.383225830078125,-1.3710874319076538,-8.435895919799805,0.615553617477417
1781554609699444000,45.44144384765625,-0.5264210104942322,-9.32602596282959,-0.09990034252405167
1781554609796474400,45.53847436523437,-1.5278172492980957,-14.343775749206543,-1.317248821258545
1781554609893504500,45.63550439453125,-3.1579277515411377,-2.2893331050872803,5.056034088134766
1781554609951722800,45.69372265625,-7.572685241699219,-24.199811935424805,-4.188037872314453
1781554610048753000,45.7907529296875,-0.25423741340637207,-3.5617165565490723,-1.7856439352035522
1781554610145783000,45.887782958984374,0.8566305041313171,-7.810173034667969,0.06520441919565201
1781554610242813400,45.9848134765625,0.8075776696205139,-11.959925651550293,-3.9146578311920166
1781554610301031400,46.04303149414063,1.210170030593872,-13.62174129486084,-0.13579268753528595
1781554610378655700,46.12065576171875,-4.023531436920166,-6.8380889892578125,-2.2342982292175293
1781554610436874000,46.1788740234375,-0.7722834944725037,-10.253843307495117,6.44387149810791
1781554610495092000,46.23709204101562,1.6235301494598389,-9.428318977355957,0.32721850275993347
1781554610553310200,46.29531030273437,-1.8987047672271729,-6.896114826202393,2.094916343688965
1781554610650340600,46.392340576171875,-1.089930772781372,-9.1986083984375,0.38644084334373474
1781554610747370800,46.48937084960937,0.5276173949241638,-7.708477973937988,-0.4289134442806244
1781554610863807200,46.60580712890625,-2.2331018447875977,-12.642477989196777,1.550549030303955
1781554610941431600,46.683431640625,-3.417548894882202,-9.422935485839844,6.437291145324707
1781554610999649500,46.7416494140625,-6.661618232727051,-16.188642501831055,3.3655049800872803
1781554611096680000,46.83867993164063,2.7290141582489014,-4.193421840667725,-0.9320043921470642
1781554611154898000,46.89689794921875,0.5670989751815796,-6.297909259796143,0.10887342691421509
1781554611251928300,46.99392822265625,1.1850453615188599,-11.115259170532227,-2.736790895462036
1781554611348958700,47.09095874023438,0.37926238775253296,-18.775880813598633,0.30927231907844543
1781554611445988900,47.18798876953125,-1.1485549211502075,-10.932208061218262,2.9802606105804443
1781554611504207000,47.24620703125,-0.7154539823532104,-8.74636459350586,1.2233306169509888
1781554611601237200,47.3432373046875,-1.4787644147872925,-6.468996047973633,2.9252257347106934
1781554611698267600,47.440267578125,-0.96370929479599,-9.55753231048584,0.22193430364131927
1781554611795298000,47.53729809570312,0.6394818425178528,-7.893921852111816,-2.3270199298858643
1781554611853516300,47.59551635742187,-1.3459627628326416,-14.23131275177002,-1.547558069229126
1781554611950546400,47.69254638671875,-4.746163845062256,-1.9776679277420044,6.110671043395996
1781554612047576800,47.78957690429687,-4.015156269073486,-14.407185554504395,1.4554343223571777
1781554612105795000,47.84779516601562,-0.8195417523384094,-3.52103853225708,-2.8875386714935303
1781554612202825200,47.9448251953125,0.9768698215484619,-8.629117012023926,2.0709879398345947
1781554612299855600,48.04185571289062,0.4001995921134949,-11.968300819396973,-5.3934221267700195
1781554612416291800,48.15829174804688,-3.1818559169769287,-7.491927623748779,0.8961120843887329
1781554612493916200,48.235916259765624,-0.7908278703689575,-9.433703422546387,6.010770320892334
1781554612552134400,48.294134521484374,0.6598208546638489,-8.407780647277832,1.0414760112762451
1781554612649164800,48.39116479492188,-1.164108157157898,-5.252245903015137,2.490330219268799
1781554612746195200,48.4881953125,-0.7369893789291382,-9.495916366577148,0.877567708492279
1781554612804413200,48.5464130859375,0.45523449778556824,-8.255836486816406,-0.6299105882644653
1781554612920849700,48.662849609375,-2.68534517288208,-10.969895362854004,3.422334671020508
1781554612998474000,48.740473876953125,-4.542773723602295,-12.988839149475098,4.549952030181885
1781554613076098300,48.81809838867188,-4.067200183868408,-12.736994743347168,0.2189432680606842
1781554613153722400,48.89572241210937,1.3369896411895752,-4.8089752197265625,-1.031306505203247
1781554613250752800,48.992752685546876,2.1541385650634766,-7.77607536315918,2.4885356426239014
1781554613347783200,49.089783203125,-0.5000999569892883,-15.128023147583008,-2.528017044067383
1781554613406001400,49.14800146484375,-1.0372886657714844,-19.591236114501953,4.001397609710693
1781554613503031600,49.245031494140626,-1.2454642057418823,-11.087143898010254,4.609174728393555
1781554613600062000,49.34206201171875,0.1986042857170105,-7.797610759735107,-0.2476571500301361
1781554613658280200,49.4002802734375,-0.7387840151786804,-6.324828624725342,2.3647069931030273
1781554613755310600,49.497310546875,-0.672383189201355,-9.629914283752441,1.1060823202133179
1781554613852341000,49.594341064453126,0.42831525206565857,-9.024530410766602,-4.606781959533691
1781554613949371400,49.69137133789062,-3.5258240699768066,-8.133204460144043,4.3417768478393555
1781554614007589600,49.74958959960937,-2.861815929412842,-9.038289070129395,6.288337707519531
1781554614104619800,49.846619873046876,-4.417748928070068,-10.015159606933594,-1.5936198234558105
1781554614201650200,49.94365014648437,-0.4253242313861847,-5.679962635040283,-0.5862415432929993
1781554614259868400,50.00186840820312,1.7934205532073975,-8.266005516052246,2.169692039489746
1781554614356898800,50.09889892578125,-0.19680966436862946,-14.662020683288574,-3.4785659313201904
1781554614473335300,50.21533520507813,-3.970889091491699,-7.4225358963012695,-1.8376877307891846
1781554614550959600,50.29295971679687,-1.1611171960830688,-9.189635276794434,4.512863636016846
1781554614609177900,50.351177734375,0.33080771565437317,-8.316853523254395,0.5467599630355835
1781554614706208000,50.4482080078125,-1.3986048698425293,-7.495516777038574,3.745365619659424
1781554614803238400,50.54523828125,-1.1455638408660889,-8.345566749572754,-0.37447673082351685
1781554614900268800,50.64226879882813,-0.5395814776420593,-13.165908813476562,-2.4819552898406982
1781554614977893000,50.71989306640625,-3.5192439556121826,-7.624131202697754,4.062414646148682
1781554615055517400,50.79751733398437,-7.039085865020752,-19.465612411499023,0.6957131624221802
1781554615152547800,50.8945478515625,-0.2566302418708801,-4.3794636726379395,-2.383849620819092
1781554615210766000,50.95276611328125,0.259621262550354,-6.431309223175049,-1.1252248287200928
1781554615307796500,51.04979638671875,1.6295121908187866,-8.636295318603516,1.2735798358917236
1781554615404827000,51.14682690429687,1.0115658044815063,-13.665410041809082,-0.4169493317604065
1781554615482451200,51.224451171875,-4.140181541442871,-10.721639633178711,2.066202402114868
1781554615560075300,51.3020751953125,-1.4793626070022583,-10.095318794250488,7.084549427032471
1781554615657106000,51.39910595703125,-0.9044869542121887,-7.5050883293151855,0.48813581466674805
1781554615754136000,51.49613598632813,-1.750349760055542,-7.875377655029297,1.794616937637329
1781554615812354600,51.5543544921875,-0.7363911867141724,-9.283554077148438,-0.3158525824546814
1781554615909384700,51.651384765625,0.11665010452270508,-10.069596290588379,-2.4472594261169434
1781554615987009000,51.72900903320313,-2.087737798690796,-12.501899719238281,1.6803597211837769
1781554616045227300,51.78722729492188,-4.019941806793213,-3.0831520557403564,5.327619552612305
1781554616103445500,51.84544555664063,-7.794619560241699,-22.039093017578125,-1.8789639472961426
1781554616161663700,51.90366381835938,-2.89172625541687,-11.669198036193848,-1.290927767753601
1781554616258694100,52.00069409179687,0.17587246000766754,-6.829713821411133,-0.03469592705368996
1781554616355724500,52.097724609375,0.9320043921470642,-8.361719131469727,0.1010967567563057
1781554616413942800,52.15594287109375,-0.36191442608833313,-13.349557876586914,-4.184448719024658
1781554616549785300,52.29178540039062,-4.085744857788086,-9.022735595703125,-0.47198426723480225
1781554616608003600,52.35000366210937,-1.3178470134735107,-8.643473625183105,6.493522644042969
1781554616666221800,52.40822192382812,1.0713863372802734,-8.979066848754883,0.6915257573127747
1781554616763252200,52.50525219726563,-2.114656925201416,-6.348158359527588,2.9383862018585205
1781554616860282600,52.60228271484375,-1.8047864437103271,-8.670990943908691,-0.18065811693668365
1781554616957313000,52.69931298828125,0.8967102766036987,-10.628918647766113,-3.579662561416626
1781554617015531300,52.75753125,-2.000998020172119,-14.260026931762695,-0.8847461938858032
1781554617112561700,52.854561767578126,-3.4654054641723633,-7.528418064117432,7.482954502105713
1781554617228998100,52.970998046875,-0.13519448041915894,-3.7734813690185547,-2.170290231704712
1781554617326028500,53.06802856445312,0.12203395366668701,-7.283751964569092,0.1944168359041214
1781554617423059000,53.165058837890626,0.8213363885879517,-10.760523796081543,-3.686143398284912
1781554617558901500,53.30090161132812,-2.407777786254883,-10.982458114624023,3.116053342819214
1781554617617119700,53.35911962890625,-2.214557409286499,-10.06421184539795,2.1260228157043457
1781554617675338000,53.417337890625,-0.8027920126914978,-10.551151275634766,1.0450652837753296
1781554617772368400,53.514368408203126,-1.5272190570831299,-6.936792850494385,2.7768707275390625
1781554617869398800,53.61139868164062,-1.2616157531738281,-9.068199157714844,1.4297115802764893
1781554617927617000,53.66961694335937,-0.8309076428413391,-9.722038269042969,1.5385849475860596
1781554618024647400,53.7666474609375,-1.0839486122131348,-13.300504684448242,-2.9006991386413574
1781554618121677800,53.863677734375,-3.6993038654327393,-3.008376359939575,4.890331268310547
1781554618218708200,53.96070825195312,-5.822335720062256,-15.011971473693848,2.7906293869018555
1781554618276926500,54.01892651367187,-0.5736792087554932,-5.005186557769775,-1.5930216312408447
1781554618373956900,54.115956787109376,0.5204389095306396,-7.250252723693848,0.8356932997703552
1781554618470987300,54.2129873046875,0.2638086974620819,-11.764910697937012,-3.923032760620117
1781554618606829800,54.348829833984375,-3.046661376953125,-10.835299491882324,1.2885349988937378
1781554618665048000,54.407048095703125,-2.5250260829925537,-11.60279655456543,3.930211305618286
1781554618723266300,54.465266357421875,0.5437689423561096,-9.814760208129883,0.26979073882102966
1781554618820296700,54.56229663085937,-1.0893324613571167,-6.332605361938477,2.778067111968994
1781554618878515000,54.62051489257812,-1.6408780813217163,-7.995616912841797,1.0701899528503418
1781554618975545600,54.71754565429688,-0.5772684812545776,-9.153742790222168,1.3854442834854126
1781554619072576000,54.814575927734374,-1.0253244638442993,-13.86102294921875,-1.4291132688522339
1781554619169606400,54.9116064453125,-4.183850288391113,-2.6261229515075684,5.532804012298584
1781554619227824600,54.96982470703125,-7.798209190368652,-20.388046264648438,0.33499518036842346
1781554619324855000,55.06685498046875,-0.16510476171970367,-4.131208419799805,-2.2025933265686035
1781554619421885400,55.163885498046874,0.053240302950143814,-7.933403491973877,1.2664014101028442
1781554619518915800,55.26091577148438,0.4570291340351105,-11.313863754272461,-3.3822548389434814
1781554619577134000,55.31913403320313,0.8811569213867188,-14.615360260009766,-0.23389841616153717
1781554619654758400,55.39675830078125,-3.342773199081421,-13.3501558303833,3.4067811965942383
1781554619712976600,55.4549765625,-2.1308085918426514,-11.002198219299316,2.317448616027832
1781554619771195000,55.51319482421875,-0.7549355626106262,-8.874979019165039,1.3256237506866455
1781554619829413000,55.5714130859375,-1.3022937774658203,-8.110472679138184,-0.5066801905632019
1781554619926443500,55.66844360351563,-1.1700903177261353,-7.997411251068115,1.1288141012191772
1781554620023474000,55.76547387695312,-1.2305090427398682,-9.136395454406738,0.8177471160888672
1781554620120504300,55.86250439453125,-1.8436698913574219,-12.232707977294922,-2.204387903213501
1781554620178722600,55.92072265625,-3.394218921661377,-9.857831001281738,2.224726915359497
1781554620275753200,56.017753173828126,-6.8004021644592285,-18.521644592285156,3.0454649925231934
1781554620372783400,56.11478344726562,-0.1908276081085205,-5.011168956756592,-2.2719850540161133
1781554620469813800,56.21181372070313,1.0396814346313477,-7.390830993652344,2.3054845333099365
1781554620528032000,56.27003198242188,0.25004997849464417,-9.18724250793457,-1.5535401105880737
1781554620625062400,56.3670625,0.2638086974620819,-14.985052108764648,-0.11904292553663254
1781554620722092800,56.4640927734375,-3.899104595184326,-10.479965209960938,1.5804593563079834
1781554620780311000,56.52231103515625,-1.2245270013809204,-7.969893932342529,1.7575281858444214
1781554620877341700,56.619341796875,-1.0295119285583496,-7.775477409362793,2.166102647781372
1781554620974372000,56.7163720703125,-1.124626636505127,-8.566903114318848,1.0319048166275024
1781554621071402500,56.81340258789062,0.5365904569625854,-8.046463966369629,-0.24646073579788208
1781554621129620700,56.87162084960938,-0.8464609980583191,-13.296317100524902,-3.202194929122925
1781554621187839000,56.9298388671875,-4.203591346740723,-13.24547004699707,1.191625714302063
1781554621265463300,57.00746337890625,-4.6995038986206055,-11.746366500854492,6.814758777618408
1781554621323681500,57.065681640625,-5.1768717765808105,-15.276976585388184,1.7617156505584717
1781554621420712000,57.1627119140625,0.36191442608833313,-6.464210510253906,-1.5427724123001099
1781554621478930200,57.22093017578125,0.8051848411560059,-7.284350395202637,2.1296122074127197
1781554621575960600,57.317960693359375,0.0687936544418335,-10.914261817932129,-3.2961132526397705
1781554621672991000,57.41499096679688,0.037088751792907715,-20.08894157409668,3.3583266735076904
1781554621770021400,57.512021484375,-2.0309081077575684,-10.839486122131348,3.452843189239502
1781554621828240000,57.57023999023438,0.09870393574237823,-9.241679191589355,0.8901300430297852
1781554621925270300,57.667270263671874,-0.5084748268127441,-5.889334678649902,1.113858938217163
1781554622022300700,57.76430078125,-0.9559326171875,-9.984650611877441,1.4895321130752563
1781554622080519000,57.82251879882813,0.7124629616737366,-8.385048866271973,1.1318050622940063
1781554622196955400,57.93895532226563,-2.5154547691345215,-13.60618782043457,0.33499518036842346
1781554622274579700,58.01657983398437,-3.655036687850952,-3.492922782897949,6.101099491119385
1781554622371610000,58.11361010742188,-3.881756544113159,-11.986247062683105,0.6574280261993408
1781554622429828400,58.17182836914063,0.8913264274597168,-3.6508491039276123,-2.6045875549316406
1781554622565671000,58.3076708984375,0.8434699773788452,-7.76052188873291,1.7336000204086304
1781554622623889200,58.36588916015625,0.36251261830329895,-13.483555793762207,-2.953939437866211
1781554622682107400,58.424107421875,1.8693926334381104,-13.104891777038574,-0.5958128571510315
1781554622740325600,58.48232568359375,-1.526620864868164,-12.985250473022461,4.192225456237793
1781554622817950000,58.55994995117187,-1.4673985242843628,-9.42054271697998,6.372684955596924
1781554622876168200,58.61816821289062,1.430907964706421,-9.445667266845703,0.26201409101486206
1781554622934386400,58.67638647460937,-1.8508483171463013,-7.83410120010376,1.8550357818603516
1781554623031416800,58.77341674804688,-1.090528964996338,-8.34855842590332,1.3938192129135132
1781554623128447500,58.870447509765626,0.3595215976238251,-8.123632431030273,0.0323031060397625
1781554623244884000,58.986884033203125,-4.485345840454102,-14.028520584106445,0.5467599630355835
1781554623322508300,59.06450830078125,-4.320241451263428,-8.35872745513916,6.2051873207092285
1781554623380726500,59.1227265625,-5.825924873352051,-13.551751136779785,4.096512317657471
1781554623477757000,59.2197568359375,0.48095735907554626,-5.865406513214111,-1.3591232299804688
1781554623574787300,59.31678735351562,0.900897741317749,-7.149754047393799,1.8939191102981567
1781554623633005600,59.37500561523437,0.7034898400306702,-10.834700584411621,-3.1920254230499268
1781554623730036000,59.472035888671876,0.7160521745681763,-14.2396879196167,0.49651068449020386
1781554623827066400,59.56906640625,-2.820539712905884,-11.598011016845703,2.0919251441955566
1781554623885284600,59.62728466796875,-1.0259226560592651,-9.455238342285156,1.551147222518921
1781554623982315000,59.72431494140625,-1.435693621635437,-6.975078105926514,2.9623143672943115
1781554624079345400,59.821345458984375,-1.1820544004440308,-8.919246673583984,1.0115658044815063
1781554624176376000,59.9183759765625,0.623330295085907,-8.13260555267334,-1.5092729330062866
1781554624234594300,59.97659423828125,-1.067797064781189,-13.619946479797363,-1.2305090427398682
1781554624331624700,60.07362475585938,-3.7986059188842773,-3.2823543548583984,5.212764263153076
1781554624428655000,60.170655029296874,-4.370490550994873,-14.907883644104004,1.7886348962783813
1781554624525685500,60.267685546875,0.3367897868156433,-7.024130821228027,-1.6360924243927002
1781554624622716000,60.3647158203125,1.23589289188385,-7.061817646026611,1.587039589881897
1781554624680934100,60.42293408203125,0.8548358678817749,-10.700702667236328,-2.6039891242980957
1781554624816776700,60.55877661132813,-3.6023945808410645,-11.481959342956543,2.7290141582489014
1781554624874995000,60.61699487304688,-2.400599241256714,-11.030912399291992,4.001397609710693
1781554624972025300,60.714025390625,0.04307080805301666,-8.166703224182129,0.6562315821647644
1781554625030243800,60.772243896484376,-0.9649057388305664,-6.690930366516113,2.482553482055664
1781554625127274200,60.86927416992187,-1.2221341133117676,-9.026325225830078,0.8835497498512268
1781554625224304600,60.9663046875,0.9565308690071106,-8.94377326965332,-1.9525432586669922
1781554625321335000,61.0633349609375,-3.1645078659057617,-12.868001937866211,1.124626636505127
1781554625379553300,61.12155322265625,-3.957728624343872,-2.7427730560302734,3.8488552570343018
1781554625476583700,61.21858374023437,-4.985445976257324,-14.730813980102539,2.170290231704712
1781554625573614000,61.315614013671876,0.4253242313861847,-7.062416076660156,-1.6115660667419434
1781554625631832300,61.373832275390626,0.1740778535604477,-8.074580192565918,1.333998680114746
1781554625728862700,61.47086279296875,0.9631111025810242,-11.508280754089355,-2.493321180343628
1781554625845299200,61.58729931640625,-0.6873382925987244,-16.360925674438477,4.97348165512085
1781554625922923500,61.664923583984375,-2.7361927032470703,-10.26341438293457,4.570889472961426
1781554625981141800,61.723141845703125,0.7334001660346985,-10.081560134887695,1.1216355562210083
1781554626078172200,61.82017211914062,-0.605384111404419,-6.299105644226074,2.248655080795288
1781554626175202600,61.91720263671875,-1.179661512374878,-9.612566947937012,1.317248821258545
1781554626233421000,61.97542114257813,0.30628129839897156,-9.360722541809082,0.745364248752594
1781554626349857500,62.091857421875,-2.2031915187835693,-13.422538757324219,0.04127619042992592
1781554626427481900,62.16948193359375,-3.5916268825531006,-3.1866414546966553,5.934200286865234
1781554626524512300,62.26651220703125,-3.6843485832214355,-13.174881935119629,-0.03409772366285324
1781554626582730500,62.32473046875,0.33798620104789734,-4.784449100494385,-1.9256240129470825
1781554626679761000,62.421760986328124,0.607776939868927,-7.501499176025391,1.8598214387893677
1781554626776791300,62.51879125976563,0.5467599630355835,-12.371491432189941,-2.947359323501587
1781554626835009500,62.57700952148438,2.018345832824707,-13.146167755126953,-0.1698904037475586
1781554626893227800,62.63522778320313,-1.311864972114563,-15.002998352050781,3.2315070629119873
1781554626970852000,62.71285205078125,-2.74755859375,-9.774680137634277,4.125226020812988
1781554627029070600,62.77107055664062,0.4941178858280182,-9.959526062011719,0.8578268885612488
1781554627126101000,62.86810107421875,-0.5437689423561096,-6.7345991134643555,2.5010979175567627
1781554627184319200,62.9263193359375,-1.3316057920455933,-8.614161491394043,1.171286702156067
1781554627281349600,63.023349609375,-1.1258230209350586,-9.488738059997559,0.9846464991569519
1781554627397786000,63.1397861328125,-2.4993033409118652,-13.535599708557129,0.8919246196746826
1781554627475410400,63.21741040039063,-3.473181962966919,-2.6039891242980957,6.92901611328125
1781554627533628700,63.275628662109376,-7.686344623565674,-20.542383193969727,-0.25363919138908386
1781554627630659000,63.3726591796875,0.6358926296234131,-5.0327043533325195,-1.4656038284301758
1781554627727689500,63.469689453125,0.5431707501411438,-7.203592777252197,2.1415762901306152
1781554627785907700,63.52790771484375,0.8015955686569214,-8.8438720703125,-1.4225330352783203
1781554627882938000,63.624938232421876,1.140179991722107,-13.01934814453125,0.42711883783340454
1781554627941156600,63.683156494140626,-2.211566209793091,-11.271988868713379,3.2063822746276855
1781554628018781000,63.76078100585938,-1.168893814086914,-9.388239860534668,6.248856544494629
1781554628076999000,63.8189990234375,1.2095718383789062,-9.046664237976074,1.5361921787261963
1781554628135217400,63.87721752929688,-0.17527425289154053,-7.101897716522217,0.5383850932121277
1781554628232247800,63.974247802734375,-1.1300104856491089,-9.343374252319336,1.9184455871582031
1781554628329278200,64.0712783203125,-0.019142581149935722,-8.623732566833496,0.32183465361595154
1781554628387496400,64.12949633789063,-0.15732808411121368,-11.92343521118164,-2.8827531337738037
1781554628445714700,64.18771459960938,-3.273381471633911,-14.026726722717285,0.3475574851036072
1781554628523339300,64.26533935546875,-2.7637102603912354,-3.160918712615967,6.7902326583862305
1781554628581557200,64.32355712890624,-7.204789161682129,-17.35514259338379,3.0903303623199463
1781554628678588000,64.420587890625,1.5146567821502686,-3.961317777633667,-1.6648063659667969
1781554628736806000,64.47880590820313,-0.1818545162677765,-6.811768054962158,0.07956135272979736
1781554628833836500,64.57583642578125,0.8841479420661926,-10.18445110321045,-2.2755744457244873
1781554628969679000,64.71167919921875,-1.6319050788879395,-16.805391311645508,3.2063822746276855
1781554629027897300,64.7698974609375,-1.4919248819351196,-12.107682228088379,2.2366909980773926
1781554629086115600,64.82811547851563,-1.2789636850357056,-7.904689788818359,2.877967357635498
1781554629183146000,64.92514599609375,-1.8681962490081787,-7.479963779449463,2.3461625576019287
1781554629280176400,65.02217626953124,-0.5647061467170715,-9.215956687927246,1.72941255569458
1781554629338394600,65.08039453125,-1.0516455173492432,-8.372486114501953,1.2095718383789062
1781554629435425300,65.17742529296875,-0.9822536706924438,-13.435699462890625,-1.2867404222488403
1781554629493643500,65.2356435546875,-3.329014539718628,-11.288739204406738,2.8384859561920166
1781554629571267800,65.31326782226563,-3.9774694442749023,-12.024532318115234,4.512265205383301
1781554629629486000,65.37148608398438,-5.626124382019043,-14.78405475616455,2.5405795574188232
1781554629687704300,65.42970434570313,-0.4893322288990021,-5.352146148681641,-1.5343974828720093
1781554629784734700,65.52673461914063,0.2745763957500458,-7.1228346824646,0.8697910308837891
1781554629881765000,65.62376513671875,0.6227321028709412,-11.557332992553711,-3.1968109607696533
1781554629939983400,65.6819833984375,1.5619150400161743,-13.335799217224121,0.15134602785110474
1781554630017607700,65.75960766601563,-4.849055290222168,-11.82473087310791,2.8253252506256104
1781554630075826000,65.81782592773438,-2.296511650085449,-9.693922996520996,4.147359848022461
1781554630134044200,65.87604418945313,0.20099709928035736,-10.0073823928833,0.7824530005455017
1781554630231074800,65.97307470703124,-0.6574280261993408,-6.857231616973877,1.9244276285171509
1781554630289293000,66.03129296875,-0.9559326171875,-8.703892707824707,2.8450660705566406
1781554630386323500,66.12832348632813,-0.7357929348945618,-9.196813583374023,0.6245267391204834
1781554630502760000,66.24476000976563,-1.892722725868225,-12.938590049743652,-0.3613162338733673
1781554630580384300,66.32238427734374,-4.292125701904297,-2.74755859375,5.019543647766113
1781554630638602500,66.3806025390625,-8.505288124084473,-22.365713119506836,0.3601198196411133
1781554630735633000,66.4776328125,0.7758727669715881,-3.8739798069000244,-1.7784653902053833
1781554630832663600,66.57466357421875,0.30209386348724365,-8.061419486999512,1.1377872228622437
1781554630890881800,66.6328818359375,1.0630114078521729,-8.682356834411621,-0.529412031173706
1781554630987912200,66.729912109375,1.5828521251678467,-13.142578125,-0.1818545162677765
1781554631046130400,66.78813037109374,-0.7465606927871704,-13.714463233947754,4.223331928253174
1781554631143160800,66.88516088867188,-1.6528422832489014,-7.978867053985596,5.099104881286621
1781554631240191200,66.98219116210937,-1.906481385231018,-8.09671401977539,1.4608181715011597
1781554631337221600,67.0792216796875,-1.2592228651046753,-7.349554538726807,2.038684844970703
1781554631434252300,67.17625219726563,-0.6652047038078308,-9.42473030090332,1.6169499158859253
1781554631492470500,67.23447045898438,0.22372891008853912,-10.650453567504883,-3.7974095344543457
1781554631570094800,67.3120947265625,-2.9001009464263916,-12.177074432373047,1.8687944412231445
1781554631628313000,67.37031298828126,-4.387240409851074,-2.7942185401916504,5.1050872802734375
1781554631686531300,67.42853125,-7.785048484802246,-19.680965423583984,1.6576279401779175
1781554631783561700,67.52556176757813,0.882951557636261,-3.930809497833252,-0.7956135272979736
1781554631841780200,67.5837802734375,-0.3433700501918793,-6.657430648803711,0.5946164131164551
1781554631938810600,67.680810546875,0.7740781307220459,-8.762516975402832,-0.8213363885879517
1781554632055247000,67.7972470703125,-0.3206382393836975,-20.359331130981445,3.3206396102905273
1781554632132871400,67.87487133789062,-2.977867841720581,-11.631510734558105,1.7587246894836426
1781554632191089700,67.93308959960937,-0.8949156403541565,-7.252645492553711,3.5192439556121826
1781554632288120000,68.0301201171875,-0.8458628058433533,-6.99122953414917,0.7740781307220459
1781554632385150700,68.12715063476563,-0.9433703422546387,-8.170890808105469,1.7575281858444214
1781554632443369000,68.18536889648438,-1.6552350521087646,-8.782257080078125,1.357926845550537
1781554632540399400,68.2823994140625,0.022133609279990196,-11.967702865600586,-2.5052852630615234
1781554632598617900,68.34061791992187,-3.5617165565490723,-14.627923011779785,0.7052844762802124
1781554632695648300,68.43764819335938,-3.6095728874206543,-8.663214683532715,5.463412284851074
1781554632792678700,68.5346787109375,-1.425524115562439,-7.868797302246094,-0.31764721870422363
1781554632889709000,68.631708984375,-0.2350948303937912,-7.015157699584961,0.2841476798057556
1781554632986739500,68.72873950195313,1.2095718383789062,-9.099306106567383,-0.5078766345977783
1781554633044958000,68.7869580078125,-0.26141586899757385,-14.371891021728516,-3.4504501819610596
1781554633122582300,68.86458227539063,-0.37806597352027893,-20.178672790527344,4.770092010498047
1781554633180800500,68.92280053710938,-2.9306094646453857,-9.701101303100586,1.0426725149154663
1781554633239018800,68.98101879882813,-0.989432156085968,-9.622735977172852,4.331607341766357
1781554633297237000,69.03923706054688,1.1018948554992676,-7.131209850311279,0.380458801984787
1781554633394267600,69.136267578125,-0.5318048596382141,-6.75792932510376,1.7928223609924316
1781554633491298000,69.23329809570312,-1.6199408769607544,-9.572486877441406,1.0444670915603638
1781554633588328400,69.33032836914063,0.6819544434547424,-10.121041297912598,-2.128415822982788
1781554633646547000,69.388546875,-3.039483070373535,-13.686945915222168,0.07597211748361588
1781554633743577300,69.48557739257812,-5.327021598815918,-8.426324844360352,6.948757171630859
1781554633840607700,69.58260766601562,0.4205385744571686,-5.470590591430664,-4.280759811401367
1781554633898826000,69.64082592773437,0.12143574655056,-7.239484786987305,-1.2191431522369385
1781554633995856600,69.73785668945312,0.7214360237121582,-6.8273210525512695,0.7752745151519775
1781554634092887000,69.83488696289062,-0.24107688665390015,-14.254044532775879,-4.194618225097656
1781554634170511400,69.91251147460937,0.20458634197711945,-18.918851852416992,5.514857769012451
1781554634248135700,69.9901357421875,-3.122035264968872,-12.481560707092285,3.0969107151031494
1781554634345166300,70.08716625976562,0.5240281820297241,-7.248457908630371,0.3846462368965149
1781554634442196700,70.18419677734374,-0.3690928816795349,-6.180660724639893,3.6598222255706787
1781554634539227100,70.28122705078125,-2.066202402114868,-8.937790870666504,-0.12921242415905
1781554634597445400,70.3394453125,0.29371899366378784,-7.95434045791626,-0.5180460810661316
1781554634694476000,70.43647607421875,-4.153940200805664,-15.306886672973633,0.09990034252405167
1781554634791506400,70.53350634765626,-3.3026933670043945,-9.553942680358887,6.141179084777832
1781554634849725000,70.59172485351563,-6.15134859085083,-13.648061752319336,3.386442184448242
1781554634946755300,70.68875537109375,-0.19920247793197632,-6.113063812255859,-1.8478572368621826
1781554635043785700,70.78578564453124,1.0869396924972534,-7.646264553070068,2.754737138748169
1781554635140816100,70.88281616210938,0.7010970115661621,-14.997015953063965,-2.7762725353240967
1781554635218440700,70.96044067382813,-0.8859425783157349,-10.459626197814941,3.1956145763397217
1781554635296065000,71.03806494140625,-0.9314061999320984,-10.219745635986328,6.290730953216553
1781554635393095400,71.13509545898438,-0.8506484627723694,-6.8033928871154785,0.6861419081687927
1781554635490126000,71.2321259765625,-1.459621787071228,-7.758727550506592,2.427518606185913
1781554635548344300,71.29034423828125,-1.2813565731048584,-9.754940032958984,1.2741780281066895
1781554635645375000,71.387375,0.5060819983482361,-9.686145782470703,-2.744567632675171
1781554635722999300,71.46499926757812,-4.388436794281006,-14.199009895324707,1.0947163105010986
1781554635800623600,71.54262353515625,-3.4295129776000977,-8.164310455322266,7.204190731048584
1781554635897654000,71.63965405273437,-1.80717933177948,-8.511868476867676,-0.9517452120780945
1781554635994684700,71.7366845703125,0.5006981492042542,-6.704689025878906,-0.31465616822242737
1781554636091715000,71.83371508789062,0.9732806086540222,-9.053842544555664,-1.4757733345031738
1781554636149933300,71.89193334960937,-0.3367897868156433,-14.167304992675781,-3.1956145763397217
1781554636246964000,71.9889638671875,-0.859621524810791,-7.390232563018799,2.2121646404266357
1781554636343994400,72.08599438476563,-1.0516455173492432,-8.403593063354492,4.411168575286865
1781554636402212600,72.14421264648438,0.2476571500301361,-7.88494873046875,0.6711867451667786
1781554636499243300,72.2412431640625,-1.7838492393493652,-6.389434814453125,4.043870449066162
1781554636596273700,72.33827368164063,-1.287936806678772,-9.454042434692383,1.2149556875228882
1781554636693304300,72.43530419921875,-0.3433700501918793,-13.304692268371582,-3.250051259994507
1781554636751522600,72.4935224609375,-3.115455150604248,-12.853046417236328,1.0971091985702515
1781554636848553200,72.59055322265625,-5.712863922119141,-15.894922256469727,4.797609329223633
1781554636945583600,72.68758349609375,-0.5850451588630676,-5.399404525756836,-2.51425838470459
1781554637042614000,72.78461401367187,0.17527425289154053,-6.867999076843262,0.48574298620224
1781554637100832300,72.84283227539062,1.3956137895584106,-7.428517818450928,1.74496591091156
1781554637197863000,72.93986279296875,-0.9188438653945923,-14.773286819458008,-0.251844584941864
1781554637275487200,73.0174873046875,-0.10588239878416061,-14.417952537536621,4.49252462387085
1781554637353111600,73.09511157226562,-1.342971682548523,-11.054242134094238,6.169893264770508
1781554637450142200,73.19214208984376,-0.828514814376831,-7.739584922790527,1.093519926071167
1781554637547172600,73.28917260742188,-1.6618152856826782,-7.712665557861328,2.0985054969787598
1781554637605391000,73.34739111328125,-0.9296116232872009,-9.377471923828125,1.0241280794143677
1781554637702421500,73.44442138671874,0.40378883481025696,-8.551349639892578,-2.191227436065674
1781554637780045800,73.5220458984375,-2.6153552532196045,-13.141980171203613,0.9978070259094238
1781554637838264300,73.58026440429687,-3.4917263984680176,-2.115255117416382,4.610969066619873
1781554637896482600,73.63848266601562,-6.14835786819458,-20.62134552001953,2.2241287231445312
1781554637954700800,73.69670068359375,-4.884349346160889,-12.602996826171875,0.5742774605751038
1781554638051731500,73.7937314453125,0.10229317098855972,-6.500700950622559,-1.0947163105010986
1781554638148761900,73.89076196289062,1.212562918663025,-8.206185340881348,1.5200406312942505
1781554638245792300,73.98779223632812,0.6161518096923828,-13.724632263183594,0.6586244106292725
1781554638304010800,74.0460107421875,-1.158724308013916,-11.394621849060059,2.901895761489868
1781554638401041200,74.14304125976562,-1.566102385520935,-8.769096374511719,5.886941909790039
1781554638498071600,74.24007153320312,-0.5024927258491516,-7.263412952423096,0.8602197170257568
1781554638556290000,74.2982900390625,-2.345564365386963,-6.840481758117676,2.964108943939209
1781554638653320400,74.39532055664063,-1.2729816436767578,-9.279964447021484,1.373480200767517
1781554638750351000,74.49235107421875,-0.1501496136188507,-11.867203712463379,-2.7667012214660645
1781554638827975400,74.56997534179688,-3.9523448944091797,-8.71047306060791,3.287140130996704
1781554638905599700,74.64759985351563,-7.024729251861572,-19.000207901000977,3.8291144371032715
1781554639002630400,74.74463037109375,-0.26620152592658997,-3.5503506660461426,-2.348555326461792
1781554639099660800,74.84166088867188,0.061016976833343506,-7.067800045013428,0.3080759048461914
1781554639196691500,74.93869140625,1.594218134880066,-10.801799774169922,-2.8755745887756348
1781554639254909700,74.99690966796875,1.2065808773040771,-13.214961051940918,0.3846462368965149
1781554639332534000,75.07453393554688,-4.023531436920166,-11.370095252990723,1.9286150932312012
1781554639390752500,75.13275244140625,-2.2307088375091553,-11.356934547424316,3.7561333179473877
1781554639448970800,75.190970703125,0.27337998151779175,-9.256035804748535,1.3830515146255493
1781554639507189000,75.24918896484375,-1.8795621395111084,-7.542177200317383,0.8638089895248413
1781554639604219600,75.3462197265625,-1.1359925270080566,-8.533403396606445,2.0650060176849365
1781554639701250000,75.44325,0.39062830805778503,-7.735995769500732,0.2829512655735016
1781554639837092900,75.5790927734375,-3.978067636489868,-11.670393943786621,1.8095721006393433
1781554639895311000,75.63731103515624,-3.659224033355713,-4.233501434326172,7.235297679901123
1781554639953529300,75.695529296875,-8.063812255859375,-18.202800750732422,3.1549365520477295
1781554640050560000,75.79256005859375,2.0853450298309326,-3.8045880794525146,-2.0829520225524902
1781554640147590400,75.88959033203125,0.7423732280731201,-8.150551795959473,2.0476579666137695
1781554640205809000,75.94780883789062,1.1670992374420166,-9.460622787475586,-1.835893154144287
1781554640341651500,76.0836513671875,-2.9892337322235107,-15.40618896484375,4.485345840454102
1781554640399869700,76.14186962890625,-2.2301106452941895,-12.299108505249023,2.214557409286499
1781554640458088200,76.20008813476562,-0.9613165259361267,-9.42772102355957,2.785843849182129
1781554640555118600,76.29711865234376,-0.12382857501506805,-6.34217643737793,1.7389838695526123
1781554640652149200,76.39414916992187,-0.5413761138916016,-9.397212982177734,1.4500504732131958
1781554640749179600,76.4911796875,0.6059823632240295,-7.3399834632873535,-3.111865758895874
1781554640846210300,76.58821020507813,-3.0239295959472656,-13.39262866973877,1.2233306169509888
1781554640904428500,76.64642846679688,-3.6771702766418457,-3.9900317192077637,6.463014125823975
1781554641001459200,76.74345922851562,-3.9690945148468018,-12.850653648376465,0.7190431952476501
1781554641059677400,76.80167749023437,0.7082754969596863,-4.199403762817383,-1.9304096698760986
1781554641156707800,76.89870776367188,0.19142581522464752,-8.080561637878418,1.649253010749817
1781554641253738500,76.99573852539062,0.3607180118560791,-12.63769245147705,-3.3655049800872803
1781554641370175000,77.11217504882812,-2.4388844966888428,-16.11326789855957,4.471587181091309
1781554641447799600,77.18979956054687,-1.3716856241226196,-10.703095436096191,5.897709846496582
1781554641544830000,77.28682983398437,-0.924227774143219,-7.6390862464904785,1.4219348430633545
1781554641603048200,77.34504809570312,-0.7537391185760498,-6.492326259613037,2.23848557472229
1781554641661266700,77.4032666015625,-1.2891331911087036,-8.527421951293945,1.9268203973770142
1781554641758297000,77.50029711914063,0.064606212079525,-9.756733894348145,2.985046148300171
1781554641874733800,77.61673388671875,-1.9698911905288696,-13.00259780883789,0.4977070987224579
1781554641952358400,77.6943583984375,-3.6167514324188232,-2.884547710418701,5.407779216766357
1781554642010576600,77.75257666015625,-8.283951759338379,-20.954545974731445,1.9405791759490967
1781554642107607000,77.84960693359375,2.520240545272827,-4.155136585235596,-1.667797327041626
1781554642204637700,77.9466376953125,0.9631111025810242,-8.158329010009766,2.6769702434539795
1781554642301668000,78.04366821289062,-0.40677985548973083,-13.695320129394531,-3.1268210411071777
1781554642379292700,78.12129272460938,0.6149554252624512,-21.275184631347656,5.392225742340088
1781554642456917000,78.1989169921875,-2.672184705734253,-14.031512260437012,3.8937206268310547
1781554642553947600,78.29594775390625,0.794417142868042,-8.001599311828613,1.5074782371520996
1781554642612166000,78.35416577148438,1.929213285446167,-5.5034918785095215,-1.165902853012085
1781554642709196500,78.45119653320313,-1.2711870670318604,-9.424132347106934,1.2664014101028442
1781554642806227000,78.54822705078125,0.5796613097190857,-7.835896015167236,-1.5780665874481201
1781554642903257600,78.64525756835937,-2.981456995010376,-13.424931526184082,1.6307085752487183
1781554642961475800,78.70347583007812,-3.8327035903930664,-3.2590243816375732,6.209374904632568
1781554643058506500,78.80050659179688,-3.50129771232605,-12.570096015930176,1.542174220085144
1781554643155537000,78.89753686523437,-0.46420758962631226,-6.9481587409973145,-1.2969099283218384
1781554643252567600,78.99456762695313,1.1371889114379883,-7.232904434204102,1.1341979503631592
1781554643310785800,79.05278588867188,0.8542376756668091,-12.363116264343262,-3.0376882553100586
1781554643427222300,79.16922216796875,-1.2951152324676514,-7.851449489593506,2.249253273010254
1781554643504846800,79.24684692382813,-1.5134602785110474,-10.500304222106934,6.905686378479004
1781554643563065000,79.30506518554688,1.8191434144973755,-8.079963684082031,0.4007977843284607
1781554643660095700,79.402095703125,-1.231107234954834,-6.243472576141357,1.8317056894302368
1781554643757126100,79.49912622070312,-1.0839486122131348,-8.93420124053955,0.9625129103660583
1781554643854156800,79.59615673828125,0.17706887423992157,-10.562517166137695,-3.0969107151031494
1781554643931781000,79.67378100585937,-3.5162527561187744,-10.651650428771973,2.720639228820801
1781554644009405700,79.75140576171874,-5.453841209411621,-13.762917518615723,4.781457901000977
1781554644106436000,79.84843603515625,-0.5419743061065674,-6.177670001983643,-2.217548370361328
1781554644164654600,79.90665454101563,0.4576273262500763,-6.551548480987549,-1.1150553226470947
1781554644261685000,80.00368505859375,1.4219348430633545,-7.668996810913086,1.7132610082626343
1781554644358715600,80.10071557617188,0.28235307335853577,-13.658231735229492,-0.745364248752594
1781554644455746000,80.19774609375,-4.0181474685668945,-9.608379364013672,-0.31824541091918945
1781554644513964500,80.25596459960937,-0.7178468108177185,-9.738189697265625,5.846862316131592
1781554644610995000,80.35299487304688,-0.16869398951530457,-7.313662528991699,0.35054850578308105
1781554644708025600,80.45002563476562,-1.573280930519104,-7.679764270782471,3.3475589752197266
1781554644805056000,80.54705590820312,-0.33080771565437317,-8.644071578979492,0.4863412082195282
1781554644863274500,80.6052744140625,0.0323031060397625,-10.106684684753418,-3.345165967941284
1781554644940898800,80.68289892578125,-3.472583770751953,-10.6025972366333,2.2546372413635254
1781554644999117300,80.74111743164063,-3.311068296432495,-5.433502197265625,6.037689685821533
1781554645057335600,80.79933544921874,-7.965108394622803,-17.408382415771484,3.862015724182129
1781554645115554000,80.85755395507813,-1.196411371231079,-7.456035137176514,-0.6287141442298889
1781554645212584400,80.95458447265625,-0.4582255482673645,-6.68853759765625,-0.6454638838768005
1781554645309614800,81.05161474609375,1.4015958309173584,-8.824729919433594,-2.778067111968994
1781554645406645500,81.1486455078125,0.6352944374084473,-14.765510559082031,1.01814603805542
1781554645464863700,81.20686376953125,-3.315854072570801,-8.408378601074219,2.2193429470062256
1781554645561894400,81.30389428710937,-1.129412293434143,-7.992027759552002,3.4648072719573975
1781554645658925000,81.40092504882813,1.2394821643829346,-6.187241077423096,0.08673982322216034
1781554645755955500,81.49795556640625,-0.3008974492549896,-9.822537422180176,1.9968105554580688
1781554645814174000,81.55617407226562,-0.4301098585128784,-9.1986083984375,1.2424731254577637
1781554645950016500,81.6920166015625,-1.9298114776611328,-11.206785202026367,2.610569477081299
1781554646008235000,81.75023510742187,-3.879363775253296,-4.982454776763916,4.526622295379639
1781554646066453200,81.80845336914062,-8.774480819702148,-23.09671974182129,0.49710890650749207
1781554646163484000,81.90548388671876,1.3932210206985474,-4.456632137298584,-2.0338993072509766
1781554646260514600,82.0025146484375,0.7956135272979736,-8.025527000427246,1.932204246520996
1781554646357545000,82.099544921875,0.12921242415905,-12.753745079040527,-3.5772697925567627
1781554646415763200,82.15776318359374,0.41994038224220276,-12.964911460876465,1.3525429964065552
1781554646493387800,82.2353876953125,-2.1918256282806396,-9.853643417358398,0.666999340057373
1781554646551606000,82.29360595703125,-1.171286702156067,-7.8041911125183105,6.370890140533447
1781554646609824500,82.35182446289062,1.4662020206451416,-8.927620887756348,1.8239290714263916
1781554646706855000,82.44885498046875,-2.183450698852539,-6.473781585693359,4.404588222503662
1781554646765073400,82.50707348632812,-0.8386843204498291,-8.803194046020508,1.4518451690673828
1781554646862103800,82.60410375976562,0.8644071817398071,-7.993224143981934,-3.284149169921875
1781554646959134500,82.70113452148438,-3.0903303623199463,-11.309676170349121,3.2416765689849854
1781554647017352700,82.75935278320313,-4.680959224700928,-5.124827861785889,5.076971530914307
1781554647114383400,82.85638330078125,-3.7603209018707275,-12.863814353942871,2.1194427013397217
1781554647211414000,82.9534140625,-0.5042873620986938,-6.364310264587402,-1.1808580160140991
1781554647269632300,83.01163232421875,1.3848460912704468,-8.065607070922852,1.835893154144287
1781554647327850500,83.0698505859375,1.1772687435150146,-8.48435115814209,-0.6323033571243286
1781554647424881200,83.16688110351562,0.37028929591178894,-14.746367454528809,2.014756679534912
1781554647483099400,83.22509936523437,-2.9958138465881348,-7.246065139770508,1.3806586265563965
1781554647580130000,83.32213012695313,-1.197009563446045,-8.809774398803711,4.705485820770264
1781554647677160700,83.41916064453125,-1.017547845840454,-7.690532207489014,1.6582261323928833
1781554647774191000,83.51619116210938,-0.8255237936973572,-8.341978073120117,1.7276179790496826
1781554647871221800,83.6132216796875,0.9194421172142029,-7.551748275756836,-0.4223332107067108
1781554647929440000,83.67143994140625,-0.26201409101486206,-12.52881908416748,-2.4705893993377686
1781554648007064600,83.74906469726562,-3.5808591842651367,-8.59621524810791,3.4911282062530518
1781554648065282800,83.80728271484375,-5.157729148864746,-7.9519476890563965,6.0161542892456055
1781554648123501300,83.86550122070312,-5.691328525543213,-15.90150260925293,5.914459228515625
1781554648220532000,83.96253198242188,1.3178470134735107,-5.389235019683838,-1.3968101739883423
1781554648278750200,84.02075024414063,-0.058624155819416046,-8.114660263061523,-0.3152543902397156
1781554648375780600,84.11778051757813,0.8949156403541565,-9.273982048034668,-2.8187451362609863
1781554648472811300,84.21481127929688,2.5842485427856445,-10.808380126953125,0.7471588850021362
1781554648550435600,84.292435546875,-1.4069796800613403,-9.297910690307617,-0.7028916478157043
1781554648628060200,84.37006005859375,-1.5098711252212524,-8.380263328552246,4.278964996337891
1781554648725090800,84.4670908203125,1.6313068866729736,-7.493722438812256,-1.4967105388641357
1781554648822121200,84.56412133789063,-0.46899324655532837,-8.552546501159668,2.733799934387207
1781554648880339700,84.62233959960938,-1.184447169303894,-8.014161109924316,-0.26141586899757385
1781554648977370400,84.71937036132813,-0.6221339106559753,-11.982657432556152,-1.6055840253829956
1781554649113213200,84.85521313476562,-3.207578659057617,-2.375474691390991,6.8279194831848145
1781554649171431400,84.91343139648437,-7.0546393394470215,-22.384855270385742,-3.2745778560638428
1781554649229650000,84.97164990234376,-2.9653055667877197,-9.827920913696289,-0.20159530639648438
1781554649326680300,85.06868041992188,-0.5952146053314209,-6.062814235687256,0.32542386651039124
1781554649423711000,85.1657109375,0.6460621356964111,-8.894122123718262,-0.026919255033135414
1781554649520741600,85.26274169921875,1.0348957777023315,-13.265210151672363,-1.0067801475524902
1781554649598366000,85.34036596679688,-2.282752752304077,-6.784848690032959,0.47198426723480225
1781554649675990500,85.41799047851562,-1.3782658576965332,-10.042078018188477,4.411766529083252
1781554649734208800,85.47620874023437,0.4570291340351105,-8.456833839416504,1.4835500717163086
1781554649831239400,85.57323950195313,-1.719243049621582,-6.945167541503906,3.1860432624816895
1781554649928270000,85.67027001953124,-1.3070793151855469,-8.850452423095703,0.9194421172142029
1781554650025300500,85.76730053710938,0.6975077986717224,-10.299904823303223,-2.699103832244873
1781554650083519000,85.82551904296875,-2.717050075531006,-13.348958969116211,0.24945175647735596
1781554650180549600,85.92254956054687,-3.9571304321289062,-7.369893550872803,6.979265213012695
1781554650277580300,86.01958032226563,-0.7214360237121582,-9.020941734313965,-1.4063814878463745
1781554650374610700,86.11661059570312,0.34217363595962524,-7.313662528991699,0.7447660565376282
1781554650432829200,86.1748291015625,0.49172505736351013,-6.939185619354248,2.076970100402832
1781554650529859800,86.27185986328125,-0.39601215720176697,-14.033905029296875,-3.927220106124878
1781554650646296300,86.38829638671875,-4.504488468170166,-9.31585693359375,1.236491084098816
1781554650723921000,86.4659208984375,-1.6683956384658813,-8.168498039245605,4.879563808441162
1781554650782139400,86.52413940429688,1.186241865158081,-7.933403491973877,0.989432156085968
1781554650879169800,86.62116967773437,-1.9639091491699219,-6.836294174194336,3.972683906555176
1781554650976200400,86.71820043945313,-0.9846464991569519,-9.05444049835205,0.34695929288864136
1781554651034419000,86.7764189453125,0.2967100143432617,-7.715656757354736,-2.9563324451446533
1781554651112043500,86.85404345703125,-2.6117658615112305,-13.162917137145996,0.36191442608833313
1781554651170261800,86.91226171875,-4.143172264099121,-4.826323509216309,4.997410297393799
1781554651228480300,86.97048022460937,-6.44387149810791,-16.649259567260742,4.435096740722656
1781554651325511000,87.06751098632813,0.17108681797981262,-4.7096734046936035,-3.462414264678955
1781554651383729200,87.12572924804688,0.13040883839130402,-7.064210414886475,-0.503689169883728
1781554651480759800,87.222759765625,1.212562918663025,-8.523234367370605,-0.11066804826259613
1781554651577790500,87.31979052734376,1.4368900060653687,-12.584452629089355,-0.5030909776687622
1781554651655414800,87.39741479492187,-4.593621253967285,-12.769896507263184,3.903291940689087
1781554651733039400,87.47503930664062,-1.5212370157241821,-9.530014038085938,5.522036552429199
1781554651830070000,87.57207006835938,-1.2532408237457275,-6.919445037841797,0.15672987699508667
1781554651927100700,87.6691005859375,-0.9780662655830383,-7.678567886352539,3.637688636779785
1781554651985319000,87.72731884765625,-0.9218349456787109,-9.305088996887207,0.17108681797981262
1781554652082349600,87.824349609375,-0.0849452018737793,-11.258230209350586,-2.417947292327881
1781554652159974100,87.90197412109374,-5.330012321472168,-12.034103393554688,1.3752747774124146
1781554652237598700,87.9795986328125,-3.2446675300598145,-11.115857124328613,6.9690961837768555
1781554652334629400,88.07662939453125,0.99481600522995,-5.635695457458496,-1.7336000204086304
1781554652431660000,88.17365991210937,0.11246266216039658,-8.003992080688477,-0.8560323119163513
1781554652528690700,88.27069067382813,0.6305087804794312,-7.844869136810303,-2.6865415573120117
1781554652586909000,88.32890893554688,-0.35054850578308105,-14.623735427856445,-1.6773686408996582
1781554652683939600,88.42593969726562,-3.149552822113037,-15.757335662841797,4.7503509521484375
1781554652780970200,88.52297021484375,-0.4456632137298584,-8.230711936950684,5.965306758880615
1781554652878001000,88.6200009765625,-1.7964116334915161,-5.927021503448486,1.4434702396392822
1781554652936219400,88.67821948242188,-3.1034910678863525,-5.678766250610352,4.0079779624938965
1781554653033250000,88.77525,-0.7028916478157043,-10.169496536254883,-0.029312077909708023
1781554653169092900,88.9110927734375,-1.4889339208602905,-12.293126106262207,0.005982056725770235
1781554653227311400,88.96931127929687,-2.9754750728607178,-4.008575916290283,2.771486759185791
1781554653285529600,89.02752954101562,-7.261618614196777,-18.367904663085938,3.2129626274108887
1781554653382560300,89.12456030273438,-1.1545369625091553,-4.126422882080078,-2.4227328300476074
1781554653479591000,89.2215908203125,-0.7160521745681763,-7.307082176208496,-0.4546363055706024
1781554653537809400,89.27980932617187,2.105085611343384,-8.050651550292969,1.9854445457458496
1781554653634840000,89.37684008789063,1.2346965074539185,-14.502898216247559,-1.1018948554992676
1781554653731870700,89.47387060546875,-3.737588882446289,-8.052446365356445,-0.9930213689804077
1781554653828901400,89.5709013671875,-0.5575276613235474,-8.560322761535645,3.3032915592193604
1781554653887120000,89.62911987304688,-0.49292147159576416,-6.595217227935791,1.4404792785644531
1781554653984150500,89.72615063476563,-1.633699655532837,-7.8819580078125,1.815554141998291
1781554654081181200,89.82318115234375,-0.37088751792907715,-8.61894702911377,0.8087740540504456
1781554654139399400,89.8813994140625,-0.7046862840652466,-10.119247436523438,-2.682354211807251
1781554654236430000,89.97843017578126,-1.129412293434143,-3.6023945808410645,4.142574310302734
1781554654294648600,90.03664868164063,-7.2921271324157715,-14.668601036071777,2.8803603649139404
1781554654372273200,90.11427319335938,-3.7148571014404297,-14.31625747680664,3.1651060581207275
1781554654488710000,90.2307099609375,-0.18723836541175842,-7.920242786407471,-1.0223335027694702
1781554654585740500,90.32774047851562,0.7316055297851562,-5.863611698150635,-1.1886346340179443
1781554654682771200,90.42477124023438,0.47617170214653015,-15.309279441833496,-0.2805584669113159
1781554654779801900,90.5218017578125,-2.9521448612213135,-5.672784328460693,0.4139583110809326
1781554654838020400,90.58002026367187,0.9146564602851868,-10.911869049072266,5.877968788146973
1781554654935051000,90.67705102539063,-0.8745766878128052,-7.53559684753418,0.8392825126647949
1781554655032081700,90.77408154296874,-1.3465609550476074,-7.708477973937988,1.789831280708313
1781554655090300200,90.83230004882813,-0.37866419553756714,-9.230911254882812,1.26699960231781
1781554655187330800,90.92933081054687,0.4995017349720001,-9.541379928588867,-0.28654050827026367
1781554655284361500,91.02636157226563,-3.7088751792907715,-12.336196899414062,1.3651052713394165
1781554655381392100,91.12339208984375,-5.4628143310546875,-16.43450355529785,6.09751033782959
1781554655439610600,91.18161059570312,-4.747958183288574,-11.91625690460205,3.180659532546997
1781554655536641300,91.27864135742188,-0.39481574296951294,-7.582854747772217,-1.9399809837341309
1781554655633672000,91.375671875,1.5930216312408447,-7.566105365753174,2.3676979541778564
1781554655730702600,91.47270263671875,0.4743770956993103,-14.392230033874512,0.09391828626394272
1781554655808327200,91.5503271484375,-4.3417768478393555,-7.378866672515869,1.3806586265563965
1781554655885951700,91.62795166015626,-1.9244276285171509,-8.921639442443848,6.249454498291016
1781554655982982400,91.724982421875,-1.5667005777359009,-7.1270222663879395,0.6586244106292725
1781554656041201000,91.78320092773437,0.3966103494167328,-6.2189459800720215,1.4219348430633545
1781554656138231600,91.8802314453125,-1.2939188480377197,-9.739386558532715,1.9746768474578857
1781554656235262200,91.97726220703125,-0.2309073805809021,-11.139785766601562,-3.9984066486358643
1781554656312886800,92.05488671875,-3.8189449310302734,-8.993423461914062,2.8217360973358154
1781554656390511400,92.13251147460937,-6.116054534912109,-14.844473838806152,5.309075355529785
1781554656487542000,92.2295419921875,0.3158525824546814,-4.6438703536987305,-2.729612350463867
1781554656584572700,92.32657275390625,-0.25304099917411804,-7.761120319366455,-0.5455635786056519
1781554656681603300,92.42360327148438,1.7395820617675781,-10.053443908691406,-2.1577277183532715
1781554656739821800,92.48182177734375,1.3651052713394165,-15.119050025939941,-2.0650060176849365
1781554656817446400,92.5594462890625,-0.7226324677467346,-5.904289722442627,0.050847481936216354
1781554656875664600,92.61766455078126,-3.3894333839416504,-15.511472702026367,5.3318071365356445
1781554656933883100,92.67588305664063,0.2392822653055191,-8.749954223632812,1.3465609550476074
1781554656992101600,92.7341015625,-1.4051851034164429,-7.0857462882995605,1.6660027503967285
1781554657089132300,92.83113232421876,-1.29810631275177,-7.569694519042969,1.8580267429351807
1781554657186163000,92.92816284179688,-0.9415757060050964,-9.971489906311035,0.30568310618400574
1781554657283193600,93.02519360351563,-0.7052844762802124,-11.164312362670898,-0.5060819983482361
1781554657341412000,93.083412109375,-2.478964328765869,-12.151949882507324,0.8697910308837891
1781554657477255200,93.21925512695313,-5.109274387359619,-15.123835563659668,4.161118507385254
1781554657535473700,93.2774736328125,-1.357926845550537,-6.744170665740967,-1.0402796268463135
1781554657593692000,93.33569189453125,0.038285162299871445,-7.459624767303467,-1.0911271572113037
1781554657690722600,93.43272265625,0.46839502453804016,-8.168498039245605,1.8807586431503296
1781554657787753500,93.52975341796875,0.10289137065410614,-11.310274124145508,-1.933998942375183
1781554657923596300,93.66559619140625,-1.4709876775741577,-8.202595710754395,-1.114457130432129
1781554657981814800,93.72381469726562,-3.2781670093536377,-10.449456214904785,5.821737289428711
1781554658040033300,93.782033203125,0.5330012440681458,-9.149555206298828,1.1940184831619263
1781554658137064000,93.87906396484375,-0.29371899366378784,-8.268997192382812,2.0757737159729004
1781554658234094600,93.97609448242187,-0.33798620104789734,-8.274978637695312,0.05802594870328903
1781554658292313000,94.03431298828124,-0.646660327911377,-9.350552558898926,0.03170489892363548
1781554658389343700,94.13134375,0.6711867451667786,-9.725627899169922,1.939382791519165
1781554658486374400,94.22837451171876,-0.3242274820804596,-12.287742614746094,-0.33798620104789734
1781554658583405000,94.32540502929687,-7.63729190826416,-8.360522270202637,1.892722725868225
1781554658641623600,94.38362353515625,-5.257031440734863,-11.526824951171875,5.306682586669922
1781554658738654200,94.480654296875,-0.5168496966362,-6.0263237953186035,-1.724626898765564
1781554658835684900,94.57768481445312,0.05024927482008934,-8.821739196777344,-0.47916272282600403
1781554658893903400,94.6359033203125,0.9954141974449158,-9.528220176696777,-1.6366907358169556
1781554659010340000,94.75234008789063,0.35533416271209717,-13.040285110473633,-1.170688509941101
1781554659087964700,94.82996459960937,-2.837887763977051,-7.1024956703186035,1.5906288623809814
1781554659184995600,94.92699560546875,-0.4169493317604065,-10.791629791259766,1.2161520719528198
1781554659243213800,94.9852138671875,-0.997208833694458,-5.79481840133667,0.243469700217247
1781554659340244700,95.08224462890625,-0.4833501875400543,-7.855038642883301,0.9415757060050964
1781554659437275400,95.179275390625,-0.02751746028661728,-8.799605369567871,0.2907279431819916
1781554659534306000,95.27630615234375,-5.865406513214111,-16.180267333984375,0.3577269911766052
1781554659592524500,95.33452465820312,-5.240880012512207,-6.14835786819458,6.258427619934082
1781554659689555200,95.43155517578126,-0.9924231767654419,-8.69910717010498,2.665006160736084
1781554659786586000,95.52858618164062,-1.3710874319076538,-7.8628153800964355,-1.8472590446472168
1781554659844804400,95.58680444335937,-0.5485545992851257,-8.94377326965332,-0.2907279431819916
1781554659941835000,95.6838349609375,1.217348575592041,-12.78305721282959,-4.310669898986816
1781554660019459600,95.76145947265626,0.3517449200153351,-20.7176570892334,7.479963779449463
1781554660077678000,95.81967797851563,-1.7808582782745361,-11.21336555480957,3.813561201095581
1781554660135896600,95.877896484375,-1.2604193687438965,-8.585447311401367,3.5204403400421143
1781554660194115000,95.93611499023437,-0.34576287865638733,-8.022536277770996,-0.12801600992679596
1781554660291145700,96.03314575195313,-0.6059823632240295,-6.81595516204834,3.2177481651306152
1781554660388176400,96.13017626953125,-1.602592945098877,-8.702695846557617,2.0243279933929443
1781554660446395000,96.18839477539062,0.7304090857505798,-7.671389579772949,-3.1268210411071777
1781554660504613400,96.24661328125,-2.210968017578125,-14.167304992675781,-1.0301101207733154
1781554660582238000,96.32423803710938,-4.77248477935791,-3.0173492431640625,4.840082168579102
1781554660640456400,96.38245654296875,-8.082356452941895,-22.265214920043945,3.648456335067749
1781554660698674700,96.4406748046875,-3.8703906536102295,-10.674382209777832,1.810768485069275
1781554660795705600,96.53770556640625,-0.9601200819015503,-5.960521221160889,-0.3475574851036072
1781554660892736300,96.634736328125,1.4081761837005615,-9.154341697692871,0.0568295381963253
1781554660989767000,96.73176684570312,1.1581261157989502,-13.789836883544922,0.45164528489112854
1781554661047985400,96.7899853515625,-0.13519448041915894,-13.82812213897705,3.793222188949585
1781554661145016000,96.88701611328125,-1.8269200325012207,-8.10688304901123,5.893522262573242
1781554661242046700,96.98404663085938,-1.609771490097046,-7.1820573806762695,1.1024930477142334
1781554661339077600,97.08107763671875,-1.3728820085525513,-7.397411346435547,2.0614166259765625
1781554661397296000,97.13929614257812,-1.4231312274932861,-9.776474952697754,1.2556337118148804
1781554661494326800,97.23632690429687,0.09810572862625122,-10.120443344116211,-2.362314224243164
1781554661552545300,97.29454516601562,-2.958127021789551,-13.622339248657227,0.1495514214038849
1781554661649576000,97.39157592773438,-3.4031920433044434,-6.080760478973389,6.683752059936523
1781554661746606800,97.48860693359374,-3.4157543182373047,-9.975677490234375,0.6592226624488831
1781554661843637500,97.58563745117188,-0.40677985548973083,-6.951747894287109,-0.14297115802764893
1781554661940668200,97.68266821289062,0.99481600522995,-8.921041488647461,0.14356936514377594
1781554661998886700,97.74088671875,0.24107688665390015,-13.749756813049316,-3.0999016761779785
1781554662134729700,97.87672973632813,-3.329014539718628,-9.111868858337402,0.008374879136681557
1781554662192948000,97.93494799804688,-1.6002001762390137,-8.916853904724121,5.635695457458496
1781554662251166500,97.99316650390625,0.9667003750801086,-8.821739196777344,1.179661512374878
1781554662348197000,98.09019702148437,-1.415354609489441,-6.382854461669922,3.31884503364563
1781554662484040200,98.22604028320312,-1.4398809671401978,-9.089137077331543,0.6526423692703247
1781554662542258700,98.2842587890625,0.33918261528015137,-9.502496719360352,-0.7896314859390259
1781554662619883300,98.36188330078124,-2.1547367572784424,-12.76331615447998,-0.17527425289154053
1781554662678101800,98.42010180664063,-4.29033088684082,-3.9397823810577393,5.682953834533691
1781554662736320300,98.4783203125,-5.594419479370117,-15.562918663024902,4.428516387939453
1781554662794538800,98.53653881835938,-3.9248273372650146,-13.654642105102539,1.1324033737182617
1781554662891569400,98.6335693359375,-0.2584248483181,-6.793821811676025,-0.8817551732063293
1781554662988600000,98.73060009765625,2.0057835578918457,-7.158727169036865,1.5535401105880737
1781554663085631000,98.827630859375,-0.9481559991836548,-15.598212242126465,-3.5617165565490723
1781554663182661600,98.92466162109375,-1.622931957244873,-8.718249320983887,1.6648063659667969
1781554663240880000,98.98288012695312,-3.6472599506378174,-11.344970703125,3.710669755935669
1781554663337910800,99.07991088867188,0.30508488416671753,-7.548757076263428,1.4261223077774048
1781554663434941400,99.17694140625,-2.2606191635131836,-7.438089370727539,2.5639095306396484
1781554663493160000,99.23515991210938,-1.0456634759902954,-9.166903495788574,1.1132607460021973
1781554663590190800,99.33219091796875,-0.27756741642951965,-8.155936241149902,1.8771693706512451
1781554663706627600,99.44862768554688,-2.5232315063476562,-13.809577941894531,0.08015955984592438
1781554663784252200,99.52625219726562,-3.996612071990967,-2.4161527156829834,5.7786664962768555
1781554663842470700,99.584470703125,-8.23430061340332,-22.471595764160156,1.6319050788879395
1781554663939501600,99.68150146484375,0.4049852192401886,-3.9493536949157715,-1.4811571836471558
1781554664036532200,99.7785322265625,0.7561319470405579,-7.068996429443359,1.441077470779419
1781554664094750700,99.83675073242188,1.1407781839370728,-8.635697364807129,-1.342971682548523
1781554664191781400,99.93378149414062,2.662015199661255,-16.50210189819336,-0.31046873331069946
1781554664250000000,99.99199975585938,-3.273979663848877,-11.860025405883789,5.027918815612793
1781554664327624400,100.06962451171874,-2.038684844970703,-8.349156379699707,4.825725078582764
1781554664385843000,100.12784301757813,0.39421752095222473,-10.129416465759277,1.0803594589233398
1781554664444061400,100.1860615234375,-1.2388839721679688,-6.651448726654053,1.095314621925354
1781554664541092000,100.28309204101562,-1.353141188621521,-7.262216567993164,1.3782658576965332
1781554664638122800,100.38012280273438,0.37806597352027893,-9.041280746459961,2.0231316089630127
1781554664735153700,100.47715356445312,-3.6460635662078857,-15.476179122924805,-0.4588237404823303
1781554664793372200,100.5353720703125,-5.704489231109619,-3.1549365520477295,4.030111312866211
1781554664890402800,100.63240283203125,-6.639484405517578,-12.729218482971191,5.947958946228027
1781554664987433700,100.72943383789062,-0.22013968229293823,-6.306882381439209,-1.2370892763137817
1781554665045652200,100.78765234375,-0.11126625537872314,-7.429714202880859,0.7579265832901001
1781554665142683000,100.88468286132813,0.0364905446767807,-11.095519065856934,-3.7130625247955322
1781554665239713500,100.98171362304687,-1.0606186389923096,-19.43330955505371,6.353542327880859
1781554665336744400,101.07874438476563,-3.3230323791503906,-10.518848419189453,3.9008991718292236
1781554665394963000,101.136962890625,-0.34217363595962524,-8.851649284362793,0.7627122402191162
1781554665491993600,101.23399365234376,-0.42711883783340454,-6.475576400756836,1.5822539329528809
1781554665589024500,101.3310244140625,-1.7060825824737549,-8.24267578125,2.0781664848327637
1781554665647243000,101.38924291992187,-1.4500504732131958,-10.042078018188477,2.4095723628997803
1781554665763679700,101.5056796875,-3.3242287635803223,-14.837294578552246,-0.3858426511287689
1781554665841304600,101.5833046875,-3.452843189239502,-1.9561325311660767,5.818148136138916
1781554665899523000,101.64152319335938,-5.707480430603027,-19.505094528198242,3.197409152984619
1781554665996553700,101.7385537109375,-0.7244270443916321,-5.2869415283203125,-2.383251428604126
1781554666093584600,101.83558471679687,0.6795616149902344,-6.605985164642334,1.534995675086975
1781554666190615300,101.932615234375,-0.1423729509115219,-11.24207878112793,-3.1758737564086914
1781554666248833800,101.99083374023438,0.5647061467170715,-15.738790512084961,-0.3038884699344635
1781554666326458400,102.06845825195313,-0.763310432434082,-15.245869636535645,3.4648072719573975
1781554666384676900,102.1266767578125,-2.316850423812866,-10.494321823120117,2.681756019592285
1781554666442895400,102.18489526367188,-0.8745766878128052,-7.4602227210998535,2.1343977451324463
1781554666539926300,102.28192626953125,-1.4602199792861938,-6.7208404541015625,1.7724833488464355
1781554666598144500,102.34014453125,-1.898106575012207,-6.14417028427124,3.200998544692993
1781554666695175400,102.43717553710937,-2.0542383193969727,-9.130413055419922,1.1682956218719482
1781554666811612400,102.5536123046875,-1.4374881982803345,-14.315659523010254,-0.9110672473907471
1781554666889237200,102.6312373046875,-5.232504844665527,-3.1830523014068604,2.908475875854492
1781554666947455500,102.68945556640625,-4.890929698944092,-16.629518508911133,5.7756757736206055
1781554667044486400,102.786486328125,-0.2709871530532837,-3.7226338386535645,-3.111267566680908
1781554667141517300,102.88351733398437,0.5784648656845093,-6.967301368713379,-0.004785645287483931
1781554667199735800,102.94173583984374,0.9684949517250061,-8.27258586883545,2.89172625541687
1781554667296766500,103.03876635742188,0.8715856671333313,-14.694323539733887,-0.06340979784727097
1781554667354985000,103.09698486328125,-1.6372889280319214,-12.66042423248291,4.993222713470459
1781554667432609500,103.17460961914063,-1.765903115272522,-11.049456596374512,5.1774702072143555
1781554667490828000,103.232828125,1.3423734903335571,-9.129216194152832,0.3122633695602417
1781554667549046500,103.29104663085937,-1.95852530002594,-6.343372821807861,1.9399809837341309
1781554667646077400,103.38807739257813,-1.693520188331604,-7.8526458740234375,2.0297117233276367
1781554667743108400,103.4851083984375,0.5180460810661316,-9.511469841003418,1.1018948554992676
1781554667801326800,103.54332690429688,0.03409772366285324,-12.196216583251953,-2.45204496383667
1781554667859545300,103.60154541015625,-4.2622151374816895,-13.980664253234863,1.2508480548858643
1781554667937170000,103.679169921875,-4.097110748291016,-5.075775146484375,7.0857462882995605
1781554667995388400,103.73738842773437,-7.054041385650635,-15.965511322021484,4.9878387451171875
1781554668092419300,103.83441943359375,1.9639091491699219,-4.205385684967041,-1.2526426315307617
1781554668150637800,103.89263793945312,-0.389431893825531,-7.434499740600586,-0.0687936544418335
1781554668247668500,103.98966845703124,1.0857433080673218,-11.038688659667969,-2.6697919368743896
1781554668383511600,104.12551147460937,-3.3852458000183105,-12.056835174560547,5.252843856811523
1781554668441730000,104.18372998046875,-0.8009973764419556,-11.473584175109863,2.7074787616729736
